Device,EulerX,EulerY,EulerZ,FreeAccX,FreeAccY,FreeAccZ,Timestamp
D4:22:CD:00:05:5D,173.26434326171875,-55.749691009521484,-72.5357666015625,-3.0572948455810547,-1.6988744735717773,7.183832168579102,2436.870625734329
D4:22:CD:00:05:6B,-23.022109985351562,11.10119342803955,-73.1269302368164,-9.06947135925293,-11.599594116210938,7.911838531494141,2436.870625734329
D4:22:CD:00:49:AA,139.3271026611328,-78.71873474121094,164.59979248046875,-8.234790802001953,-1.4295427799224854,4.952917098999023,2436.870625734329
D4:22:CD:00:05:6E,-124.68883514404297,-81.47158813476562,-58.487205505371094,2.8581767082214355,-16.30904769897461,5.05058479309082,2436.870625734329
D4:22:CD:00:05:5E,-160.23855590820312,-55.604061126708984,-15.637450218200684,3.183009147644043,12.296976089477539,-6.211331367492676,2436.870625734329
D4:22:CD:00:05:5D,173.44268798828125,-62.56898498535156,-70.92815399169922,-2.530259132385254,-5.920958518981934,8.957263946533203,2436.873635292053
D4:22:CD:00:05:6B,-14.787749290466309,16.04434585571289,-75.80562591552734,-13.960830688476562,-7.43829345703125,-1.775461196899414,2436.873635292053
D4:22:CD:00:49:AA,139.7386474609375,-81.08505249023438,168.59825134277344,-1.3074564933776855,2.157534122467041,0.44658470153808594,2436.873635292053
D4:22:CD:00:05:6E,-122.39830017089844,-78.67813110351562,-54.3691520690918,0.8089113235473633,-14.769912719726562,-3.124392509460449,2436.873635292053
D4:22:CD:00:05:5E,-162.76296997070312,-59.217220306396484,-15.512476921081543,6.310802459716797,18.316802978515625,-13.14547348022461,2436.873635292053
D4:22:CD:00:49:AA,150.3670196533203,-81.83074188232422,163.114013671875,0.03621535748243332,2.3512229919433594,-5.347612380981445,2436.8766338825226
D4:22:CD:00:05:6E,-123.93356323242188,-77.51225280761719,-47.152042388916016,-0.16777288913726807,-12.29012680053711,-9.185134887695312,2436.8766338825226
D4:22:CD:00:05:5E,-157.59796142578125,-65.70764923095703,-22.0089168548584,6.029736518859863,14.225500106811523,-15.365047454833984,2436.8766338825226
D4:22:CD:00:05:5D,-106.1697998046875,-63.6640625,-91.94986724853516,-2.659557342529297,-1.2456250190734863,-1.679056167602539,2436.87863445282
D4:22:CD:00:05:6B,-73.42378997802734,-5.020390033721924,-64.38574981689453,1.1962220668792725,0.11995819211006165,1.3767929077148438,2436.87863445282
D4:22:CD:00:49:AA,163.30517578125,-81.06242370605469,154.8104705810547,1.16269850730896,1.2934279441833496,-8.221614837646484,2436.87863445282
D4:22:CD:00:05:6E,-122.62367248535156,-77.86039733886719,-40.4930419921875,2.126628875732422,1.1173293590545654,-12.942880630493164,2436.87863445282
D4:22:CD:00:05:5D,-120.65081024169922,-65.19235229492188,-77.01725769042969,-3.8333091735839844,-2.326413631439209,-0.4624500274658203,2436.9551832675934
D4:22:CD:00:05:6B,-72.2276840209961,-2.123035192489624,-66.34501647949219,2.4792542457580566,-1.4720304012298584,7.600801467895508,2436.9551832675934
D4:22:CD:00:05:5E,-131.8340606689453,-74.67362976074219,-48.90604782104492,-0.4175785779953003,-12.018360137939453,11.713460922241211,2436.9551832675934
D4:22:CD:00:05:5D,-149.9698486328125,-63.98896789550781,-47.57282257080078,-3.7993335723876953,-2.858854293823242,-0.8798284530639648,2436.9851841926575
D4:22:CD:00:05:6B,-63.690223693847656,1.5186142921447754,-71.6526107788086,2.8551111221313477,-2.6778459548950195,12.032337188720703,2436.9851841926575
D4:22:CD:00:49:AA,-174.00543212890625,-76.50553131103516,93.77486419677734,1.1071908473968506,1.2444190979003906,-2.648393154144287,2436.9851841926575
D4:22:CD:00:05:6E,94.83482360839844,-83.39823913574219,-26.75723648071289,22.39077377319336,-19.515209197998047,8.847698211669922,2436.9851841926575
D4:22:CD:00:05:5E,156.7765350341797,-74.08219909667969,26.719146728515625,0.4785388708114624,-2.710873603820801,17.497894287109375,2436.9851841926575
D4:22:CD:00:05:5D,-167.6612091064453,-59.15514373779297,-29.435089111328125,-4.2835693359375,-2.3742098808288574,0.010756492614746094,2437.015197992325
D4:22:CD:00:05:6B,-57.38908767700195,7.3722405433654785,-75.71570587158203,7.442276954650879,4.502703666687012,6.1711931228637695,2437.015197992325
D4:22:CD:00:49:AA,175.4940185546875,-78.94256591796875,104.05845642089844,-1.9045546054840088,-0.978662371635437,2.143568992614746,2437.015197992325
D4:22:CD:00:05:6E,-58.057518005371094,-47.404300689697266,135.493408203125,-20.724685668945312,16.541427612304688,5.400824546813965,2437.015197992325
D4:22:CD:00:05:5E,145.9213409423828,-66.86874389648438,43.95771789550781,-1.987349033355713,0.4259975552558899,16.506935119628906,2437.015197992325
D4:22:CD:00:05:5D,-175.7032012939453,-54.46413803100586,-21.21243667602539,-2.2290291786193848,-0.9048528671264648,0.8746986389160156,2437.074731826782
D4:22:CD:00:05:6B,-55.69243240356445,18.644777297973633,-73.3930892944336,13.71458625793457,0.7735118865966797,20.33548355102539,2437.074731826782
D4:22:CD:00:49:AA,-173.21435546875,-78.78783416748047,94.10188293457031,0.7309963703155518,0.8026282787322998,11.471054077148438,2437.074731826782
D4:22:CD:00:05:6E,-40.44865417480469,-60.518829345703125,127.19892883300781,-9.063623428344727,14.28303337097168,10.540702819824219,2437.074731826782
D4:22:CD:00:05:5E,147.03890991210938,-62.19371032714844,40.62199020385742,-4.013909339904785,3.097283363342285,14.041540145874023,2437.074731826782
D4:22:CD:00:05:5D,-178.22607421875,-51.75950241088867,-18.20937728881836,-2.5383505821228027,-3.4962844848632812,3.202946662902832,2437.1047461032867
D4:22:CD:00:05:6B,-43.44306182861328,27.958093643188477,-63.61677932739258,13.077539443969727,-10.347330093383789,19.862083435058594,2437.1047461032867
D4:22:CD:00:49:AA,-174.08766174316406,-78.20330047607422,97.02478790283203,6.476309776306152,1.644474983215332,10.027362823486328,2437.1047461032867
D4:22:CD:00:05:6E,-16.32424545288086,-75.04315185546875,111.62547302246094,-12.226144790649414,10.685543060302734,7.056423187255859,2437.1047461032867
D4:22:CD:00:05:5E,149.06564331054688,-59.75584411621094,34.64649963378906,-7.007641792297363,13.389354705810547,5.3001508712768555,2437.1047461032867
D4:22:CD:00:05:5D,-179.40939331054688,-51.32891845703125,-16.9650936126709,-1.93233323097229,-0.35344600677490234,2.905576705932617,2437.1349790096283
D4:22:CD:00:05:6B,-25.860172271728516,31.00739860534668,-51.72697067260742,8.183700561523438,-10.669898986816406,12.59566879272461,2437.1349790096283
D4:22:CD:00:49:AA,174.60556030273438,-76.7641830444336,108.8034439086914,0.11774706840515137,-0.311337411403656,12.960172653198242,2437.1349790096283
D4:22:CD:00:05:6E,29.146743774414062,-81.21115112304688,71.29163360595703,-6.358565330505371,1.952976942062378,2.1286373138427734,2437.1349790096283
D4:22:CD:00:05:5E,161.672119140625,-60.19086456298828,25.339675903320312,-5.936667442321777,11.509824752807617,-2.046008586883545,2437.1349790096283
D4:22:CD:00:05:5D,-179.13131713867188,-52.987342834472656,-16.6203670501709,-1.0981364250183105,-0.46153533458709717,1.8594598770141602,2437.1649792194366
D4:22:CD:00:05:6B,-11.229077339172363,32.473419189453125,-46.139068603515625,-10.388256072998047,-22.614089965820312,2.919520378112793,2437.1649792194366
D4:22:CD:00:49:AA,170.2154998779297,-76.02576446533203,114.79105377197266,-0.054845161736011505,-0.802001953125,8.166257858276367,2437.1649792194366
D4:22:CD:00:05:6E,50.48659896850586,-80.80052947998047,60.48002243041992,-4.289694786071777,-0.5391279458999634,-1.9721760749816895,2437.1649792194366
D4:22:CD:00:05:5E,176.78823852539062,-61.78193664550781,14.68215560913086,-1.715982437133789,6.5310869216918945,-13.776140213012695,2437.1649792194366
D4:22:CD:00:05:5D,-177.64892578125,-56.193885803222656,-17.11313819885254,-1.7404122352600098,-3.5268335342407227,2.6661157608032227,2437.1949796676636
D4:22:CD:00:05:6B,7.496809005737305,35.896949768066406,-46.113040924072266,-9.094902038574219,-14.107282638549805,-10.054098129272461,2437.1949796676636
D4:22:CD:00:49:AA,172.74839782714844,-76.63973999023438,114.75570678710938,-2.7695775032043457,1.1250543594360352,4.7502641677856445,2437.1949796676636
D4:22:CD:00:05:6E,37.570343017578125,-80.43421173095703,88.30718994140625,-7.438873291015625,0.5484404563903809,-6.806962013244629,2437.1949796676636
D4:22:CD:00:05:5E,-171.0653533935547,-64.91808319091797,5.129246711730957,3.783888339996338,0.9537210464477539,-21.60497283935547,2437.1949796676636
D4:22:CD:00:05:5D,-176.484619140625,-61.1309928894043,-16.039630889892578,-0.9172124862670898,-9.601387023925781,4.649571418762207,2437.2245297431946
D4:22:CD:00:05:6B,24.035144805908203,41.006431579589844,-44.98075485229492,-4.149101257324219,-6.036346435546875,-11.18409538269043,2437.2245297431946
D4:22:CD:00:49:AA,-177.16357421875,-78.09065246582031,109.85863494873047,-2.5439682006835938,1.9434590339660645,2.930561065673828,2437.2245297431946
D4:22:CD:00:05:6E,14.735260963439941,-78.24612426757812,126.27445983886719,-7.712227821350098,-0.9036340713500977,-9.534826278686523,2437.2245297431946
D4:22:CD:00:05:5E,-162.5501708984375,-70.95108032226562,-3.3446338176727295,3.9393434524536133,3.8516106605529785,-21.664871215820312,2437.2245297431946
D4:22:CD:00:05:5D,-179.56317138671875,-68.81755828857422,-11.284159660339355,8.126888275146484,-9.947021484375,3.0725107192993164,2437.2546195983887
D4:22:CD:00:05:6B,43.294281005859375,45.430320739746094,-39.76617431640625,-9.267972946166992,2.537344455718994,-13.999139785766602,2437.2546195983887
D4:22:CD:00:49:AA,-163.11534118652344,-79.04463195800781,102.4718246459961,-3.086760997772217,1.0377204418182373,-2.3351306915283203,2437.2546195983887
D4:22:CD:00:05:6E,4.913961410522461,-73.81254577636719,152.70401000976562,-5.440627098083496,-0.7568216323852539,-11.135046005249023,2437.2546195983887
D4:22:CD:00:05:5E,-138.6380615234375,-80.68065643310547,-25.43489646911621,1.6844563484191895,3.480926036834717,-13.746137619018555,2437.2546195983887
D4:22:CD:00:05:5D,173.5813751220703,-71.8499984741211,2.384312391281128,-1.1166608333587646,3.6365714073181152,-3.51485538482666,2437.284619808197
D4:22:CD:00:05:6B,59.2088623046875,48.43566131591797,-32.387840270996094,3.069342613220215,10.137138366699219,-4.708148956298828,2437.284619808197
D4:22:CD:00:49:AA,-149.0968780517578,-78.89816284179688,94.7794189453125,-1.295651912689209,1.3055317401885986,-7.677741050720215,2437.284619808197
D4:22:CD:00:05:6E,7.882508754730225,-69.19625091552734,166.8842315673828,-7.210379600524902,-7.526230812072754,-12.616878509521484,2437.284619808197
D4:22:CD:00:05:5E,-40.52948760986328,-81.9885482788086,-121.60218811035156,-2.00736665725708,-2.5645508766174316,-8.829792022705078,2437.284619808197
D4:22:CD:00:05:5D,168.8604736328125,-69.64079284667969,16.796262741088867,-5.208953857421875,6.580145835876465,-2.933408260345459,2437.3146393299103
D4:22:CD:00:05:6B,64.05049896240234,51.23799514770508,-26.91853141784668,0.42599594593048096,4.286620140075684,-4.113832473754883,2437.3146393299103
D4:22:CD:00:49:AA,-139.31199645996094,-79.57736206054688,88.9170150756836,6.241491317749023,1.7495779991149902,-11.903438568115234,2437.3146393299103
D4:22:CD:00:05:6E,7.465396881103516,-66.37444305419922,175.69090270996094,-2.408034324645996,-7.673725128173828,-11.31275749206543,2437.3146393299103
D4:22:CD:00:05:5E,-13.438742637634277,-71.32449340820312,-151.29428100585938,-6.320523262023926,-9.602638244628906,-3.2013230323791504,2437.3146393299103
D4:22:CD:00:05:5D,163.9031524658203,-65.65632629394531,23.903593063354492,7.33704948425293,4.560604095458984,-9.719890594482422,2437.3751697540283
D4:22:CD:00:05:6B,63.6553955078125,56.552642822265625,-27.29159164428711,4.24674129486084,8.463529586791992,-1.520432472229004,2437.3751697540283
D4:22:CD:00:49:AA,-134.64633178710938,-80.93263244628906,86.1485824584961,4.82657527923584,1.4763953685760498,-9.043075561523438,2437.3751697540283
D4:22:CD:00:05:6E,8.19927978515625,-65.13265228271484,179.82362365722656,1.1313719749450684,-6.2783308029174805,-8.775787353515625,2437.3751697540283
D4:22:CD:00:05:5E,-13.618707656860352,-61.130924224853516,-159.5489959716797,-16.787067413330078,-13.525611877441406,-0.022905349731445312,2437.3751697540283
D4:22:CD:00:05:5D,159.9632110595703,-66.50342559814453,25.305652618408203,9.513940811157227,12.037176132202148,-14.236732482910156,2437.405184030533
D4:22:CD:00:05:6B,50.09953308105469,62.839324951171875,-39.61595153808594,3.3298869132995605,5.9320068359375,-4.163355827331543,2437.405184030533
D4:22:CD:00:49:AA,-127.23323059082031,-82.70338439941406,79.1202392578125,-1.1513361930847168,-0.7033289670944214,-7.484859466552734,2437.405184030533
D4:22:CD:00:05:6E,11.889683723449707,-64.3070297241211,179.61663818359375,1.3592824935913086,-9.489736557006836,-6.66998291015625,2437.405184030533
D4:22:CD:00:05:5E,-18.909624099731445,-55.483463287353516,-164.05331420898438,-20.180217742919922,-16.621631622314453,-9.386863708496094,2437.405184030533
D4:22:CD:00:05:5D,160.1577911376953,-67.80018615722656,23.6007080078125,-18.447059631347656,-3.4761171340942383,6.9189910888671875,2437.434718132019
D4:22:CD:00:05:6B,21.349775314331055,66.47541809082031,-72.40738677978516,-0.33548855781555176,2.6997475624084473,-11.375347137451172,2437.434718132019
D4:22:CD:00:49:AA,-114.84809875488281,-83.28746795654297,67.635009765625,-1.217289924621582,-1.1777572631835938,-9.316795349121094,2437.434718132019
D4:22:CD:00:05:6E,12.6199951171875,-64.08463287353516,178.2897186279297,-0.17364871501922607,-10.742887496948242,-2.6029977798461914,2437.434718132019
D4:22:CD:00:05:5E,-21.601970672607422,-56.257564544677734,-170.27783203125,-23.526016235351562,-0.6065707206726074,-10.54384994506836,2437.434718132019
D4:22:CD:00:05:5D,161.3329620361328,-67.18253326416016,22.37199592590332,1.9053888320922852,-0.6839793920516968,-6.1014251708984375,2437.4647176265717
D4:22:CD:00:05:6B,-7.672909736633301,58.148555755615234,-110.39855194091797,-5.503264427185059,-6.398379325866699,-28.02109146118164,2437.4647176265717
D4:22:CD:00:49:AA,-104.43792724609375,-83.67215728759766,59.000553131103516,-0.17086604237556458,-0.8815412521362305,-2.769155502319336,2437.4647176265717
D4:22:CD:00:05:6E,11.172333717346191,-64.01360321044922,178.03665161132812,1.1045496463775635,-8.888029098510742,1.7474088668823242,2437.4647176265717
D4:22:CD:00:05:5E,-24.161962509155273,-61.74507522583008,-170.80592346191406,-21.45014190673828,6.628499984741211,4.167984962463379,2437.4647176265717
D4:22:CD:00:05:5D,163.42152404785156,-66.78605651855469,24.140056610107422,3.9066882133483887,-0.3308500647544861,3.562589645385742,2437.4949190616608
D4:22:CD:00:05:6B,-20.602134704589844,44.95803451538086,-127.37338256835938,-9.433923721313477,-17.08275604248047,-26.328323364257812,2437.4949190616608
D4:22:CD:00:49:AA,-97.02873229980469,-83.8523178100586,52.25149917602539,-2.9240851402282715,-1.0518391132354736,4.127243995666504,2437.4949190616608
D4:22:CD:00:05:6E,10.085651397705078,-63.6141357421875,179.9803466796875,1.699566125869751,-7.186108589172363,1.226943016052246,2437.4949190616608
D4:22:CD:00:05:5E,-25.58932113647461,-66.84159851074219,-168.10411071777344,7.476614952087402,-6.611971855163574,7.586631774902344,2437.4949190616608
D4:22:CD:00:05:5D,163.83843994140625,-67.25361633300781,27.344953536987305,3.0164265632629395,1.8136401176452637,3.3791275024414062,2437.525463819504
D4:22:CD:00:05:6B,-36.861907958984375,40.6288948059082,-125.0638656616211,-4.634851455688477,5.407561302185059,-3.179349422454834,2437.525463819504
D4:22:CD:00:49:AA,-90.8218765258789,-83.5496826171875,46.2762451171875,-1.9465415477752686,-1.1810541152954102,4.818977355957031,2437.525463819504
D4:22:CD:00:05:6E,12.97883129119873,-64.01348114013672,-178.686279296875,2.29378604888916,-6.655413627624512,0.3094902038574219,2437.525463819504
D4:22:CD:00:05:5E,-33.559993743896484,-70.43219757080078,-164.3078155517578,-7.049131393432617,11.756620407104492,21.502864837646484,2437.525463819504
D4:22:CD:00:05:5D,163.05230712890625,-67.52095794677734,31.101253509521484,3.126361846923828,1.1837658882141113,3.236008644104004,2437.5545485019684
D4:22:CD:00:05:6B,-30.1390438079834,45.67399597167969,-115.23423767089844,-17.83069610595703,-12.40174674987793,-3.2439560890197754,2437.5545485019684
D4:22:CD:00:49:AA,-82.59162139892578,-83.83757781982422,37.69905090332031,-1.4414401054382324,-0.1390317678451538,0.7694673538208008,2437.5545485019684
D4:22:CD:00:05:6E,16.04068946838379,-66.08179473876953,-177.81671142578125,2.413578987121582,-9.09432601928711,1.6352262496948242,2437.5545485019684
D4:22:CD:00:05:5E,-40.123268127441406,-73.4407730102539,-159.943603515625,-4.51458740234375,5.844154357910156,-2.3669490814208984,2437.5545485019684
D4:22:CD:00:05:5D,158.95779418945312,-67.26268768310547,35.64329528808594,3.5699563026428223,-0.4973570704460144,2.7322025299072266,2437.584549665451
D4:22:CD:00:05:6B,-7.896332263946533,51.32316970825195,-96.60926055908203,-1.6628904342651367,-15.535247802734375,-19.726215362548828,2437.584549665451
D4:22:CD:00:49:AA,-89.18728637695312,-84.84611511230469,44.254451751708984,-2.156442642211914,-0.7544008493423462,5.450082778930664,2437.584549665451
D4:22:CD:00:05:6E,14.439933776855469,-69.38079833984375,-178.192138671875,2.752290725708008,-9.290128707885742,3.815622329711914,2437.584549665451
D4:22:CD:00:05:5E,-33.036075592041016,-75.28868103027344,-165.39688110351562,-6.481705665588379,-1.363793134689331,-0.6306171417236328,2437.584549665451
D4:22:CD:00:05:5D,153.43502807617188,-66.37764739990234,40.824981689453125,1.1456260681152344,1.4001727104187012,1.8387374877929688,2437.6146590709686
D4:22:CD:00:05:6B,7.403832912445068,50.4905891418457,-71.62759399414062,-4.4741363525390625,-6.978518486022949,-5.8169755935668945,2437.6146590709686
D4:22:CD:00:49:AA,-102.54031372070312,-85.52928161621094,56.1345100402832,2.2940797805786133,0.14763042330741882,1.448420524597168,2437.6146590709686
D4:22:CD:00:05:6E,11.162181854248047,-72.27880859375,179.13211059570312,4.048613548278809,-0.6549147367477417,6.9689788818359375,2437.6146590709686
D4:22:CD:00:05:5E,-25.335275650024414,-76.12715148925781,-172.5644073486328,-6.006163597106934,-3.589179515838623,-1.7587165832519531,2437.6146590709686
D4:22:CD:00:05:5D,147.2806396484375,-65.12332916259766,45.3533935546875,-0.30457526445388794,4.853569030761719,0.49686717987060547,2437.675197839737
D4:22:CD:00:05:6B,21.255064010620117,44.24210739135742,-54.9563102722168,-6.314927101135254,-3.941859722137451,8.834304809570312,2437.675197839737
D4:22:CD:00:49:AA,-119.64525604248047,-85.8125,69.9100570678711,3.9889631271362305,-0.617372989654541,0.2213573455810547,2437.675197839737
D4:22:CD:00:05:6E,7.004696846008301,-73.5457992553711,-178.997314453125,2.67195987701416,1.564734935760498,4.425468444824219,2437.675197839737
D4:22:CD:00:05:5E,-20.883432388305664,-76.4622802734375,-178.77700805664062,-4.2456817626953125,-0.9903926849365234,-0.6884908676147461,2437.675197839737
D4:22:CD:00:05:5D,141.34341430664062,-63.814876556396484,48.07941818237305,0.5940104722976685,2.4188365936279297,0.4285421371459961,2437.705211877823
D4:22:CD:00:05:6B,29.17088508605957,35.97357940673828,-42.11936950683594,-3.4801149368286133,2.665306568145752,13.485149383544922,2437.705211877823
D4:22:CD:00:49:AA,-131.85377502441406,-85.50199127197266,79.32510375976562,4.057416915893555,-2.2184786796569824,2.0333776473999023,2437.705211877823
D4:22:CD:00:05:6E,2.733339548110962,-73.57958221435547,-173.73858642578125,-1.5650548934936523,-2.644667148590088,-0.28133392333984375,2437.705211877823
D4:22:CD:00:05:5E,-14.443785667419434,-76.4213638305664,174.49505615234375,-3.32281494140625,-0.06706343591213226,-0.1508502960205078,2437.705211877823
D4:22:CD:00:05:5D,133.54409790039062,-62.563331604003906,51.009395599365234,2.6777095794677734,5.306736946105957,1.278895378112793,2437.7347202301025
D4:22:CD:00:05:6B,30.45836067199707,25.76963996887207,-29.466651916503906,1.0030746459960938,10.617635726928711,8.783681869506836,2437.7347202301025
D4:22:CD:00:49:AA,-144.23495483398438,-84.96802520751953,88.2928695678711,4.163984298706055,1.6165287494659424,-0.3470640182495117,2437.7347202301025
D4:22:CD:00:05:6E,-2.3608458042144775,-72.96015167236328,-171.0227813720703,-4.561551094055176,-3.851876735687256,-3.7686715126037598,2437.7347202301025
D4:22:CD:00:05:5E,-8.553531646728516,-76.47677612304688,169.22789001464844,-3.5066609382629395,-2.3296780586242676,-1.3353347778320312,2437.7347202301025
D4:22:CD:00:05:5D,126.28292846679688,-60.63954162597656,49.749881744384766,-1.135972261428833,11.221477508544922,3.3945798873901367,2437.764719724655
D4:22:CD:00:05:6B,19.617212295532227,13.75046443939209,-16.20636749267578,6.612203598022461,24.287151336669922,2.629227638244629,2437.764719724655
D4:22:CD:00:49:AA,-155.07225036621094,-83.1161880493164,93.75019836425781,6.7664384841918945,0.6880073547363281,-3.2198376655578613,2437.764719724655
D4:22:CD:00:05:6E,-7.465633392333984,-71.95482635498047,-172.0108642578125,-9.50538444519043,3.879093647003174,-2.2775912284851074,2437.764719724655
D4:22:CD:00:05:5E,-6.2451887130737305,-77.4236068725586,167.38880920410156,-2.1114025115966797,-4.52125358581543,-1.9784879684448242,2437.764719724655
D4:22:CD:00:05:5D,125.48997497558594,-56.853515625,40.55414581298828,-14.253023147583008,10.933279037475586,9.704147338867188,2437.7947223186493
D4:22:CD:00:05:6B,-9.75027084350586,2.8650217056274414,-6.882845401763916,-3.1052064895629883,23.480701446533203,-23.003047943115234,2437.7947223186493
D4:22:CD:00:49:AA,-158.6129608154297,-80.4892349243164,91.7043228149414,4.4385175704956055,0.17542800307273865,-2.148055076599121,2437.7947223186493
D4:22:CD:00:05:6E,-8.721417427062988,-70.97481536865234,-173.01611328125,-9.339454650878906,4.142569541931152,-4.524715423583984,2437.7947223186493
D4:22:CD:00:05:5E,-6.532130241394043,-79.17213439941406,168.27081298828125,-3.3797173500061035,-2.0943665504455566,-1.0952215194702148,2437.7947223186493
D4:22:CD:00:05:5D,130.3246612548828,-51.00356674194336,28.346315383911133,-11.828163146972656,9.576436996459961,4.26632022857666,2437.8252699375153
D4:22:CD:00:05:6B,-32.99182891845703,-7.074617862701416,-3.192568778991699,3.239905834197998,-20.45721435546875,-5.09947395324707,2437.8252699375153
D4:22:CD:00:49:AA,-163.40074157714844,-78.21516418457031,92.540771484375,1.0025081634521484,-0.2555052638053894,2.6909093856811523,2437.8252699375153
D4:22:CD:00:05:6E,-6.641848087310791,-71.10956573486328,-173.66958618164062,-8.144353866577148,1.5858585834503174,-5.265802383422852,2437.8252699375153
D4:22:CD:00:05:5E,-12.430837631225586,-81.71392822265625,175.56362915039062,-2.3010730743408203,-2.0883750915527344,-1.5753412246704102,2437.8252699375153
D4:22:CD:00:05:5D,136.1522674560547,-44.03759002685547,15.397860527038574,-5.802626609802246,6.347630500793457,-1.7488737106323242,2437.8552706241608
D4:22:CD:00:05:6B,-33.62437057495117,-15.386065483093262,-2.070275068283081,-1.7478742599487305,-2.704261302947998,-1.7995777130126953,2437.8552706241608
D4:22:CD:00:49:AA,-166.67507934570312,-77.08674621582031,93.67777252197266,-1.1883325576782227,-0.14644277095794678,1.1270151138305664,2437.8552706241608
D4:22:CD:00:05:6E,-1.8813079595565796,-72.66815185546875,-175.50897216796875,-7.427520751953125,-1.1330227851867676,-5.663629531860352,2437.8552706241608
D4:22:CD:00:05:5E,-36.214569091796875,-84.74003601074219,-160.29124450683594,-3.270242691040039,-2.2751917839050293,-0.1580495834350586,2437.8552706241608
D4:22:CD:00:05:5D,141.95626831054688,-36.24399185180664,3.9260222911834717,-0.7524275779724121,-0.45111143589019775,-7.406416893005371,2437.8852701187134
D4:22:CD:00:05:6B,-33.58888626098633,-22.452686309814453,-1.6939918994903564,-0.9250974655151367,4.143669128417969,-9.974662780761719,2437.8852701187134
D4:22:CD:00:49:AA,-167.2760772705078,-76.88336181640625,92.80197143554688,-0.601356029510498,1.9727025032043457,-0.8990745544433594,2437.8852701187134
D4:22:CD:00:05:6E,3.593646764755249,-75.18509674072266,-178.92835998535156,-5.264578819274902,-2.891718864440918,-4.681998252868652,2437.8852701187134
D4:22:CD:00:05:5E,-91.26061248779297,-84.9205551147461,-104.42700958251953,-2.4562177658081055,-0.730263352394104,-1.0013093948364258,2437.8852701187134
D4:22:CD:00:05:5D,148.25953674316406,-28.59088134765625,-4.822763442993164,-0.2754339575767517,-4.091358184814453,-12.864967346191406,2437.915284872055
D4:22:CD:00:05:6B,-38.50908660888672,-29.65874481201172,-1.1982519626617432,-1.743488073348999,1.5223557949066162,-6.493765830993652,2437.915284872055
D4:22:CD:00:49:AA,-168.0780029296875,-77.37300872802734,92.20280456542969,1.5014393329620361,1.9393632411956787,-2.916290283203125,2437.915284872055
D4:22:CD:00:05:6E,10.031556129455566,-77.95050811767578,174.91368103027344,-2.437401294708252,-3.753624439239502,-3.473567008972168,2437.915284872055
D4:22:CD:00:05:5E,-125.4063491821289,-80.67384338378906,-71.51668548583984,-5.365050315856934,-0.3103327751159668,-3.8119029998779297,2437.915284872055
D4:22:CD:00:05:5D,155.84576416015625,-22.4893741607666,-11.631353378295898,2.333672523498535,-4.514667510986328,-11.517162322998047,2437.9748141765594
D4:22:CD:00:05:6B,-43.50879669189453,-38.13367462158203,-2.376054286956787,0.3369961977005005,1.045597791671753,-6.004085540771484,2437.9748141765594
D4:22:CD:00:49:AA,-168.8570556640625,-78.05460357666016,91.92854309082031,2.0570859909057617,1.4057652950286865,-3.72819185256958,2437.9748141765594
D4:22:CD:00:05:6E,18.01877784729004,-80.55592346191406,166.1640625,-0.5420083999633789,-3.6258625984191895,-2.8578782081604004,2437.9748141765594
D4:22:CD:00:05:5E,-136.0612335205078,-75.95333862304688,-62.56081771850586,-6.39832878112793,-3.0475893020629883,-3.917232036590576,2437.9748141765594
D4:22:CD:00:05:5D,161.1587677001953,-20.35370445251465,-17.028064727783203,3.650130271911621,-6.009683609008789,-9.829051971435547,2438.004814147949
D4:22:CD:00:05:6B,-47.59337615966797,-50.75770950317383,-7.117176532745361,5.892368316650391,-4.045947074890137,1.3219871520996094,2438.004814147949
D4:22:CD:00:49:AA,-170.7932586669922,-79.33831024169922,92.52131652832031,2.9679746627807617,0.7551333904266357,-2.9874558448791504,2438.004814147949
D4:22:CD:00:05:6E,28.999317169189453,-82.75151062011719,154.2723388671875,1.643225908279419,-6.501152038574219,-0.12817668914794922,2438.004814147949
D4:22:CD:00:05:5E,-140.10348510742188,-72.76697540283203,-59.13559341430664,-5.449987411499023,-3.765923500061035,-0.6798582077026367,2438.004814147949
D4:22:CD:00:05:5D,162.48704528808594,-22.5065975189209,-21.305967330932617,5.9763336181640625,-5.739410400390625,-14.158226013183594,2438.0351502895355
D4:22:CD:00:05:6B,-35.113990783691406,-68.99637603759766,-24.44993782043457,9.915641784667969,-5.885660171508789,44.071250915527344,2438.0351502895355
D4:22:CD:00:49:AA,-171.13534545898438,-81.21834564208984,91.0677261352539,2.2640905380249023,-1.2053310871124268,-1.6661081314086914,2438.0351502895355
D4:22:CD:00:05:6E,48.39496612548828,-83.00978088378906,134.25392150878906,4.34299373626709,-7.762153625488281,3.8076066970825195,2438.0351502895355
D4:22:CD:00:05:5E,-142.28761291503906,-71.02750396728516,-58.07247543334961,-4.903419494628906,1.484159231185913,2.2201623916625977,2438.0351502895355
D4:22:CD:00:05:5D,162.10882568359375,-26.628032684326172,-25.12663459777832,-2.6006059646606445,1.3265931606292725,28.756023406982422,2438.065150976181
D4:22:CD:00:05:6B,10.930309295654297,-74.40969848632812,-63.225772857666016,-17.73452377319336,-16.793323516845703,26.321849822998047,2438.065150976181
D4:22:CD:00:49:AA,-168.70155334472656,-84.09893798828125,86.28456115722656,2.360800266265869,-0.04267621785402298,-1.3966598510742188,2438.065150976181
D4:22:CD:00:05:6E,63.51271438598633,-78.46696472167969,119.6768798828125,9.336845397949219,-12.864250183105469,8.889236450195312,2438.065150976181
D4:22:CD:00:05:5E,-144.73619079589844,-70.83317565917969,-56.59062957763672,-4.722556114196777,1.197523832321167,2.1360721588134766,2438.065150976181
D4:22:CD:00:05:5D,160.0772247314453,-25.275463104248047,-26.812515258789062,19.096797943115234,-17.37566375732422,5.315799713134766,2438.095151424408
D4:22:CD:00:05:6B,-17.54112434387207,-70.46835327148438,-28.474424362182617,19.97769546508789,8.314010620117188,3.742687225341797,2438.095151424408
D4:22:CD:00:49:AA,-164.50164794921875,-86.07723999023438,79.49944305419922,-0.2936289310455322,-0.6633509397506714,-2.1762986183166504,2438.095151424408
D4:22:CD:00:05:6E,70.08458709716797,-70.2240219116211,107.81210327148438,-1.546799659729004,-12.194740295410156,19.159584045410156,2438.095151424408
D4:22:CD:00:05:5E,-146.10379028320312,-72.28472900390625,-56.35261154174805,-7.1836652755737305,-1.994544506072998,-0.33674144744873047,2438.095151424408
D4:22:CD:00:05:5D,155.92263793945312,-21.61107635498047,-25.780513763427734,16.291236877441406,-9.975545883178711,13.689889907836914,2438.1248540878296
D4:22:CD:00:05:6B,-51.91218948364258,-52.85879898071289,-5.803164958953857,14.51936149597168,-2.8844656944274902,35.838340759277344,2438.1248540878296
D4:22:CD:00:49:AA,-165.5677947998047,-85.99845886230469,79.178466796875,-0.9604552984237671,-1.480175256729126,6.090545654296875,2438.1248540878296
D4:22:CD:00:05:6E,73.20545959472656,-58.894004821777344,98.21993255615234,7.144832611083984,-17.92230224609375,25.020599365234375,2438.1248540878296
D4:22:CD:00:05:5E,-143.2399444580078,-75.05525207519531,-62.17182540893555,-8.026342391967773,-1.7821907997131348,0.9474544525146484,2438.1248540878296
D4:22:CD:00:05:5D,157.39891052246094,-14.861119270324707,-24.934322357177734,17.706867218017578,-7.832040786743164,11.424108505249023,2438.154853820801
D4:22:CD:00:05:6B,-46.886138916015625,-37.270103454589844,-6.136163711547852,16.82693862915039,-2.263354778289795,5.938494682312012,2438.154853820801
D4:22:CD:00:49:AA,-170.36097717285156,-84.8436050415039,82.88430786132812,1.9363012313842773,-0.6641061305999756,9.184831619262695,2438.154853820801
D4:22:CD:00:05:6E,79.45913696289062,-44.90338897705078,89.22252655029297,8.333974838256836,-16.548274993896484,15.187126159667969,2438.154853820801
D4:22:CD:00:05:5E,-129.93960571289062,-78.72061157226562,-80.34432220458984,-6.968077659606934,0.41040176153182983,4.244667053222656,2438.154853820801
D4:22:CD:00:05:5D,156.815185546875,-7.7140398025512695,-25.973129272460938,9.814279556274414,-9.904354095458984,8.828861236572266,2438.1848542690277
D4:22:CD:00:05:6B,-47.2095947265625,-26.949323654174805,-8.413050651550293,11.317262649536133,0.41336536407470703,-8.939659118652344,2438.1848542690277
D4:22:CD:00:49:AA,-173.11158752441406,-84.56661224365234,84.70133209228516,3.801027297973633,1.7049829959869385,8.265670776367188,2438.1848542690277
D4:22:CD:00:05:6E,85.29639434814453,-31.868587493896484,80.02021789550781,-2.0787181854248047,-10.315149307250977,21.95323944091797,2438.1848542690277
D4:22:CD:00:05:5E,-90.6204833984375,-80.3748779296875,-126.10951232910156,-0.5185377597808838,-15.320310592651367,14.355915069580078,2438.1848542690277
D4:22:CD:00:05:5D,154.54798889160156,-2.825075149536133,-27.909332275390625,2.1359033584594727,-9.317451477050781,1.1241559982299805,2438.2148690223694
D4:22:CD:00:05:6B,-56.938514709472656,-22.837692260742188,-11.269338607788086,-1.4305548667907715,-0.10517227649688721,-5.621982574462891,2438.2148690223694
D4:22:CD:00:49:AA,177.1782989501953,-84.30460357666016,93.40380096435547,2.9912772178649902,2.245205879211426,12.188547134399414,2438.2148690223694
D4:22:CD:00:05:6E,83.27136993408203,-23.434917449951172,73.734130859375,-3.2852983474731445,2.102902889251709,7.284738540649414,2438.2148690223694
D4:22:CD:00:05:5E,-57.97190856933594,-79.47181701660156,-155.58506774902344,-7.441877365112305,-0.7223912477493286,-10.198808670043945,2438.2148690223694
D4:22:CD:00:05:5D,153.7611083984375,-1.3231219053268433,-29.362764358520508,-1.8051819801330566,-5.563297271728516,-6.543648719787598,2438.275409221649
D4:22:CD:00:05:6B,-60.89556121826172,-26.164260864257812,-15.633990287780762,-4.316354751586914,3.74880313873291,-4.266719818115234,2438.275409221649
D4:22:CD:00:49:AA,167.75982666015625,-84.19147491455078,102.20681762695312,0.5428338050842285,1.6474933624267578,6.200433731079102,2438.275409221649
D4:22:CD:00:05:6E,80.6634521484375,-19.603479385375977,71.45536041259766,-4.32003116607666,2.6286568641662598,-0.3863048553466797,2438.275409221649
D4:22:CD:00:05:5E,-63.60464096069336,-81.8358383178711,-150.34759521484375,-15.727291107177734,-5.766417503356934,-11.968578338623047,2438.275409221649
D4:22:CD:00:05:5D,154.59243774414062,-3.809056520462036,-28.955562591552734,-3.409818172454834,-7.110252380371094,-12.61583137512207,2438.304407596588
D4:22:CD:00:05:6B,-61.935760498046875,-33.43217086791992,-19.708452224731445,-0.22907304763793945,2.4375181198120117,-10.402206420898438,2438.304407596588
D4:22:CD:00:49:AA,156.51351928710938,-82.76720428466797,113.58885955810547,1.8919880390167236,1.2556242942810059,0.9524192810058594,2438.304407596588
D4:22:CD:00:05:6E,75.14842987060547,-17.285907745361328,72.49032592773438,-8.279136657714844,0.7044543027877808,0.9185361862182617,2438.304407596588
D4:22:CD:00:05:5E,-68.72343444824219,-84.14161682128906,-146.7462615966797,2.5854716300964355,-5.493636131286621,-14.069786071777344,2438.304407596588
D4:22:CD:00:05:5D,155.4072723388672,-9.546430587768555,-26.326921463012695,0.16319918632507324,-3.722175121307373,-18.830093383789062,2438.3350365161896
D4:22:CD:00:05:6B,-64.90252685546875,-42.42988967895508,-23.52268409729004,1.0396912097930908,-0.7900866270065308,-9.799676895141602,2438.3350365161896
D4:22:CD:00:49:AA,151.2292938232422,-79.72760009765625,118.08697509765625,2.4823250770568848,0.22833281755447388,-6.18361759185791,2438.3350365161896
D4:22:CD:00:05:6E,63.03382110595703,-13.52859878540039,76.7616958618164,-8.755952835083008,4.421424865722656,-4.228106498718262,2438.3350365161896
D4:22:CD:00:05:5E,-47.826080322265625,-86.87012481689453,-169.97119140625,-5.544706344604492,7.523592948913574,-6.730955123901367,2438.3350365161896
D4:22:CD:00:05:5D,156.71902465820312,-17.89348793029785,-22.25227165222168,2.2111425399780273,-2.79426908493042,-16.539154052734375,2438.3650345802307
D4:22:CD:00:05:6B,-65.41940307617188,-51.692142486572266,-28.891000747680664,-2.4004387855529785,1.1317715644836426,-4.709924697875977,2438.3650345802307
D4:22:CD:00:49:AA,155.03439331054688,-76.00834655761719,113.71990966796875,-1.850304126739502,-1.3527135848999023,-8.780263900756836,2438.3650345802307
D4:22:CD:00:05:6E,49.280521392822266,-6.811534404754639,83.23402404785156,-6.173526763916016,9.148174285888672,-10.385726928710938,2438.3650345802307
D4:22:CD:00:05:5E,-22.743087768554688,-86.27937316894531,169.65567016601562,2.682678699493408,5.6548919677734375,0.9305009841918945,2438.3650345802307
D4:22:CD:00:05:5D,155.49649047851562,-28.35344123840332,-17.60164451599121,2.4699959754943848,-2.4002957344055176,-11.560766220092773,2438.395034313202
D4:22:CD:00:05:6B,-61.8922233581543,-59.11734390258789,-35.7065315246582,-1.7645933628082275,2.939962863922119,-4.819877624511719,2438.395034313202
D4:22:CD:00:49:AA,161.94020080566406,-73.60660552978516,108.3778305053711,-3.5503463745117188,0.30496764183044434,-6.308152198791504,2438.395034313202
D4:22:CD:00:05:6E,39.027530670166016,2.6937859058380127,90.42276763916016,-4.822538375854492,9.370254516601562,-14.363492965698242,2438.395034313202
D4:22:CD:00:05:5E,-61.68235397338867,-87.5293960571289,-154.4084930419922,1.5957794189453125,-2.2725863456726074,3.9769725799560547,2438.395034313202
D4:22:CD:00:05:5D,150.6284942626953,-40.86707305908203,-11.785378456115723,2.415780544281006,-0.0978497713804245,-7.493002891540527,2438.4245517253876
D4:22:CD:00:05:6B,-59.5561637878418,-63.60847473144531,-41.98184585571289,-1.9141089916229248,1.2385213375091553,-3.8920140266418457,2438.4245517253876
D4:22:CD:00:49:AA,165.2440948486328,-74.32254028320312,106.36022186279297,1.8090341091156006,1.4681673049926758,-6.575054168701172,2438.4245517253876
D4:22:CD:00:05:6E,31.722427368164062,13.925893783569336,98.08485412597656,-4.1164960861206055,7.473902702331543,-15.497871398925781,2438.4245517253876
D4:22:CD:00:05:5E,-125.24726867675781,-85.71084594726562,-96.70491027832031,-7.596230506896973,-6.164830207824707,0.2560882568359375,2438.4245517253876
D4:22:CD:00:05:5D,141.1253204345703,-54.46232223510742,-3.0150880813598633,2.5517373085021973,1.4371206760406494,-2.713559627532959,2438.454738140106
D4:22:CD:00:05:6B,-56.63397979736328,-65.6780776977539,-47.850563049316406,-4.368197441101074,3.4351396560668945,-3.174407958984375,2438.454738140106
D4:22:CD:00:49:AA,161.27401733398438,-76.96605682373047,109.09880065917969,3.5879268646240234,2.2586159706115723,-11.575494766235352,2438.454738140106
D4:22:CD:00:05:6E,27.704275131225586,26.83791160583496,106.78748321533203,-5.814891815185547,4.73342227935791,-19.316333770751953,2438.454738140106
D4:22:CD:00:05:5E,-127.36576080322266,-84.92263793945312,-94.97374725341797,-5.327753067016602,-2.159748077392578,-0.5090427398681641,2438.454738140106
D4:22:CD:00:05:5D,122.16372680664062,-68.20320892333984,15.504305839538574,5.223319053649902,3.8856911659240723,4.351283073425293,2438.484896183014
D4:22:CD:00:05:6B,-51.367984771728516,-66.93524932861328,-53.89786911010742,-3.345369815826416,3.851928234100342,-2.904750347137451,2438.484896183014
D4:22:CD:00:49:AA,155.63990783691406,-76.7645492553711,112.307373046875,1.4958465099334717,0.4471561908721924,-7.609633445739746,2438.484896183014
D4:22:CD:00:05:6E,29.469951629638672,38.813621520996094,117.7286376953125,0.26655369997024536,5.1112871170043945,-23.374622344970703,2438.484896183014
D4:22:CD:00:05:5E,-119.02864074707031,-84.20728302001953,-104.38792419433594,-4.464441299438477,-3.185469627380371,3.926449775695801,2438.484896183014
D4:22:CD:00:05:5D,71.35479736328125,-76.74279022216797,68.90235900878906,-4.379220962524414,16.18212127685547,22.274444580078125,2438.5149109363556
D4:22:CD:00:05:6B,-46.923954010009766,-68.8667984008789,-59.94099044799805,-3.8623390197753906,2.9405293464660645,-1.6071109771728516,2438.5149109363556
D4:22:CD:00:49:AA,156.08993530273438,-74.91468048095703,110.14634704589844,-3.217832565307617,-3.583310604095459,1.8235044479370117,2438.5149109363556
D4:22:CD:00:05:6E,50.656612396240234,45.20418167114258,125.49885559082031,11.750932693481445,-14.017086029052734,-9.34254264831543,2438.5149109363556
D4:22:CD:00:05:5E,-103.78785705566406,-83.47244262695312,-119.40321350097656,-2.1804871559143066,-1.9379336833953857,5.306670188903809,2438.5149109363556
D4:22:CD:00:05:5D,35.024200439453125,-73.46687316894531,111.02044677734375,-14.49056625366211,16.12282943725586,-2.5463128089904785,2438.574527025223
D4:22:CD:00:05:6B,-45.28296661376953,-72.43342590332031,-64.83612823486328,-5.203031539916992,3.733275890350342,1.5865411758422852,2438.574527025223
D4:22:CD:00:49:AA,164.32508850097656,-75.0768814086914,104.93598175048828,-0.6904661655426025,-1.0621311664581299,4.768074989318848,2438.574527025223
D4:22:CD:00:05:6E,74.57611083984375,48.93673324584961,126.15780639648438,-10.81124496459961,0.31350570917129517,6.279874801635742,2438.574527025223
D4:22:CD:00:05:5E,-82.5730209350586,-82.38611602783203,-137.1497039794922,-2.602914810180664,-3.242633819580078,0.9689235687255859,2438.574527025223
D4:22:CD:00:05:5D,30.091676712036133,-72.80878448486328,116.09518432617188,-19.489761352539062,11.341533660888672,-12.202096939086914,2438.6048259735107
D4:22:CD:00:05:6B,-49.19762420654297,-76.98211669921875,-64.14321899414062,-3.1720499992370605,4.191957473754883,2.6066102981567383,2438.6048259735107
D4:22:CD:00:49:AA,177.97813415527344,-75.46595764160156,96.92341613769531,7.391810417175293,-0.9252688884735107,4.041634559631348,2438.6048259735107
D4:22:CD:00:05:6E,82.11613464355469,48.930091857910156,124.9136962890625,3.1797871589660645,-7.200229644775391,-2.9044761657714844,2438.6048259735107
D4:22:CD:00:05:5E,-78.2169418334961,-80.07843780517578,-136.91432189941406,-1.4486613273620605,-6.018163681030273,3.2111711502075195,2438.6048259735107
D4:22:CD:00:05:5D,46.67249298095703,-77.56230163574219,97.21736907958984,-13.844036102294922,14.108978271484375,-3.2470054626464844,2438.6343784332275
D4:22:CD:00:05:6B,-69.1676254272461,-81.73499298095703,-45.925865173339844,-4.313624382019043,5.634688377380371,5.367321968078613,2438.6343784332275
D4:22:CD:00:49:AA,-175.0586700439453,-74.09793853759766,90.97632598876953,10.486137390136719,0.9962354898452759,4.5717058181762695,2438.6343784332275
D4:22:CD:00:05:6E,83.32391357421875,50.11293411254883,113.68218994140625,-20.640594482421875,-5.366446495056152,0.11953353881835938,2438.6343784332275
D4:22:CD:00:05:5E,-78.53517150878906,-77.63935089111328,-129.76060485839844,-1.2903871536254883,-7.321253776550293,3.754176139831543,2438.6343784332275
D4:22:CD:00:05:5D,95.62968444824219,-80.38732147216797,50.05373001098633,7.322883605957031,-0.8853456974029541,11.203914642333984,2438.66548204422
D4:22:CD:00:05:6B,-112.66761779785156,-83.84693145751953,3.32834529876709,-2.8637452125549316,4.88188362121582,8.991952896118164,2438.66548204422
D4:22:CD:00:49:AA,-175.43521118164062,-73.0211181640625,88.09825897216797,1.7669720649719238,-2.543447494506836,3.8414506912231445,2438.66548204422
D4:22:CD:00:05:6E,70.36568450927734,50.17766571044922,90.58406829833984,-9.234325408935547,12.316841125488281,-12.610321044921875,2438.66548204422
D4:22:CD:00:05:5E,-89.19987487792969,-74.71607971191406,-113.06941986083984,-23.90882110595703,2.789905071258545,-0.1604928970336914,2438.66548204422
D4:22:CD:00:05:5D,124.70304107666016,-79.05582427978516,21.31512451171875,26.462890625,-2.8637795448303223,1.9867744445800781,2438.695480108261
D4:22:CD:00:05:6B,-126.9764175415039,-82.4356918334961,25.538402557373047,3.3589558601379395,5.784427642822266,7.9991455078125,2438.695480108261
D4:22:CD:00:49:AA,-172.58868408203125,-71.51375579833984,85.61128234863281,-5.118285179138184,-2.599167823791504,1.5900144577026367,2438.695480108261
D4:22:CD:00:05:6E,60.84514236450195,44.78608703613281,68.14838409423828,-12.339147567749023,4.287104606628418,-8.688169479370117,2438.695480108261
D4:22:CD:00:05:5E,-109.26957702636719,-70.84249877929688,-88.11644744873047,-21.78704833984375,-1.9534680843353271,-0.022268295288085938,2438.695480108261
D4:22:CD:00:05:5D,141.8887481689453,-79.1941146850586,8.606786727905273,-9.782073974609375,-8.006612777709961,3.5910720825195312,2438.725021123886
D4:22:CD:00:05:6B,-113.66924285888672,-80.35015869140625,20.885164260864258,9.60574722290039,-3.2688302993774414,-1.9645094871520996,2438.725021123886
D4:22:CD:00:49:AA,-167.7132568359375,-69.90790557861328,85.43742370605469,-3.497575283050537,0.5665215253829956,-3.1073923110961914,2438.725021123886
D4:22:CD:00:05:6E,53.67321014404297,35.1803092956543,50.19837188720703,2.0871548652648926,0.29238569736480713,-6.271529197692871,2438.725021123886
D4:22:CD:00:05:5E,-123.70714569091797,-64.55217742919922,-69.0069351196289,-13.402774810791016,-5.340034484863281,-8.898775100708008,2438.725021123886
D4:22:CD:00:05:5D,155.602294921875,-77.64541625976562,-2.128674268722534,1.3468286991119385,-6.604552268981934,0.16605281829833984,2438.755021095276
D4:22:CD:00:05:6B,-106.29808807373047,-74.89776611328125,11.410017967224121,-2.455810070037842,-3.088785171508789,-0.3093242645263672,2438.755021095276
D4:22:CD:00:49:AA,-167.36074829101562,-67.69198608398438,87.52050018310547,0.7966345548629761,1.501711368560791,-6.627298355102539,2438.755021095276
D4:22:CD:00:05:6E,53.04133605957031,24.73105239868164,35.330074310302734,4.244898796081543,-5.100975036621094,-5.486458778381348,2438.755021095276
D4:22:CD:00:05:5E,-134.7659149169922,-57.84465408325195,-55.52985382080078,-8.571813583374023,-2.606224536895752,-14.685245513916016,2438.755021095276
D4:22:CD:00:05:5D,169.46841430664062,-75.3419189453125,-12.416647911071777,-0.7086220979690552,-1.0212178230285645,0.6096305847167969,2438.7850213050842
D4:22:CD:00:05:6B,-97.30302429199219,-71.54655456542969,4.583465576171875,-1.445633888244629,-4.072162628173828,-1.0021133422851562,2438.7850213050842
D4:22:CD:00:49:AA,-170.14816284179688,-65.08189392089844,91.46641540527344,3.1384425163269043,0.546043872833252,-3.4463987350463867,2438.7850213050842
D4:22:CD:00:05:6E,57.38701629638672,14.20718765258789,22.056232452392578,5.114799499511719,-7.587930679321289,-5.09254264831543,2438.7850213050842
D4:22:CD:00:05:5E,-143.5868682861328,-52.40959167480469,-44.69289779663086,-5.693595886230469,-1.4778554439544678,-16.55970001220703,2438.7850213050842
D4:22:CD:00:05:5D,177.4308624267578,-72.84886169433594,-20.498811721801758,1.1467692852020264,1.3136303424835205,0.21821022033691406,2438.8150362968445
D4:22:CD:00:05:6B,-92.76559448242188,-70.98365020751953,-0.7637271881103516,1.6467103958129883,-4.595672607421875,-2.5245652198791504,2438.8150362968445
D4:22:CD:00:49:AA,-177.3026885986328,-63.77920150756836,97.0943603515625,0.22241148352622986,3.9199414253234863,2.9807090759277344,2438.8150362968445
D4:22:CD:00:05:6E,56.89350128173828,6.112689018249512,10.209123611450195,12.46040153503418,-13.23206901550293,6.575920104980469,2438.8150362968445
D4:22:CD:00:05:5E,-151.88629150390625,-49.02428436279297,-35.184913635253906,-2.579969882965088,-1.0533461570739746,-14.726015090942383,2438.8150362968445
D4:22:CD:00:05:5D,-179.4484100341797,-70.3867416381836,-24.311378479003906,1.3417260646820068,4.745820999145508,0.3790473937988281,2438.874667406082
D4:22:CD:00:05:6B,-94.31773376464844,-72.0782699584961,-3.5959341526031494,-3.4199600219726562,-2.1010050773620605,0.41774749755859375,2438.874667406082
D4:22:CD:00:49:AA,178.02976989746094,-62.64887237548828,99.9037857055664,-7.43919563293457,0.19057920575141907,4.6437177658081055,2438.874667406082
D4:22:CD:00:05:6E,55.07240676879883,2.8797857761383057,5.677050590515137,5.871251106262207,-38.28691101074219,-18.448749542236328,2438.874667406082
D4:22:CD:00:05:5E,-159.73020935058594,-48.158302307128906,-26.805774688720703,-0.2971981167793274,-0.7756911516189575,-11.130693435668945,2438.874667406082
D4:22:CD:00:05:5D,-178.4331817626953,-68.60731506347656,-24.315067291259766,-0.5495918989181519,1.8586411476135254,1.0198850631713867,2438.904667854309
D4:22:CD:00:05:6B,-94.02902221679688,-73.44371795654297,-5.097439765930176,-4.127779006958008,0.8268647193908691,2.434403419494629,2438.904667854309
D4:22:CD:00:49:AA,178.75726318359375,-62.52324676513672,99.87957000732422,-5.76365852355957,1.6398301124572754,3.569164276123047,2438.904667854309
D4:22:CD:00:05:6E,65.16779327392578,0.1602799892425537,9.114890098571777,-5.849103927612305,7.058820724487305,0.5563869476318359,2438.904667854309
D4:22:CD:00:05:5E,-167.2749481201172,-50.18418884277344,-19.13157844543457,1.3880155086517334,-1.8421711921691895,-5.57952880859375,2438.904667854309
D4:22:CD:00:05:5D,-178.6173095703125,-67.69235229492188,-23.010263442993164,-0.23038271069526672,-0.46297723054885864,0.7602434158325195,2438.9652128219604
D4:22:CD:00:05:6B,-90.7626953125,-73.77580261230469,-8.204724311828613,-1.106029748916626,-0.45665085315704346,1.8616342544555664,2438.9652128219604
D4:22:CD:00:49:AA,-179.86712646484375,-63.47102355957031,100.2603759765625,-1.2247633934020996,2.1163668632507324,2.6268310546875,2438.9652128219604
D4:22:CD:00:05:6E,62.486900329589844,-2.1732242107391357,12.917021751403809,-8.365083694458008,5.278371810913086,3.67136287689209,2438.9652128219604
D4:22:CD:00:05:5E,-174.02459716796875,-55.80048751831055,-11.01899242401123,7.806987762451172,-1.2535274028778076,-2.092823028564453,2438.9652128219604
D4:22:CD:00:05:5D,-178.69686889648438,-67.06837463378906,-22.01571273803711,-0.3150860667228699,-1.4479389190673828,0.23098278045654297,2438.9682126045227
D4:22:CD:00:05:6B,-88.33748626708984,-72.1596908569336,-16.692005157470703,-2.1586108207702637,2.737460136413574,1.557053565979004,2438.9682126045227
D4:22:CD:00:49:AA,178.6633758544922,-64.86518859863281,102.36846923828125,-1.3408117294311523,2.8534183502197266,0.7670793533325195,2438.9682126045227
D4:22:CD:00:05:6E,64.13448333740234,-4.75294828414917,14.406487464904785,-8.56306266784668,2.1949028968811035,-8.267616271972656,2438.9682126045227
D4:22:CD:00:05:5E,-179.46400451660156,-63.83163070678711,-1.5926340818405151,-4.478458404541016,6.716529846191406,13.528059005737305,2438.9682126045227
D4:22:CD:00:05:5D,-178.46620178222656,-66.44254302978516,-21.805458068847656,0.28464651107788086,-0.5135306119918823,-0.10588550567626953,2438.9952132701874
D4:22:CD:00:05:6B,-77.50224304199219,-69.73655700683594,-32.52284240722656,-2.5638256072998047,2.7100167274475098,-0.8736276626586914,2438.9952132701874
D4:22:CD:00:49:AA,173.65658569335938,-66.29008483886719,106.17607116699219,-2.5355844497680664,0.7417815923690796,-1.8557734489440918,2438.9952132701874
D4:22:CD:00:05:6E,70.9429702758789,-9.830793380737305,13.42734432220459,-5.800502777099609,2.4675469398498535,-2.6454482078552246,2438.9952132701874
D4:22:CD:00:05:5E,-176.3891143798828,-67.4259262084961,2.9862821102142334,24.10791778564453,-2.6459245681762695,-3.2603211402893066,2438.9952132701874
D4:22:CD:00:05:5D,-178.510009765625,-65.39350128173828,-21.529626846313477,1.9648172855377197,0.6252162456512451,-0.6728487014770508,2439.02538895607
D4:22:CD:00:05:6B,-68.27622985839844,-66.33602142333984,-47.60321044921875,-1.003833532333374,-1.6450777053833008,-5.22125244140625,2439.02538895607
D4:22:CD:00:49:AA,168.4521484375,-67.17735290527344,110.46324157714844,-1.9200737476348877,0.3453238010406494,-3.4898605346679688,2439.02538895607
D4:22:CD:00:05:6E,77.57525634765625,-18.342592239379883,10.638408660888672,0.9882146120071411,-0.7275729179382324,-3.631559371948242,2439.02538895607
D4:22:CD:00:05:5E,-179.99835205078125,-70.00443267822266,5.637650489807129,9.521211624145508,1.1703481674194336,3.638421058654785,2439.02538895607
D4:22:CD:00:05:5D,-178.90884399414062,-63.127681732177734,-20.452415466308594,2.953376293182373,0.3128684163093567,-1.2867937088012695,2439.054388523102
D4:22:CD:00:05:6B,-68.78649139404297,-62.467674255371094,-58.315608978271484,-2.322721481323242,-1.3488490581512451,-6.1695098876953125,2439.054388523102
D4:22:CD:00:49:AA,164.4156494140625,-68.10230255126953,114.43315887451172,-1.1630196571350098,-0.24803757667541504,-4.109013557434082,2439.054388523102
D4:22:CD:00:05:6E,79.87361907958984,-31.66002655029297,8.428237915039062,5.834104537963867,-0.8272244930267334,6.533119201660156,2439.054388523102
D4:22:CD:00:05:5E,176.47508239746094,-71.08944702148438,4.101027011871338,4.664117813110352,4.737504959106445,12.491188049316406,2439.054388523102
D4:22:CD:00:05:5D,-179.6337432861328,-59.913150787353516,-18.399005889892578,0.8755660057067871,-0.9591877460479736,1.2504768371582031,2439.0843880176544
D4:22:CD:00:05:6B,-71.35643005371094,-58.574546813964844,-67.1432113647461,-5.664691925048828,7.031704902648926,1.1270427703857422,2439.0843880176544
D4:22:CD:00:49:AA,159.92901611328125,-69.22948455810547,119.56863403320312,-1.1756415367126465,-0.18960580229759216,-3.594870090484619,2439.0843880176544
D4:22:CD:00:05:6E,72.30413818359375,-50.02867889404297,10.4472017288208,28.75418472290039,-3.455656051635742,29.195560455322266,2439.0843880176544
D4:22:CD:00:05:5E,-179.9770050048828,-68.65655517578125,1.1187151670455933,4.941354751586914,-6.3403215408325195,12.185022354125977,2439.0843880176544
D4:22:CD:00:05:5D,178.77601623535156,-56.09069061279297,-15.354815483093262,1.2274417877197266,-2.64852237701416,2.1214113235473633,2439.115403175354
D4:22:CD:00:05:6B,-68.98107147216797,-53.79287338256836,-74.33959197998047,-1.8357625007629395,13.19534683227539,4.118160247802734,2439.115403175354
D4:22:CD:00:49:AA,153.1769256591797,-70.3172607421875,128.06031799316406,-2.267451286315918,-3.255490303039551,-1.4202489852905273,2439.115403175354
D4:22:CD:00:05:6E,73.3770751953125,-60.226600646972656,15.749105453491211,19.835617065429688,-6.471424102783203,21.74089813232422,2439.115403175354
D4:22:CD:00:05:5E,-172.51002502441406,-64.29824829101562,-1.5053542852401733,7.834202766418457,-9.242244720458984,17.07461166381836,2439.115403175354
