Device,EulerX,EulerY,EulerZ,FreeAccX,FreeAccY,FreeAccZ,Timestamp
D4:22:CD:00:05:5D,177.45521545410156,-54.4129753112793,-108.91626739501953,0.1453075408935547,2.1533026695251465,2.8641357421875,2474.669637441635
D4:22:CD:00:05:6B,-63.14833068847656,-15.515959739685059,-45.76605987548828,-6.095648765563965,6.861393928527832,17.57608413696289,2474.669637441635
D4:22:CD:00:49:AA,141.06912231445312,-70.14137268066406,139.74569702148438,1.798184871673584,2.444565773010254,10.295454025268555,2474.669637441635
D4:22:CD:00:05:6E,93.87451934814453,-30.33308982849121,52.536956787109375,9.495569229125977,21.550281524658203,4.79311466217041,2474.669637441635
D4:22:CD:00:05:5E,-140.91226196289062,-32.72190856933594,-63.46775817871094,5.295905113220215,-6.113589286804199,10.126964569091797,2474.669637441635
D4:22:CD:00:05:5D,179.08297729492188,-56.14421463012695,-109.97579193115234,-3.02718448638916,1.664717197418213,1.7901535034179688,2474.6736528873444
D4:22:CD:00:05:6B,-54.01261520385742,-3.8897416591644287,-36.71096420288086,-9.191104888916016,-0.25724315643310547,8.25607681274414,2474.6736528873444
D4:22:CD:00:49:AA,145.05953979492188,-70.50540924072266,136.30149841308594,-1.6167912483215332,-1.3643066883087158,6.730430603027344,2474.6736528873444
D4:22:CD:00:05:6E,107.32966613769531,-33.9694938659668,54.727210998535156,2.3327040672302246,13.84147834777832,6.09610652923584,2474.6736528873444
D4:22:CD:00:05:5E,-131.9291229248047,-35.7331657409668,-63.039451599121094,2.4986186027526855,-1.5496399402618408,0.4512357711791992,2474.6736528873444
D4:22:CD:00:05:5D,-176.88760375976562,-58.84405517578125,-114.13534545898438,-1.4717257022857666,2.605060577392578,2.828169822692871,2474.676651954651
D4:22:CD:00:05:6B,-43.151248931884766,3.8736495971679688,-29.791271209716797,-8.351358413696289,-5.765506744384766,1.2448043823242188,2474.676651954651
D4:22:CD:00:49:AA,149.27316284179688,-71.17455291748047,133.18724060058594,-2.9228262901306152,0.39075201749801636,8.94294548034668,2474.676651954651
D4:22:CD:00:05:6E,122.12434387207031,-38.92521286010742,58.43564224243164,-2.6448864936828613,8.04023551940918,5.1905717849731445,2474.676651954651
D4:22:CD:00:05:5E,-126.36221313476562,-40.90432357788086,-64.7039794921875,-0.7386966943740845,-1.2078094482421875,-6.301918983459473,2474.676651954651
D4:22:CD:00:49:AA,152.3942108154297,-72.71573638916016,131.2692413330078,1.0569331645965576,1.5789077281951904,7.00152587890625,2474.6796526908875
D4:22:CD:00:05:6E,140.58924865722656,-45.597320556640625,62.12356185913086,-3.6599793434143066,-2.9350295066833496,7.553625106811523,2474.6796526908875
D4:22:CD:00:05:5D,177.6427459716797,-47.09303665161133,-100.00601959228516,-0.44743871688842773,0.8236856460571289,1.605839729309082,2474.754665374756
D4:22:CD:00:05:6B,-21.648656845092773,9.674949645996094,-38.66331100463867,8.336566925048828,-6.074892044067383,26.8140869140625,2474.754665374756
D4:22:CD:00:05:5E,-150.0462188720703,-59.98005294799805,-33.04436111450195,-3.8055639266967773,7.54643440246582,-2.605635643005371,2474.754665374756
D4:22:CD:00:05:5D,174.02059936523438,-48.9779167175293,-96.76652526855469,-2.7694664001464844,0.14867544174194336,1.7279081344604492,2474.7851951122284
D4:22:CD:00:05:6B,-15.328194618225098,1.919683814048767,-30.650026321411133,0.9702407121658325,-4.96231746673584,23.804828643798828,2474.7851951122284
D4:22:CD:00:49:AA,153.4445343017578,-78.77902221679688,130.51318359375,-2.6862330436706543,-0.09616510570049286,9.8045654296875,2474.7851951122284
D4:22:CD:00:05:6E,145.47787475585938,-66.26570892333984,-26.09783172607422,-3.9721455574035645,-2.887385845184326,14.288055419921875,2474.7851951122284
D4:22:CD:00:05:5E,-135.1184539794922,-44.51434326171875,-46.69447708129883,0.16803759336471558,6.587838172912598,-4.178528785705566,2474.7851951122284
D4:22:CD:00:05:5D,171.4307861328125,-51.29335021972656,-95.65873718261719,1.68638277053833,1.0365943908691406,3.021566390991211,2474.8441944122314
D4:22:CD:00:05:6B,-14.929052352905273,1.2360408306121826,-16.028091430664062,-10.24374771118164,-11.014022827148438,13.112688064575195,2474.8441944122314
D4:22:CD:00:49:AA,171.70486450195312,-79.26435852050781,113.56604766845703,-3.8673272132873535,-2.138913631439209,11.14071273803711,2474.8441944122314
D4:22:CD:00:05:6E,139.81341552734375,-63.40960693359375,-13.74898910522461,-5.680858612060547,-8.629903793334961,14.061418533325195,2474.8441944122314
D4:22:CD:00:05:5E,-125.37875366210938,-38.070037841796875,-57.92847442626953,2.428356170654297,4.423830986022949,-8.695135116577148,2474.8441944122314
D4:22:CD:00:05:5D,171.9663543701172,-54.84023666381836,-95.61759948730469,6.852890968322754,0.30586427450180054,2.7718420028686523,2474.874743938446
D4:22:CD:00:05:6B,-21.424606323242188,11.070691108703613,-6.585296630859375,-8.85272216796875,-5.781867980957031,0.18586254119873047,2474.874743938446
D4:22:CD:00:49:AA,-140.54550170898438,-78.36701202392578,70.14833068847656,0.9051014184951782,0.760940432548523,8.048999786376953,2474.874743938446
D4:22:CD:00:05:6E,131.13217163085938,-57.53603744506836,2.2439162731170654,-3.4628524780273438,-8.405645370483398,4.776877403259277,2474.874743938446
D4:22:CD:00:05:5E,-117.67131805419922,-37.01606369018555,-69.45589447021484,1.9799065589904785,3.332571506500244,-10.83857536315918,2474.874743938446
D4:22:CD:00:05:5D,174.41439819335938,-60.39402770996094,-95.44884490966797,-1.878058910369873,-0.7563422918319702,7.077688217163086,2474.9048397541046
D4:22:CD:00:05:6B,-37.507904052734375,20.97724723815918,-1.6064921617507935,-5.708224296569824,-10.197982788085938,-3.872492790222168,2474.9048397541046
D4:22:CD:00:49:AA,-115.72074127197266,-77.61703491210938,49.67625045776367,4.936819076538086,2.3713340759277344,5.603899002075195,2474.9048397541046
D4:22:CD:00:05:6E,129.17300415039062,-50.45160675048828,14.05638313293457,7.470245361328125,-10.848312377929688,-5.031780242919922,2474.9048397541046
D4:22:CD:00:05:5E,-108.49038696289062,-38.52165603637695,-83.24058532714844,1.9223558902740479,0.25396472215652466,-8.645023345947266,2474.9048397541046
D4:22:CD:00:05:5D,172.6161346435547,-68.89720153808594,-93.80669403076172,-5.405097007751465,-15.618558883666992,9.360040664672852,2474.934839963913
D4:22:CD:00:05:6B,-51.65354537963867,28.49709701538086,-0.5933921337127686,1.704697847366333,-9.302301406860352,1.2949323654174805,2474.934839963913
D4:22:CD:00:49:AA,-100.1301040649414,-77.20437622070312,39.074432373046875,-2.057410717010498,0.9141358137130737,-1.7030000686645508,2474.934839963913
D4:22:CD:00:05:6E,139.05650329589844,-49.67036056518555,28.30525016784668,-0.8121129274368286,-3.912891387939453,-8.136764526367188,2474.934839963913
D4:22:CD:00:05:5E,-95.708740234375,-40.92081832885742,-100.89405822753906,-2.521388530731201,-4.426234245300293,-4.269304275512695,2474.934839963913
D4:22:CD:00:05:5D,162.9702606201172,-74.59366607666016,-89.61933898925781,8.25579833984375,0.8506600856781006,-6.715850830078125,2474.964854478836
D4:22:CD:00:05:6B,-51.887123107910156,32.7247314453125,-4.695834159851074,2.430577278137207,-1.7200031280517578,-8.488435745239258,2474.964854478836
D4:22:CD:00:49:AA,-93.48487854003906,-75.1833267211914,37.744014739990234,-2.246316909790039,2.389937400817871,-10.508195877075195,2474.964854478836
D4:22:CD:00:05:6E,134.2029571533203,-46.78963851928711,41.38056564331055,0.29137349128723145,-10.188570022583008,-7.372528076171875,2474.964854478836
D4:22:CD:00:05:5E,-80.63594818115234,-42.44951248168945,-121.27452850341797,-7.838642120361328,-7.139023780822754,-1.100184440612793,2474.964854478836
D4:22:CD:00:05:5D,167.71217346191406,-72.33544921875,-87.35408782958984,9.120277404785156,4.217506408691406,-5.788327217102051,2474.994386911392
D4:22:CD:00:05:6B,-50.641937255859375,33.752628326416016,-13.808825492858887,-1.207728385925293,5.200118064880371,-15.798492431640625,2474.994386911392
D4:22:CD:00:49:AA,-95.1927490234375,-75.04737091064453,42.26224136352539,7.538181304931641,2.57865047454834,-14.32373046875,2474.994386911392
D4:22:CD:00:05:6E,122.52021026611328,-39.43581771850586,52.9881477355957,3.0590224266052246,-1.7025249004364014,-6.183174133300781,2474.994386911392
D4:22:CD:00:05:5E,-65.6360092163086,-42.02075958251953,-142.1734619140625,-15.989849090576172,-15.039878845214844,-2.0003762245178223,2474.994386911392
D4:22:CD:00:05:5D,175.97337341308594,-71.33354949951172,-90.19061279296875,-1.7372937202453613,-7.450173377990723,-11.935905456542969,2475.024381875992
D4:22:CD:00:05:6B,-53.66618728637695,32.46781921386719,-27.196849822998047,1.3038921356201172,7.335187911987305,-15.35345458984375,2475.024381875992
D4:22:CD:00:49:AA,-99.7711181640625,-76.69480895996094,46.63892364501953,3.8266754150390625,-1.083068609237671,-7.026309013366699,2475.024381875992
D4:22:CD:00:05:6E,116.87409973144531,-30.397624969482422,62.990081787109375,4.065949440002441,2.193777084350586,-5.501713752746582,2475.024381875992
D4:22:CD:00:05:5E,-56.259525299072266,-41.235843658447266,-158.54898071289062,-23.286285400390625,2.0024218559265137,-14.468584060668945,2475.024381875992
D4:22:CD:00:05:5D,-178.4349365234375,-74.4583511352539,-98.94718933105469,-1.491781234741211,-1.9428095817565918,-7.9881744384765625,2475.054381608963
D4:22:CD:00:05:6B,-55.81438064575195,26.84994888305664,-44.86311721801758,-1.9393932819366455,0.36533117294311523,-15.852161407470703,2475.054381608963
D4:22:CD:00:49:AA,-92.50701141357422,-78.72904205322266,39.07901382446289,-3.8192238807678223,-1.9200007915496826,-6.685577392578125,2475.054381608963
D4:22:CD:00:05:6E,114.17188262939453,-21.07246208190918,71.4818115234375,3.127338409423828,2.639148235321045,0.14529895782470703,2475.054381608963
D4:22:CD:00:05:5E,-50.056209564208984,-43.22407150268555,-161.09170532226562,-13.215118408203125,1.061568021774292,-12.934219360351562,2475.054381608963
D4:22:CD:00:05:5D,-173.46971130371094,-75.00110626220703,-107.27421569824219,-0.9099053144454956,16.417709350585938,1.4127693176269531,2475.0849289894104
D4:22:CD:00:05:6B,-53.658973693847656,14.961959838867188,-61.73976135253906,-6.443438529968262,-15.471303939819336,-14.342430114746094,2475.0849289894104
D4:22:CD:00:49:AA,-81.39105224609375,-79.14385986328125,29.539918899536133,-2.2402992248535156,-0.49585914611816406,-10.30517578125,2475.0849289894104
D4:22:CD:00:05:6E,109.37188720703125,-12.867067337036133,78.0356674194336,2.2964420318603516,5.455121994018555,-1.962418556213379,2475.0849289894104
D4:22:CD:00:05:5E,-55.260684967041016,-47.19086456298828,-156.6053466796875,-12.144088745117188,-1.2253503799438477,-8.250391006469727,2475.0849289894104
D4:22:CD:00:05:5D,-174.97677612304688,-72.50428009033203,-101.63735961914062,-4.850624084472656,-3.035367488861084,-5.957503318786621,2475.1449205875397
D4:22:CD:00:05:6B,-46.717899322509766,-0.25112974643707275,-76.80103302001953,13.977142333984375,-30.38251495361328,-3.134701728820801,2475.1449205875397
D4:22:CD:00:49:AA,-74.44690704345703,-78.67013549804688,25.975906372070312,2.5203676223754883,0.02247646078467369,-4.839234352111816,2475.1449205875397
D4:22:CD:00:05:6E,106.35470581054688,-7.4819722175598145,83.77017974853516,0.879707932472229,5.29261589050293,-6.225264549255371,2475.1449205875397
D4:22:CD:00:05:5E,-68.44029998779297,-53.00969314575195,-146.20437622070312,-18.336750030517578,-0.7760410308837891,-6.706474304199219,2475.1449205875397
D4:22:CD:00:05:5D,-178.0739288330078,-69.54148864746094,-93.1743392944336,0.13057222962379456,-5.244438171386719,1.2662725448608398,2475.1746315956116
D4:22:CD:00:05:6B,-52.921260833740234,-4.498370170593262,-79.43533325195312,4.157198905944824,12.60006332397461,-40.133216857910156,2475.1746315956116
D4:22:CD:00:49:AA,-75.64228057861328,-79.11302185058594,28.013662338256836,1.8635363578796387,1.0802042484283447,0.11315345764160156,2475.1746315956116
D4:22:CD:00:05:6E,109.77601623535156,-5.632806301116943,87.91312408447266,-0.6900904178619385,2.6231026649475098,-5.448478698730469,2475.1746315956116
D4:22:CD:00:05:5E,-95.24278259277344,-57.88005447387695,-127.58256530761719,-10.145757675170898,-6.410770416259766,-1.7309856414794922,2475.1746315956116
D4:22:CD:00:05:5D,179.443115234375,-67.51304626464844,-86.31136322021484,0.006514284759759903,-1.202195644378662,4.785161972045898,2475.2047255039215
D4:22:CD:00:05:6B,-73.58850860595703,1.286618709564209,-70.19184875488281,-10.993675231933594,-0.4839506149291992,21.123092651367188,2475.2047255039215
D4:22:CD:00:49:AA,-88.54496765136719,-80.17623138427734,38.447052001953125,-3.29254150390625,-6.412079811096191,1.6905937194824219,2475.2047255039215
D4:22:CD:00:05:6E,117.7740707397461,-6.8617119789123535,88.5040512084961,2.9212355613708496,0.7661525011062622,-4.459362983703613,2475.2047255039215
D4:22:CD:00:05:5E,-126.40140533447266,-57.853328704833984,-104.62859344482422,-21.324024200439453,4.044062614440918,0.8496522903442383,2475.2047255039215
D4:22:CD:00:05:5D,177.1672821044922,-66.46268463134766,-81.17832946777344,0.8615429401397705,0.4372507929801941,3.777462959289551,2475.2347271442413
D4:22:CD:00:05:6B,-74.7162857055664,9.311504364013672,-59.55537033081055,0.4041600227355957,-11.323633193969727,-2.141505241394043,2475.2347271442413
D4:22:CD:00:49:AA,-98.9047622680664,-81.17613220214844,48.379581451416016,0.7613807916641235,-0.9870680570602417,14.279563903808594,2475.2347271442413
D4:22:CD:00:05:6E,126.92912292480469,-9.311917304992676,84.69979858398438,7.622052192687988,-0.9907537698745728,-4.703224182128906,2475.2347271442413
D4:22:CD:00:05:5E,-140.33975219726562,-54.54397964477539,-91.80011749267578,13.531269073486328,-20.21187973022461,-3.399219036102295,2475.2347271442413
D4:22:CD:00:05:5D,174.44842529296875,-66.4954833984375,-77.48527526855469,0.9691517353057861,-0.9617308378219604,4.36634635925293,2475.2647404670715
D4:22:CD:00:05:6B,-73.25376892089844,18.596189498901367,-45.16233444213867,7.462960243225098,-11.626846313476562,-5.249658584594727,2475.2647404670715
D4:22:CD:00:49:AA,-101.27708435058594,-81.971923828125,49.437721252441406,2.8346447944641113,3.4814863204956055,1.659745216369629,2475.2647404670715
D4:22:CD:00:05:6E,131.09799194335938,-12.486648559570312,76.08306121826172,9.963502883911133,0.04484787583351135,-3.5710978507995605,2475.2647404670715
D4:22:CD:00:05:5E,-137.7062225341797,-57.132041931152344,-87.78875732421875,2.1671462059020996,-14.503860473632812,-7.649500846862793,2475.2647404670715
D4:22:CD:00:05:5D,170.59117126464844,-67.447265625,-74.43869018554688,-4.010341644287109,-0.22863319516181946,2.8983802795410156,2475.2942740917206
D4:22:CD:00:05:6B,-71.05988311767578,24.539457321166992,-31.162113189697266,8.14324951171875,-0.5528659820556641,1.7548933029174805,2475.2942740917206
D4:22:CD:00:49:AA,-109.27804565429688,-82.25174713134766,55.809471130371094,1.7802753448486328,2.557680606842041,0.8014945983886719,2475.2942740917206
D4:22:CD:00:05:6E,127.19873809814453,-17.106231689453125,63.3623046875,13.592521667480469,1.8740081787109375,4.626182556152344,2475.2942740917206
D4:22:CD:00:05:5E,-142.72808837890625,-57.583351135253906,-83.6300277709961,4.086757659912109,-4.181589126586914,3.395144462585449,2475.2942740917206
D4:22:CD:00:05:5D,165.07110595703125,-69.22618103027344,-71.29403686523438,-2.510284423828125,0.04504590481519699,1.1333370208740234,2475.324501991272
D4:22:CD:00:05:6B,-65.06522369384766,27.571861267089844,-20.21092987060547,2.9476327896118164,3.3035035133361816,-1.050628662109375,2475.324501991272
D4:22:CD:00:49:AA,-117.04607391357422,-82.36979675292969,60.07796096801758,-0.38596034049987793,-1.868453025817871,0.5937566757202148,2475.324501991272
D4:22:CD:00:05:6E,112.34762573242188,-15.444005966186523,56.624176025390625,15.506071090698242,3.5294690132141113,10.107345581054688,2475.324501991272
D4:22:CD:00:05:5E,-148.95582580566406,-57.09586715698242,-78.87578582763672,4.964476585388184,-12.600509643554688,2.4523324966430664,2475.324501991272
D4:22:CD:00:05:5D,157.3977508544922,-71.04493713378906,-68.39646911621094,2.314877986907959,-0.7863435745239258,1.6653289794921875,2475.3546230793
D4:22:CD:00:05:6B,-65.4923095703125,28.262887954711914,-12.389942169189453,-7.588072776794434,5.811495780944824,-4.551796913146973,2475.3546230793
D4:22:CD:00:49:AA,-125.10125732421875,-82.5488052368164,63.76338195800781,0.4522612690925598,-2.2780399322509766,-1.9476771354675293,2475.3546230793
D4:22:CD:00:05:6E,97.47383880615234,-10.039995193481445,52.88562774658203,9.211410522460938,15.61886978149414,4.23573112487793,2475.3546230793
D4:22:CD:00:05:5E,-150.2629852294922,-54.86857986450195,-75.08197021484375,-2.7148914337158203,-5.872020721435547,-4.205211639404297,2475.3546230793
D4:22:CD:00:05:5D,144.1658935546875,-73.00343322753906,-64.32894897460938,6.394550323486328,-1.8014895915985107,-1.6893796920776367,2475.3848152160645
D4:22:CD:00:05:6B,-72.48688507080078,25.237136840820312,-6.83543586730957,-9.747732162475586,4.046121597290039,-5.72676944732666,2475.3848152160645
D4:22:CD:00:49:AA,-138.10255432128906,-81.95348358154297,71.60877990722656,4.4766387939453125,-1.7163338661193848,-3.2036447525024414,2475.3848152160645
D4:22:CD:00:05:6E,89.96311950683594,-0.16147272288799286,49.29387283325195,10.492507934570312,19.191505432128906,-2.286984443664551,2475.3848152160645
D4:22:CD:00:05:5E,-151.71778869628906,-52.102481842041016,-72.5223617553711,-3.315053939819336,-6.092455863952637,-1.7283620834350586,2475.3848152160645
D4:22:CD:00:05:5D,136.96328735351562,-69.09002685546875,-66.1198959350586,7.837862014770508,13.277816772460938,9.053638458251953,2475.4448142051697
D4:22:CD:00:05:6B,-80.9637222290039,18.268259048461914,-2.151502847671509,-7.673065185546875,6.089470863342285,-4.9279632568359375,2475.4448142051697
D4:22:CD:00:49:AA,-150.50914001464844,-80.36932373046875,78.15469360351562,4.5944976806640625,-2.018791675567627,-5.299718856811523,2475.4448142051697
D4:22:CD:00:05:6E,87.28583526611328,10.876585006713867,48.53067398071289,11.996423721313477,13.187515258789062,-9.46275520324707,2475.4448142051697
D4:22:CD:00:05:5E,-153.32952880859375,-49.79164123535156,-70.90264892578125,-1.0238478183746338,-5.270442008972168,-0.8657388687133789,2475.4448142051697
D4:22:CD:00:05:5D,138.36375427246094,-59.34823226928711,-77.05247497558594,15.71645736694336,17.414840698242188,18.005168914794922,2475.475363969803
D4:22:CD:00:05:6B,-86.19557189941406,9.190644264221191,3.457033157348633,-6.8783721923828125,12.737480163574219,-5.805602073669434,2475.475363969803
D4:22:CD:00:49:AA,-156.246337890625,-78.3670883178711,79.01014709472656,0.2771296501159668,-1.8991572856903076,1.9189205169677734,2475.475363969803
D4:22:CD:00:05:6E,89.86518096923828,20.73558807373047,52.517486572265625,4.8451642990112305,15.27679443359375,-11.418998718261719,2475.475363969803
D4:22:CD:00:05:5E,-153.87232971191406,-47.54505157470703,-69.87860107421875,-0.17813175916671753,-5.952035903930664,-1.699528694152832,2475.475363969803
D4:22:CD:00:05:5D,141.79298400878906,-46.70552444458008,-87.5488052368164,11.684793472290039,6.1657257080078125,2.2594423294067383,2475.5053634643555
D4:22:CD:00:05:6B,-91.84741973876953,-0.6918825507164001,11.373526573181152,-7.474357604980469,9.22398567199707,-13.614696502685547,2475.5053634643555
D4:22:CD:00:49:AA,-152.20118713378906,-77.86173248291016,74.69632720947266,0.10144269466400146,-0.9726787805557251,3.8291149139404297,2475.5053634643555
D4:22:CD:00:05:6E,92.63634490966797,29.622451782226562,59.183616638183594,1.275350570678711,14.090553283691406,-10.252861022949219,2475.5053634643555
D4:22:CD:00:05:5E,-153.80970764160156,-44.9207878112793,-68.79991149902344,-2.0214381217956543,-4.910953521728516,-3.141132354736328,2475.5053634643555
D4:22:CD:00:05:5D,145.74679565429688,-33.95383834838867,-96.71100616455078,4.697512626647949,0.45005887746810913,-9.673934936523438,2475.534363746643
D4:22:CD:00:05:6B,-104.07194519042969,-10.506500244140625,24.166187286376953,0.583707332611084,5.284626007080078,-7.237780570983887,2475.534363746643
D4:22:CD:00:49:AA,-152.18869018554688,-78.63611602783203,73.63188171386719,5.611939430236816,3.357478141784668,-0.4289541244506836,2475.534363746643
D4:22:CD:00:05:6E,94.24715423583984,36.95931625366211,67.64291381835938,0.22196021676063538,9.346874237060547,-10.80744743347168,2475.534363746643
D4:22:CD:00:05:5E,-153.63258361816406,-41.644264221191406,-67.96646881103516,0.9323793649673462,-7.340618133544922,-1.0298452377319336,2475.534363746643
D4:22:CD:00:05:5D,150.9051971435547,-22.527904510498047,-104.07349395751953,-0.4559285044670105,-1.1113982200622559,-15.808328628540039,2475.564377784729
D4:22:CD:00:05:6B,-118.5171127319336,-21.32383155822754,43.1231803894043,8.331239700317383,15.139629364013672,4.875453948974609,2475.564377784729
D4:22:CD:00:49:AA,-150.77627563476562,-79.28564453125,69.23641967773438,4.859341621398926,3.4426207542419434,-0.29371070861816406,2475.564377784729
D4:22:CD:00:05:6E,95.36126708984375,42.16574478149414,76.91244506835938,-3.5452704429626465,7.669049263000488,-10.227291107177734,2475.564377784729
D4:22:CD:00:05:5E,-155.88882446289062,-37.064449310302734,-67.30614471435547,-5.804603576660156,-3.763072967529297,-4.42512321472168,2475.564377784729
D4:22:CD:00:05:5D,157.27011108398438,-13.65262222290039,-109.58007049560547,-0.18194100260734558,1.0883302688598633,-16.864917755126953,2475.594906568527
D4:22:CD:00:05:6B,-127.50821685791016,-35.76215744018555,68.2801742553711,9.458391189575195,54.81297302246094,23.052776336669922,2475.594906568527
D4:22:CD:00:49:AA,-147.28256225585938,-78.92609405517578,63.78221130371094,-1.0949773788452148,-0.1801183521747589,-2.381958484649658,2475.594906568527
D4:22:CD:00:05:6E,94.82672119140625,46.0474853515625,85.772705078125,-5.618983268737793,3.5138230323791504,-12.173820495605469,2475.594906568527
D4:22:CD:00:05:5E,-157.32130432128906,-33.369956970214844,-66.54291534423828,-3.4233908653259277,-9.918844223022461,-3.2664036750793457,2475.594906568527
D4:22:CD:00:05:5D,162.86605834960938,-8.781025886535645,-114.41639709472656,-2.3870606422424316,-0.2819710373878479,-12.31329345703125,2475.6249945163727
D4:22:CD:00:05:6B,-120.24092102050781,-45.38138961791992,81.96609497070312,-12.92778205871582,4.568678855895996,16.516441345214844,2475.6249945163727
D4:22:CD:00:49:AA,-146.21224975585938,-78.68850708007812,62.9935188293457,-3.9867396354675293,-1.1024532318115234,-4.665247917175293,2475.6249945163727
D4:22:CD:00:05:6E,95.20462799072266,48.81792449951172,94.28443145751953,-5.100772857666016,-2.9895362854003906,-13.271610260009766,2475.6249945163727
D4:22:CD:00:05:5E,-157.96832275390625,-29.978469848632812,-66.4467544555664,-2.160358428955078,-4.058249473571777,-0.9509973526000977,2475.6249945163727
D4:22:CD:00:05:5D,162.82113647460938,-9.04918384552002,-118.76764678955078,-7.208942413330078,-2.0731053352355957,-12.443578720092773,2475.655155658722
D4:22:CD:00:05:6B,-107.23274230957031,-41.033424377441406,79.20104217529297,11.188566207885742,14.250682830810547,-8.584463119506836,2475.655155658722
D4:22:CD:00:49:AA,-139.6021270751953,-79.76382446289062,57.47747802734375,2.754866600036621,0.258172869682312,-1.7465324401855469,2475.655155658722
D4:22:CD:00:05:6E,98.94097137451172,48.86824035644531,102.82775115966797,-6.178957939147949,-6.9951019287109375,-7.6085710525512695,2475.655155658722
D4:22:CD:00:05:5E,-159.7119598388672,-27.349708557128906,-67.12000274658203,-2.6039137840270996,-5.549930572509766,-0.0867910385131836,2475.655155658722
D4:22:CD:00:05:5D,157.2681427001953,-14.608173370361328,-120.83462524414062,-13.248163223266602,-7.8289690017700195,-14.779977798461914,2475.684689283371
D4:22:CD:00:05:6B,-108.64706420898438,-33.59425735473633,73.67200469970703,-5.512526512145996,9.461870193481445,-4.917270660400391,2475.684689283371
D4:22:CD:00:49:AA,-129.8852081298828,-80.53070068359375,48.81730270385742,5.633267402648926,3.6266541481018066,-1.6252641677856445,2475.684689283371
D4:22:CD:00:05:6E,103.56806182861328,45.02256393432617,110.2560806274414,-6.142395973205566,-9.522289276123047,-1.1825284957885742,2475.684689283371
D4:22:CD:00:05:5E,-160.76136779785156,-26.66252326965332,-67.58251953125,0.4556320309638977,-5.545381546020508,1.2610483169555664,2475.684689283371
D4:22:CD:00:05:5D,155.15402221679688,-22.806087493896484,-119.80935668945312,2.801292896270752,-7.90226936340332,34.008270263671875,2475.7447698116302
D4:22:CD:00:05:6B,-104.23771667480469,-30.702835083007812,69.2236328125,-4.089012145996094,10.024477005004883,-2.8594956398010254,2475.7447698116302
D4:22:CD:00:49:AA,-126.12062072753906,-80.78170776367188,43.96635818481445,6.545212745666504,-2.0939383506774902,1.549001693725586,2475.7447698116302
D4:22:CD:00:05:6E,107.00141906738281,38.45309829711914,114.82891082763672,-1.8145599365234375,-9.124820709228516,6.797855377197266,2475.7447698116302
D4:22:CD:00:05:5E,-161.96221923828125,-27.562225341796875,-67.24591827392578,0.24305737018585205,-6.178976058959961,0.6932744979858398,2475.7447698116302
D4:22:CD:00:05:5D,163.25831604003906,-23.613603591918945,-116.87098693847656,-12.882125854492188,-18.806514739990234,4.269489288330078,2475.7742989063263
D4:22:CD:00:05:6B,-96.16991424560547,-31.03295135498047,65.0728759765625,5.334061622619629,9.166912078857422,-3.9545035362243652,2475.7742989063263
D4:22:CD:00:49:AA,-123.36907958984375,-81.12879180908203,39.03057861328125,0.12593120336532593,-2.722954750061035,1.2287406921386719,2475.7742989063263
D4:22:CD:00:05:6E,109.64886474609375,33.311126708984375,114.52847290039062,8.905027389526367,-1.4354820251464844,22.35277557373047,2475.7742989063263
D4:22:CD:00:05:5E,-163.20339965820312,-30.050418853759766,-66.58368682861328,-1.6209909915924072,-6.304836273193359,0.3698711395263672,2475.7742989063263
D4:22:CD:00:05:5D,167.7022247314453,-20.02028465270996,-113.31102752685547,-12.376596450805664,-13.548078536987305,10.754541397094727,2475.804299354553
D4:22:CD:00:05:6B,-93.7332992553711,-33.490631103515625,61.0502815246582,16.874683380126953,12.778182983398438,1.3174571990966797,2475.804299354553
D4:22:CD:00:49:AA,-126.90064239501953,-81.15380096435547,40.11722183227539,-0.3591151237487793,-2.7919254302978516,8.76402473449707,2475.804299354553
D4:22:CD:00:05:6E,111.36174774169922,35.4904670715332,110.21442413330078,24.325626373291016,7.561445236206055,25.571365356445312,2475.804299354553
D4:22:CD:00:05:5E,-164.76336669921875,-34.068580627441406,-66.43177795410156,-2.470022201538086,-6.588425636291504,0.9601802825927734,2475.804299354553
D4:22:CD:00:05:5D,165.74777221679688,-14.655765533447266,-113.10480499267578,-3.209249973297119,-16.571090698242188,10.035602569580078,2475.835354566574
D4:22:CD:00:05:6B,-101.20161437988281,-35.49016571044922,57.35382843017578,12.084966659545898,5.600159645080566,3.6592063903808594,2475.835354566574
D4:22:CD:00:49:AA,-133.21115112304688,-80.76451873779297,44.667701721191406,-0.7215417623519897,0.07689784467220306,5.720075607299805,2475.835354566574
D4:22:CD:00:05:6E,111.78425598144531,44.516536712646484,105.83501434326172,22.226177215576172,13.271989822387695,20.53094482421875,2475.835354566574
D4:22:CD:00:05:5E,-166.15382385253906,-40.25922393798828,-66.80370330810547,0.29297763109207153,-7.361037254333496,3.4307756423950195,2475.835354566574
D4:22:CD:00:05:5D,162.35592651367188,-9.104991912841797,-116.20743560791016,-8.642730712890625,-12.025459289550781,10.20040512084961,2475.8643634319305
D4:22:CD:00:05:6B,-111.53739929199219,-35.629093170166016,54.202972412109375,4.042410850524902,7.060510635375977,3.4121789932250977,2475.8643634319305
D4:22:CD:00:49:AA,-142.6127471923828,-79.8547592163086,53.41307067871094,3.6076040267944336,0.06470632553100586,5.564409255981445,2475.8643634319305
D4:22:CD:00:05:6E,108.07853698730469,56.1798210144043,101.28108978271484,11.02412223815918,12.77869987487793,11.635963439941406,2475.8643634319305
D4:22:CD:00:05:5E,-162.69155883789062,-51.37160873413086,-67.43972778320312,11.927995681762695,-14.827119827270508,2.474459648132324,2475.8643634319305
D4:22:CD:00:05:5D,160.01634216308594,-4.616037368774414,-120.11653137207031,-8.372264862060547,-4.409161567687988,3.3216161727905273,2475.8948936462402
D4:22:CD:00:05:6B,-114.49447631835938,-37.61298370361328,53.070228576660156,2.638101577758789,7.094025611877441,4.273860931396484,2475.8948936462402
D4:22:CD:00:49:AA,-153.94125366210938,-79.24896240234375,63.331275939941406,3.334280490875244,0.7623374462127686,7.382970809936523,2475.8948936462402
D4:22:CD:00:05:6E,96.62227630615234,66.70855712890625,94.12564849853516,1.385878562927246,10.252782821655273,5.498984336853027,2475.8948936462402
D4:22:CD:00:05:5E,-157.77052307128906,-56.1289176940918,-70.20722198486328,-1.6887142658233643,-4.389982223510742,-2.7502927780151367,2475.8948936462402
D4:22:CD:00:05:5D,161.41458129882812,-2.788733720779419,-123.29580688476562,-4.414525032043457,0.6945682764053345,-4.069255828857422,2475.9248933792114
D4:22:CD:00:05:6B,-118.57591247558594,-41.369056701660156,55.560707092285156,2.5758228302001953,6.419912338256836,1.788640022277832,2475.9248933792114
D4:22:CD:00:49:AA,-164.32937622070312,-78.71882629394531,72.22273254394531,1.5506618022918701,1.0931971073150635,6.239738464355469,2475.9248933792114
D4:22:CD:00:05:6E,74.69673919677734,74.4485855102539,79.17161560058594,-3.1631627082824707,4.920733451843262,-0.5070209503173828,2475.9248933792114
D4:22:CD:00:05:5E,-157.30899047851562,-56.114139556884766,-73.06078338623047,-6.210879325866699,5.718703269958496,-2.354017734527588,2475.9248933792114
D4:22:CD:00:05:5D,163.83702087402344,-4.958315849304199,-125.16119384765625,-5.136650085449219,4.225340843200684,-10.137462615966797,2475.954893350601
D4:22:CD:00:05:6B,-130.23751831054688,-45.721012115478516,62.47422409057617,1.6403045654296875,5.53083610534668,0.1440896987915039,2475.954893350601
D4:22:CD:00:49:AA,-173.89889526367188,-77.83439636230469,80.80949401855469,1.5330147743225098,-0.36851632595062256,2.7000560760498047,2475.954893350601
D4:22:CD:00:05:6E,41.421295166015625,78.1590805053711,53.444068908691406,-0.9060059785842896,-0.3770442008972168,-4.568136215209961,2475.954893350601
D4:22:CD:00:05:5E,-155.8630828857422,-52.01991653442383,-76.181884765625,-4.480417251586914,-0.8083605766296387,-7.972074508666992,2475.954893350601
D4:22:CD:00:05:5D,163.9652557373047,-11.267687797546387,-125.4441146850586,-7.759232521057129,3.4168100357055664,-18.409927368164062,2475.9844522476196
D4:22:CD:00:05:6B,-147.69607543945312,-49.27861404418945,73.46195983886719,-2.1525497436523438,4.672821998596191,-1.2856740951538086,2475.9844522476196
D4:22:CD:00:49:AA,178.25869750976562,-76.84590911865234,88.0600814819336,2.7842769622802734,-0.47930824756622314,-2.0167131423950195,2475.9844522476196
D4:22:CD:00:05:6E,17.500926971435547,79.22526550292969,35.26148223876953,4.390433311462402,-4.8008623123168945,-5.661277770996094,2475.9844522476196
D4:22:CD:00:05:5E,-159.09397888183594,-48.214134216308594,-78.6446533203125,-0.03234388679265976,-8.432785034179688,-14.444982528686523,2475.9844522476196
D4:22:CD:00:05:5D,162.44146728515625,-21.261980056762695,-124.32939147949219,-7.139104843139648,-1.7811863422393799,-21.34621810913086,2476.0444526672363
D4:22:CD:00:05:6B,-167.43154907226562,-50.54341506958008,86.38419342041016,-2.8432540893554688,4.5113115310668945,-3.918936252593994,2476.0444526672363
D4:22:CD:00:49:AA,172.52870178222656,-76.26221466064453,93.20765686035156,0.76691734790802,-0.22256162762641907,-6.841862678527832,2476.0444526672363
D4:22:CD:00:05:6E,27.716819763183594,81.65397644042969,45.55311584472656,9.075401306152344,-6.995936393737793,-6.215127944946289,2476.0444526672363
D4:22:CD:00:05:5E,-166.21632385253906,-46.40410614013672,-78.5300064086914,-7.371480941772461,1.2346534729003906,-1.9312310218811035,2476.0444526672363
D4:22:CD:00:05:5D,161.22779846191406,-34.37068557739258,-122.45375061035156,-7.080836296081543,-5.031793594360352,-17.302631378173828,2476.0750012397766
D4:22:CD:00:05:6B,172.57553100585938,-49.8685417175293,97.00614166259766,-4.669761657714844,6.581111907958984,-5.771330833435059,2476.0750012397766
D4:22:CD:00:49:AA,169.72805786132812,-76.17169189453125,96.34980773925781,-1.5859649181365967,0.31313472986221313,-8.756786346435547,2476.0750012397766
D4:22:CD:00:05:6E,97.45745849609375,80.78953552246094,111.86091613769531,-2.9336018562316895,2.0449743270874023,-11.684280395507812,2476.0750012397766
D4:22:CD:00:05:5E,-167.74124145507812,-43.83796691894531,-78.6987533569336,-2.165132522583008,-3.539641857147217,-9.439641952514648,2476.0750012397766
D4:22:CD:00:05:5D,159.52391052246094,-50.47566604614258,-120.01370239257812,-5.655840873718262,-5.407853126525879,-6.44197940826416,2476.1050016880035
D4:22:CD:00:05:6B,155.5692138671875,-49.19330596923828,104.06217193603516,-7.234409332275391,4.812047004699707,-11.082828521728516,2476.1050016880035
D4:22:CD:00:49:AA,167.97740173339844,-77.00830841064453,99.01758575439453,-0.7944371700286865,1.048631191253662,-9.419309616088867,2476.1050016880035
D4:22:CD:00:05:6E,122.32452392578125,68.5811996459961,142.072021484375,-19.087413787841797,10.127262115478516,-16.90285873413086,2476.1050016880035
D4:22:CD:00:05:5E,-166.21461486816406,-41.10087966918945,-79.29167175292969,-0.8125061988830566,-10.87393569946289,-1.6334781646728516,2476.1050016880035
D4:22:CD:00:05:5D,154.86195373535156,-69.01612854003906,-115.65834045410156,-1.617781400680542,-4.905489921569824,6.6590728759765625,2476.1350014209747
D4:22:CD:00:05:6B,145.96563720703125,-47.87562942504883,110.51219177246094,-3.859036445617676,3.2660460472106934,-11.193496704101562,2476.1350014209747
D4:22:CD:00:49:AA,164.86624145507812,-78.11100006103516,102.05838775634766,1.388026237487793,1.4644291400909424,-9.452718734741211,2476.1350014209747
D4:22:CD:00:05:6E,116.70872497558594,51.952884674072266,149.29981994628906,-22.967708587646484,23.946041107177734,-38.98943328857422,2476.1350014209747
D4:22:CD:00:05:5E,-167.8122100830078,-38.60210418701172,-80.24527740478516,0.3259570002555847,-12.179927825927734,4.545779228210449,2476.1350014209747
D4:22:CD:00:05:5D,110.0467300415039,-86.73889923095703,-67.60549926757812,10.523916244506836,7.219883918762207,22.087249755859375,2476.165004968643
D4:22:CD:00:05:6B,142.50120544433594,-46.38447952270508,116.14209747314453,-4.491328239440918,5.245244026184082,-8.90639877319336,2476.165004968643
D4:22:CD:00:49:AA,160.21868896484375,-79.04199981689453,105.84569549560547,0.8796435594558716,0.13662579655647278,-5.393828392028809,2476.165004968643
D4:22:CD:00:05:6E,139.39337158203125,48.74302291870117,155.8078155517578,21.344791412353516,-26.904129028320312,-9.609827041625977,2476.165004968643
D4:22:CD:00:05:5E,-167.234619140625,-38.75283432006836,-81.46466064453125,0.5162384510040283,-9.585895538330078,5.096065521240234,2476.165004968643
D4:22:CD:00:05:5D,12.350298881530762,-78.60736083984375,39.45565414428711,18.938098907470703,22.69601058959961,5.461544990539551,2476.1945385932922
D4:22:CD:00:05:6B,141.19964599609375,-45.17051696777344,121.14350128173828,-5.272623062133789,6.962841033935547,-6.2887115478515625,2476.1945385932922
D4:22:CD:00:49:AA,158.62120056152344,-80.1377944946289,108.15054321289062,-3.901710033416748,-3.16495943069458,-0.9441719055175781,2476.1945385932922
D4:22:CD:00:05:6E,175.5128631591797,57.6365852355957,164.90811157226562,1.8578529357910156,30.09335708618164,5.652371406555176,2476.1945385932922
D4:22:CD:00:05:5E,-165.1923065185547,-41.15510177612305,-84.02162170410156,-0.9489223957061768,-11.034265518188477,3.492650032043457,2476.1945385932922
D4:22:CD:00:05:5D,27.93705177307129,-75.91259765625,31.83078956604004,10.393617630004883,21.821033477783203,-12.191125869750977,2476.2245347499847
D4:22:CD:00:05:6B,138.35572814941406,-44.32619857788086,124.2982177734375,-3.1991820335388184,3.451747417449951,-6.303770065307617,2476.2245347499847
D4:22:CD:00:49:AA,160.53640747070312,-81.24918365478516,109.98773193359375,3.080489158630371,-0.6697930097579956,-3.669297218322754,2476.2245347499847
D4:22:CD:00:05:6E,-149.78842163085938,69.26148986816406,-175.1356964111328,-5.406008720397949,-2.308898448944092,-20.021644592285156,2476.2245347499847
D4:22:CD:00:05:5E,-161.45521545410156,-46.75395965576172,-88.96238708496094,0.02352876216173172,-8.163558959960938,-3.197874069213867,2476.2245347499847
D4:22:CD:00:05:5D,62.31155014038086,-78.61884307861328,-2.4724831581115723,10.062738418579102,19.05005645751953,1.4104547500610352,2476.2547900676727
D4:22:CD:00:05:6B,134.5135498046875,-43.730926513671875,123.54263305664062,-7.170660018920898,7.901856422424316,-2.742572784423828,2476.2547900676727
D4:22:CD:00:49:AA,167.06072998046875,-80.61761474609375,104.33518981933594,13.05179214477539,2.7062506675720215,10.07284927368164,2476.2547900676727
D4:22:CD:00:05:6E,-104.90027618408203,74.64308166503906,-134.36221313476562,-2.5651092529296875,9.10228157043457,-12.820749282836914,2476.2547900676727
D4:22:CD:00:05:5E,-155.25326538085938,-47.983009338378906,-92.96041107177734,-4.562061309814453,-4.941159248352051,-5.740150451660156,2476.2547900676727
D4:22:CD:00:05:5D,116.13239288330078,-76.11668395996094,-54.85443878173828,16.797748565673828,-2.8701186180114746,9.298599243164062,2476.284338951111
D4:22:CD:00:05:6B,135.08941650390625,-42.72136688232422,120.39574432373047,-11.031147003173828,16.771129608154297,-0.8136844635009766,2476.284338951111
D4:22:CD:00:49:AA,171.4840545654297,-80.19775390625,97.75205993652344,9.407306671142578,-1.3197250366210938,10.312437057495117,2476.284338951111
D4:22:CD:00:05:6E,-61.87705612182617,72.90943908691406,-95.5406265258789,-1.6327800750732422,7.265111923217773,-10.686141967773438,2476.284338951111
D4:22:CD:00:05:5E,-146.80931091308594,-44.79946517944336,-94.7635498046875,-16.292781829833984,8.92255973815918,9.901399612426758,2476.284338951111
D4:22:CD:00:05:5D,136.7937774658203,-72.04120635986328,-75.88273620605469,-2.878049373626709,-15.942258834838867,-1.5674667358398438,2476.344343185425
D4:22:CD:00:05:6B,145.6446533203125,-41.29888916015625,117.54630279541016,-11.747724533081055,17.173946380615234,-1.344660758972168,2476.344343185425
D4:22:CD:00:49:AA,177.7364501953125,-80.0314712524414,93.15643310546875,-0.03227951377630234,-0.26470524072647095,4.713212013244629,2476.344343185425
D4:22:CD:00:05:6E,-35.928165435791016,69.26350402832031,-73.40078735351562,-1.1441974639892578,4.180904388427734,-3.876070022583008,2476.344343185425
D4:22:CD:00:05:5E,-145.49911499023438,-35.018798828125,-91.72663116455078,-22.799949645996094,-2.201478958129883,9.572139739990234,2476.344343185425
D4:22:CD:00:05:5D,140.0447235107422,-74.69827270507812,-85.70531463623047,-2.6208605766296387,-12.509462356567383,-2.4402174949645996,2476.374881505966
D4:22:CD:00:05:6B,165.92120361328125,-41.10431671142578,114.15382385253906,-4.9045867919921875,8.94630241394043,-0.9676018953323364,2476.374881505966
D4:22:CD:00:49:AA,-178.8640594482422,-79.37162017822266,92.67870330810547,-2.3799643516540527,-2.3438754081726074,-2.606771945953369,2476.374881505966
D4:22:CD:00:05:6E,-17.76645851135254,66.90721130371094,-60.92696762084961,-3.1350760459899902,0.06039632856845856,6.414278030395508,2476.374881505966
D4:22:CD:00:05:5E,-146.5504608154297,-23.698957443237305,-85.53589630126953,-12.828170776367188,-9.194379806518555,-3.366032123565674,2476.374881505966
D4:22:CD:00:05:5D,146.91510009765625,-76.62825775146484,-98.18630981445312,-17.426036834716797,-0.05600340664386749,10.279848098754883,2476.404881477356
D4:22:CD:00:05:6B,-170.93734741210938,-41.80586624145508,107.62345123291016,2.649712085723877,7.1253461837768555,-1.890648365020752,2476.404881477356
D4:22:CD:00:49:AA,-172.03961181640625,-77.61824035644531,89.6196060180664,-1.954505443572998,-1.8826861381530762,-5.8964433670043945,2476.404881477356
D4:22:CD:00:05:6E,-6.165820598602295,65.43277740478516,-54.667415618896484,8.668190002441406,4.003627777099609,8.763162612915039,2476.404881477356
D4:22:CD:00:05:5E,-144.08274841308594,-14.851198196411133,-78.65486907958984,-7.387306213378906,-5.397050857543945,-11.265296936035156,2476.404881477356
D4:22:CD:00:05:5D,159.27618408203125,-74.34965515136719,-103.74071502685547,6.884607315063477,-4.312060356140137,-2.880399703979492,2476.43488073349
D4:22:CD:00:05:6B,-152.9736785888672,-41.453914642333984,97.77005767822266,8.932966232299805,5.686912536621094,-4.179013252258301,2476.43488073349
D4:22:CD:00:49:AA,-164.3544158935547,-75.9924545288086,86.01808166503906,-2.438418388366699,0.8564625978469849,-3.738797664642334,2476.43488073349
D4:22:CD:00:05:6E,-5.517148494720459,65.55858612060547,-52.24968338012695,9.512901306152344,-7.197986602783203,15.936521530151367,2476.43488073349
D4:22:CD:00:05:5E,-142.2832794189453,-8.663517951965332,-71.90902709960938,-2.88816499710083,-2.2161130905151367,-13.202701568603516,2476.43488073349
D4:22:CD:00:05:5D,168.6678009033203,-72.2470474243164,-110.82005310058594,-1.111799955368042,2.725228786468506,1.013993263244629,2476.464997291565
D4:22:CD:00:05:6B,-141.19036865234375,-40.431884765625,88.85710144042969,4.893824577331543,3.9210753440856934,-3.148923397064209,2476.464997291565
D4:22:CD:00:49:AA,-166.41677856445312,-75.76361846923828,86.62239074707031,1.6365768909454346,3.6686978340148926,-4.250563621520996,2476.464997291565
D4:22:CD:00:05:6E,2.897289752960205,67.70083618164062,-43.640716552734375,-3.4386439323425293,-16.20230484008789,10.280548095703125,2476.464997291565
D4:22:CD:00:05:5E,-142.9850311279297,-5.574959754943848,-65.74159240722656,-1.592066764831543,-0.36755698919296265,-14.270820617675781,2476.464997291565
D4:22:CD:00:05:5D,171.76376342773438,-69.80326080322266,-114.9052734375,1.6440086364746094,-1.5019636154174805,0.16013717651367188,2476.4945316314697
D4:22:CD:00:05:6B,-135.17308044433594,-40.60533905029297,83.23280334472656,5.534368515014648,0.27256274223327637,-1.0341730117797852,2476.4945316314697
D4:22:CD:00:49:AA,-171.19334411621094,-74.95968627929688,88.74118041992188,-2.335134506225586,-0.0880473405122757,-0.17102813720703125,2476.4945316314697
D4:22:CD:00:05:6E,24.07823371887207,67.42549896240234,-25.266738891601562,1.4906539916992188,18.104103088378906,4.8178558349609375,2476.4945316314697
D4:22:CD:00:05:5E,-149.6825408935547,-5.497374057769775,-60.31608200073242,-2.473616123199463,-5.36845588684082,-9.053421020507812,2476.4945316314697
D4:22:CD:00:05:5D,175.70411682128906,-67.58592224121094,-117.31684875488281,0.5619910955429077,1.5507259368896484,1.5620899200439453,2476.5245320796967
D4:22:CD:00:05:6B,-135.24900817871094,-41.19631576538086,80.04985809326172,0.9630542993545532,0.3055293560028076,2.8065414428710938,2476.5245320796967
D4:22:CD:00:49:AA,-171.40159606933594,-73.88249969482422,90.08515930175781,-6.615166664123535,1.4382164478302002,8.060249328613281,2476.5245320796967
D4:22:CD:00:05:6E,23.21880531311035,60.31972885131836,-14.286582946777344,0.5303630828857422,3.0137476921081543,4.10944938659668,2476.5245320796967
D4:22:CD:00:05:5E,-157.20494079589844,-9.042030334472656,-55.623592376708984,6.513845443725586,-6.670702934265137,-9.395065307617188,2476.5245320796967
D4:22:CD:00:05:5D,178.0061798095703,-66.49272155761719,-118.31501007080078,0.7787325382232666,1.4701471328735352,1.9477062225341797,2476.5545313358307
D4:22:CD:00:05:6B,-136.0858154296875,-42.43331527709961,78.74115753173828,-0.3214261531829834,2.3096981048583984,3.1358871459960938,2476.5545313358307
D4:22:CD:00:49:AA,-173.5865936279297,-74.53583526611328,92.88645935058594,-3.0930075645446777,2.3002986907958984,5.530503273010254,2476.5545313358307
D4:22:CD:00:05:6E,30.766849517822266,51.145973205566406,-6.616931915283203,-4.098965644836426,-15.925371170043945,-4.330897331237793,2476.5545313358307
D4:22:CD:00:05:5E,-158.79666137695312,-16.269569396972656,-52.799625396728516,14.498098373413086,-6.943320274353027,-9.432806015014648,2476.5545313358307
D4:22:CD:00:05:5D,179.06924438476562,-66.6931381225586,-119.06517028808594,-0.3124094009399414,1.1291062831878662,0.9889316558837891,2476.585086107254
D4:22:CD:00:05:6B,-139.9284210205078,-43.665531158447266,78.60482025146484,3.0134639739990234,5.615553855895996,-0.4376955032348633,2476.585086107254
D4:22:CD:00:49:AA,-179.52084350585938,-75.013671875,99.00493621826172,-1.0352363586425781,3.5007266998291016,0.4107475280761719,2476.585086107254
D4:22:CD:00:05:6E,50.160945892333984,38.801570892333984,-2.019179105758667,0.5388935804367065,12.369209289550781,-10.258209228515625,2476.585086107254
D4:22:CD:00:05:5E,-153.20132446289062,-23.876842498779297,-51.919464111328125,-4.75126838684082,-8.444631576538086,42.53484344482422,2476.585086107254
D4:22:CD:00:05:5D,-178.72311401367188,-67.47769165039062,-120.62055206298828,-1.6077313423156738,0.500442624092102,0.8195438385009766,2476.6450724601746
D4:22:CD:00:05:6B,-151.22056579589844,-44.83771896362305,77.00637817382812,-7.211478233337402,7.652531623840332,-0.03452014923095703,2476.6450724601746
D4:22:CD:00:49:AA,173.38470458984375,-74.94194030761719,105.74763488769531,-1.5449872016906738,1.3570995330810547,-0.5959110260009766,2476.6450724601746
D4:22:CD:00:05:6E,58.10331344604492,22.62618064880371,0.528351366519928,8.412418365478516,8.657392501831055,-8.63743782043457,2476.6450724601746
D4:22:CD:00:05:5E,-149.85400390625,-26.139448165893555,-51.82331085205078,2.1329355239868164,-4.079620361328125,-5.992596626281738,2476.6450724601746
D4:22:CD:00:05:5D,-176.96282958984375,-67.95988464355469,-121.49812316894531,-1.803140640258789,-1.1445024013519287,-0.019835472106933594,2476.6746208667755
D4:22:CD:00:05:6B,-155.4727020263672,-47.13740921020508,74.27799987792969,-6.078873634338379,7.6177825927734375,-4.699579238891602,2476.6746208667755
D4:22:CD:00:49:AA,166.58688354492188,-74.74269104003906,111.96439361572266,-1.4136755466461182,-0.2513461112976074,-2.353116512298584,2476.6746208667755
D4:22:CD:00:05:6E,54.67429733276367,4.098156452178955,4.006552219390869,14.622982025146484,5.0022993087768555,-5.167635917663574,2476.6746208667755
D4:22:CD:00:05:5E,-155.72874450683594,-28.289548873901367,-51.51546859741211,6.324498176574707,-2.986377239227295,-6.052768707275391,2476.6746208667755
D4:22:CD:00:05:5D,-176.1953125,-67.52323150634766,-118.92526245117188,-1.2339086532592773,-3.776468276977539,-0.5231828689575195,2476.7047193050385
D4:22:CD:00:05:6B,-157.19020080566406,-49.78359603881836,70.22547912597656,-3.8064584732055664,6.704144477844238,-7.279909133911133,2476.7047193050385
D4:22:CD:00:49:AA,160.0391387939453,-74.34014892578125,118.1196517944336,0.2886963486671448,-0.13266229629516602,-4.645369529724121,2476.7047193050385
D4:22:CD:00:05:6E,41.49177932739258,-13.943205833435059,11.215217590332031,25.47719955444336,6.2023420333862305,-0.40374279022216797,2476.7047193050385
D4:22:CD:00:05:5E,-161.4385528564453,-30.403060913085938,-52.716583251953125,15.500997543334961,-8.311943054199219,2.498088836669922,2476.7047193050385
D4:22:CD:00:05:5D,-177.57342529296875,-65.62115478515625,-112.37496185302734,-1.494307041168213,-5.049650192260742,1.3662891387939453,2476.734718799591
D4:22:CD:00:05:6B,-157.5774688720703,-52.720947265625,65.6901626586914,-3.1189956665039062,5.940688133239746,-7.969260215759277,2476.734718799591
D4:22:CD:00:49:AA,155.0765838623047,-73.5687026977539,123.1478500366211,-1.1534972190856934,-1.2898740768432617,-5.8933868408203125,2476.734718799591
D4:22:CD:00:05:6E,24.851903915405273,-24.64182472229004,20.88063621520996,18.60605239868164,7.7738189697265625,4.163980484008789,2476.734718799591
D4:22:CD:00:05:5E,-162.19281005859375,-31.216754913330078,-53.25587844848633,7.028021812438965,-10.80201530456543,-3.029444694519043,2476.734718799591
