Device,EulerX,EulerY,EulerZ,FreeAccX,FreeAccY,FreeAccZ,Timestamp
D4:22:CD:00:05:5D,-166.9044952392578,-68.50055694580078,-80.04193878173828,-2.136467456817627,-5.956852912902832,10.45667839050293,507.8844470977783
D4:22:CD:00:05:6B,-17.04175567626953,18.325159072875977,-48.3724365234375,-1.6154911518096924,-4.4052839279174805,-4.8605146408081055,507.8844470977783
D4:22:CD:00:49:AA,173.44683837890625,-68.9964828491211,117.69902038574219,-4.41999626159668,-2.290231227874756,-5.369804382324219,507.8844470977783
D4:22:CD:00:05:6E,89.5238037109375,-42.80535125732422,58.50638961791992,-8.083517074584961,-4.989404678344727,-3.6439127922058105,507.8844470977783
D4:22:CD:00:05:5E,-139.2884979248047,-74.2420883178711,-45.636940002441406,-5.974620819091797,-1.1275734901428223,1.565342903137207,507.8844470977783
D4:22:CD:00:05:5D,-159.20864868164062,-74.51463317871094,-91.78575897216797,0.3791007399559021,-12.698375701904297,4.951475143432617,507.89677333831787
D4:22:CD:00:05:6B,-11.639519691467285,23.93684196472168,-46.348690032958984,-0.7912969589233398,0.07249590754508972,-7.188360214233398,507.89677333831787
D4:22:CD:00:49:AA,177.4386444091797,-67.41639709472656,117.69424438476562,-2.0133109092712402,-0.19006511569023132,-5.07395076751709,507.89677333831787
D4:22:CD:00:05:6E,93.17642974853516,-47.98249435424805,58.66215896606445,-8.055730819702148,-2.158092975616455,-7.4283552169799805,507.89677333831787
D4:22:CD:00:05:5E,-101.67483520507812,-81.14253234863281,-88.22343444824219,-10.736074447631836,1.897425651550293,-0.6042156219482422,507.89677333831787
D4:22:CD:00:05:5D,-156.45327758789062,-79.2604751586914,-98.54692077636719,2.251404285430908,0.7464427947998047,-7.618109703063965,507.9077661037445
D4:22:CD:00:05:6B,-4.880748271942139,28.446029663085938,-44.973087310791016,-3.2827038764953613,-5.466559410095215,-4.093523025512695,507.9077661037445
D4:22:CD:00:49:AA,179.10707092285156,-67.8967514038086,118.40946960449219,0.5189692974090576,1.2071630954742432,-10.05807113647461,507.9077661037445
D4:22:CD:00:05:6E,102.54287719726562,-53.000484466552734,57.475502014160156,4.213780403137207,2.7827486991882324,-8.090343475341797,507.9077661037445
D4:22:CD:00:05:5E,-52.40074157714844,-78.91822052001953,-140.20191955566406,-14.980499267578125,2.209411144256592,-7.794256210327148,507.9077661037445
D4:22:CD:00:05:6B,5.378767490386963,32.89012908935547,-45.1360969543457,-1.600344181060791,0.3502892255783081,-6.535122871398926,507.92078137397766
D4:22:CD:00:49:AA,-177.7762908935547,-69.83236694335938,118.43624877929688,-0.6770626306533813,0.012307748198509216,-11.122756958007812,507.92078137397766
D4:22:CD:00:05:6E,121.0545883178711,-54.8167724609375,63.667205810546875,3.4375925064086914,-9.39776611328125,-2.1478896141052246,507.92078137397766
D4:22:CD:00:05:5E,-38.65237808227539,-73.8403549194336,-155.3243865966797,-12.235221862792969,1.8614110946655273,-11.223062515258789,507.92078137397766
D4:22:CD:00:05:5D,-125.62913513183594,-70.66825103759766,-121.6025619506836,-2.061844825744629,0.5461664199829102,-0.9082298278808594,507.9297833442688
D4:22:CD:00:05:6B,-145.58050537109375,-48.4696044921875,-66.70295715332031,5.781177520751953,1.931826114654541,-5.196193695068359,507.9297833442688
D4:22:CD:00:49:AA,-136.44749450683594,-79.86620330810547,53.4653434753418,1.7251508235931396,0.5917717218399048,-4.664653778076172,507.9297833442688
D4:22:CD:00:05:5D,-139.20509338378906,-69.28931427001953,-106.58612823486328,-3.647439479827881,0.22883611917495728,-0.0797433853149414,507.9537613391876
D4:22:CD:00:05:6B,-136.45736694335938,-45.26527786254883,-82.56455993652344,7.180558204650879,-0.16741323471069336,-4.590418815612793,507.9537613391876
D4:22:CD:00:49:AA,-142.71295166015625,-83.13876342773438,58.734745025634766,2.4965367317199707,0.40711450576782227,-3.723238468170166,507.9537613391876
D4:22:CD:00:05:6E,112.29574584960938,-69.1733169555664,16.162593841552734,13.29623794555664,-7.458966255187988,-0.5626144409179688,507.9537613391876
D4:22:CD:00:05:5E,-91.26025390625,-71.03643798828125,-109.11071014404297,-2.6421022415161133,2.833223819732666,18.045726776123047,507.9537613391876
D4:22:CD:00:05:5D,-152.39096069335938,-66.89012145996094,-92.1146469116211,0.8690475225448608,0.5026558637619019,-0.35804080963134766,507.98427152633667
D4:22:CD:00:05:6B,-127.43299865722656,-38.95546340942383,-97.6182632446289,12.195161819458008,-1.5485143661499023,0.3897876739501953,507.98427152633667
D4:22:CD:00:49:AA,-164.42086791992188,-85.73846435546875,79.69425964355469,2.6591410636901855,0.7031906843185425,1.139892578125,507.98427152633667
D4:22:CD:00:05:6E,80.66290283203125,-63.06622314453125,42.92416763305664,-5.48307991027832,-7.813600540161133,5.805543899536133,507.98427152633667
D4:22:CD:00:05:5E,-78.74141693115234,-70.63719940185547,-120.00426483154297,-6.532259941101074,-0.5852742195129395,13.162775039672852,507.98427152633667
D4:22:CD:00:05:5D,-158.54200744628906,-63.64353942871094,-83.79240417480469,-7.086952209472656,-0.20131945610046387,0.7505664825439453,508.0149233341217
D4:22:CD:00:05:6B,-117.62358856201172,-30.178560256958008,-110.5739517211914,20.118534088134766,-5.22884464263916,2.838315010070801,508.0149233341217
D4:22:CD:00:49:AA,158.6014862060547,-86.76348114013672,116.88915252685547,2.051816940307617,-2.2416248321533203,10.967695236206055,508.0149233341217
D4:22:CD:00:05:6E,59.92444610595703,-56.48078536987305,56.51280975341797,13.367996215820312,2.1172595024108887,1.2252826690673828,508.0149233341217
D4:22:CD:00:05:5E,-107.20316314697266,-74.1703872680664,-91.84356689453125,-12.358434677124023,-5.8274688720703125,5.400971412658691,508.0149233341217
D4:22:CD:00:05:5D,-162.2251739501953,-60.254913330078125,-79.04593658447266,-4.231930732727051,-0.5867083072662354,1.2352361679077148,508.04436135292053
D4:22:CD:00:05:6B,-105.41191101074219,-18.282289505004883,-120.2441177368164,27.255882263183594,-12.491220474243164,13.107940673828125,508.04436135292053
D4:22:CD:00:49:AA,128.03561401367188,-86.86512756347656,147.83285522460938,-0.2432589828968048,-0.3027777671813965,11.44137954711914,508.04436135292053
D4:22:CD:00:05:6E,46.54935073852539,-59.5157356262207,73.8347396850586,7.759984970092773,5.744302749633789,7.699493408203125,508.04436135292053
D4:22:CD:00:05:5E,-157.4176788330078,-72.14376068115234,-41.97932434082031,-8.558149337768555,-1.4228825569152832,7.150217056274414,508.04436135292053
D4:22:CD:00:05:5D,-162.6237030029297,-57.75628662109375,-77.49103546142578,-3.405754566192627,2.7791171073913574,2.373480796813965,508.07387113571167
D4:22:CD:00:05:6B,-86.93265533447266,-2.6445398330688477,-127.08052062988281,21.23062515258789,-22.179855346679688,19.701934814453125,508.07387113571167
D4:22:CD:00:49:AA,125.44482421875,-87.29151916503906,150.35997009277344,2.914538860321045,3.315596580505371,11.210079193115234,508.07387113571167
D4:22:CD:00:05:6E,35.11478805541992,-63.09767150878906,86.55317687988281,-4.985099792480469,9.674478530883789,15.581979751586914,508.07387113571167
D4:22:CD:00:05:5E,-175.13565063476562,-65.20149230957031,-25.319183349609375,0.775959849357605,0.9009486436843872,13.161842346191406,508.07387113571167
D4:22:CD:00:05:5D,-161.01966857910156,-57.737762451171875,-78.69146728515625,-4.432743072509766,0.996239423751831,3.214181900024414,508.1038739681244
D4:22:CD:00:05:6B,-63.68213653564453,15.080779075622559,-130.01588439941406,1.1159024238586426,-18.198936462402344,19.36518096923828,508.1038739681244
D4:22:CD:00:49:AA,143.4982452392578,-85.89945983886719,131.99801635742188,2.270082473754883,-2.450404167175293,9.912982940673828,508.1038739681244
D4:22:CD:00:05:6E,22.790102005004883,-69.15026092529297,91.45488739013672,-6.1847028732299805,12.104433059692383,13.993581771850586,508.1038739681244
D4:22:CD:00:05:5E,-179.48397827148438,-63.22351837158203,-23.18831443786621,7.388374328613281,-2.415372371673584,7.2330780029296875,508.1038739681244
D4:22:CD:00:05:5D,-156.60208129882812,-59.881778717041016,-82.68110656738281,-5.147775650024414,0.8500901460647583,2.8331480026245117,508.1338794231415
D4:22:CD:00:05:6B,-43.01882553100586,31.198575973510742,-128.4560089111328,-10.389341354370117,-15.130697250366211,10.791799545288086,508.1338794231415
D4:22:CD:00:49:AA,158.4341583251953,-82.83736419677734,117.0850601196289,0.7571241855621338,-3.9953222274780273,9.015703201293945,508.1338794231415
D4:22:CD:00:05:6E,11.915461540222168,-76.32273864746094,98.09041595458984,-2.8856444358825684,3.909212112426758,13.423370361328125,508.1338794231415
D4:22:CD:00:05:5E,176.671142578125,-67.29319763183594,-23.191226959228516,1.7036690711975098,-5.699909210205078,0.11326217651367188,508.1338794231415
D4:22:CD:00:05:5D,-148.9817352294922,-63.6563720703125,-90.87451171875,-7.84946346282959,-2.6448187828063965,5.2252702713012695,508.19439935684204
D4:22:CD:00:05:6B,-24.789979934692383,43.4032096862793,-125.65229034423828,-8.870870590209961,-10.558448791503906,-4.089895248413086,508.19439935684204
D4:22:CD:00:49:AA,163.09080505371094,-81.02506256103516,113.61138153076172,0.6729775667190552,-1.1309967041015625,2.3528709411621094,508.19439935684204
D4:22:CD:00:05:6E,0.15087856352329254,-80.55375671386719,117.96758270263672,-5.577688217163086,2.7658028602600098,3.3757781982421875,508.19439935684204
D4:22:CD:00:05:5E,171.7666473388672,-72.30614471435547,-17.88750457763672,11.725912094116211,2.9892168045043945,2.079904556274414,508.19439935684204
D4:22:CD:00:05:5D,-140.76400756835938,-68.85025024414062,-99.1573257446289,-5.766829490661621,-10.089540481567383,6.842172622680664,508.2243981361389
D4:22:CD:00:05:6B,-11.77509593963623,52.696773529052734,-121.9223861694336,-4.1561279296875,-6.089873313903809,-7.181224822998047,508.2243981361389
D4:22:CD:00:49:AA,169.422119140625,-79.79263305664062,110.00769805908203,-3.023834705352783,-0.5562901496887207,-4.205460548400879,508.2243981361389
D4:22:CD:00:05:6E,-19.12821388244629,-81.08738708496094,150.7900390625,-9.785602569580078,2.602142333984375,-5.387982368469238,508.2243981361389
D4:22:CD:00:05:5E,171.72459411621094,-80.79350280761719,-11.967586517333984,4.3798112869262695,6.066465377807617,-1.4820585250854492,508.2243981361389
D4:22:CD:00:05:5D,-129.60182189941406,-74.45343017578125,-110.93266296386719,0.02860920876264572,-12.8402099609375,1.9274368286132812,508.2537090778351
D4:22:CD:00:05:6B,-2.664830446243286,59.19572067260742,-115.25994873046875,-1.5345876216888428,-2.156313896179199,-7.6077985763549805,508.2537090778351
D4:22:CD:00:49:AA,178.34303283691406,-77.75348663330078,105.5208740234375,-4.953103065490723,-1.345667839050293,-7.064382553100586,508.2537090778351
D4:22:CD:00:05:6E,-32.37040328979492,-78.90377807617188,176.68954467773438,-8.676454544067383,1.9072904586791992,-8.303977966308594,508.2537090778351
D4:22:CD:00:05:5E,79.35025024414062,-89.20549774169922,86.46562194824219,1.5810983180999756,3.7227683067321777,-3.846440315246582,508.2537090778351
D4:22:CD:00:05:5D,-129.12081909179688,-80.09273529052734,-109.67143249511719,-4.988012313842773,8.424068450927734,-10.171243667602539,508.28449058532715
D4:22:CD:00:05:6B,2.137617588043213,63.19377136230469,-107.81725311279297,-1.5257153511047363,0.4098912477493286,-7.003417015075684,508.28449058532715
D4:22:CD:00:49:AA,-175.78521728515625,-75.56178283691406,104.55448150634766,-2.3022375106811523,1.1549763679504395,-9.2445068359375,508.28449058532715
D4:22:CD:00:05:6E,-33.03657531738281,-75.62571716308594,-167.6167755126953,-8.783926010131836,0.7619872093200684,-8.72634506225586,508.28449058532715
D4:22:CD:00:05:5E,8.213767051696777,-80.25643920898438,161.4870147705078,-1.3193490505218506,1.7820134162902832,-3.1368818283081055,508.28449058532715
D4:22:CD:00:05:5D,-167.8612823486328,-82.24706268310547,-70.98820495605469,-3.67509126663208,-2.824824810028076,-4.512600898742676,508.3145158290863
D4:22:CD:00:05:6B,0.18104615807533264,66.56790161132812,-110.14044952392578,-0.11948561668395996,2.234614849090576,-6.495619773864746,508.3145158290863
D4:22:CD:00:49:AA,-171.951904296875,-75.07815551757812,103.86939239501953,0.8570073843002319,0.6488617658615112,-12.428159713745117,508.3145158290863
D4:22:CD:00:05:6E,-23.9044189453125,-72.33674621582031,-158.89590454101562,-9.011224746704102,-3.648062229156494,-10.909631729125977,508.3145158290863
D4:22:CD:00:05:5E,4.653913497924805,-70.52838134765625,164.80899047851562,-7.519682884216309,-0.571774959564209,-5.6045942306518555,508.3145158290863
D4:22:CD:00:05:5D,153.33102416992188,-81.31881713867188,-27.30815887451172,11.210155487060547,-1.6415519714355469,-11.391098022460938,508.3445053100586
D4:22:CD:00:05:6B,-12.094417572021484,66.62794494628906,-132.18971252441406,6.151096343994141,2.2607903480529785,-6.72507381439209,508.3445053100586
D4:22:CD:00:49:AA,-169.73329162597656,-75.85708618164062,105.82257080078125,1.9430515766143799,0.11675834655761719,-8.410758972167969,508.3445053100586
D4:22:CD:00:05:6E,-17.00806999206543,-69.86847686767578,-152.4607391357422,-4.713686943054199,-7.131555557250977,-11.358074188232422,508.3445053100586
D4:22:CD:00:05:5E,-0.6192151308059692,-62.24059295654297,166.26170349121094,-11.923141479492188,1.7004752159118652,-10.34446907043457,508.3445053100586
D4:22:CD:00:05:5D,137.4651336669922,-79.87235260009766,0.13396967947483063,13.528608322143555,10.419281005859375,-8.533872604370117,508.3740382194519
D4:22:CD:00:05:6B,-28.442346572875977,57.951690673828125,-160.30166625976562,-0.5212845802307129,-0.8266412019729614,-13.235000610351562,508.3740382194519
D4:22:CD:00:49:AA,-167.86158752441406,-77.68441772460938,107.91181945800781,-0.632886528968811,-1.4479479789733887,-6.1881256103515625,508.3740382194519
D4:22:CD:00:05:6E,-14.786401748657227,-68.45154571533203,-147.1083526611328,-0.7476309537887573,-5.6845197677612305,-10.184730529785156,508.3740382194519
D4:22:CD:00:05:5E,-6.165821075439453,-55.68364715576172,167.3873748779297,-15.403301239013672,-0.8180068731307983,-11.833654403686523,508.3740382194519
D4:22:CD:00:05:5D,140.2134552001953,-77.71434783935547,3.934602737426758,0.0870913714170456,10.578292846679688,-1.0501232147216797,508.4041244983673
D4:22:CD:00:05:6B,-40.40718078613281,41.595359802246094,-176.9045867919922,-17.355945587158203,4.763681411743164,-30.78937530517578,508.4041244983673
D4:22:CD:00:49:AA,-160.5916290283203,-79.31360626220703,104.50130462646484,0.30288851261138916,-1.7139601707458496,-4.487760543823242,508.4041244983673
D4:22:CD:00:05:6E,-13.688690185546875,-67.53237915039062,-143.0893096923828,1.4822771549224854,-5.505517959594727,-7.499543190002441,508.4041244983673
D4:22:CD:00:05:5E,-9.872474670410156,-51.163936614990234,168.20486450195312,-18.388477325439453,2.6609749794006348,-12.47507095336914,508.4041244983673
D4:22:CD:00:05:5D,146.11102294921875,-74.63394165039062,-2.0305538177490234,6.481797218322754,2.781191825866699,-1.5673742294311523,508.4336566925049
D4:22:CD:00:05:6B,-29.161598205566406,31.19850730895996,169.50808715820312,-25.088146209716797,25.72637176513672,-11.03608512878418,508.4336566925049
D4:22:CD:00:49:AA,-158.88290405273438,-78.53121185302734,106.08287811279297,4.25117301940918,2.5649800300598145,2.250761032104492,508.4336566925049
D4:22:CD:00:05:6E,-11.916451454162598,-66.24674224853516,-140.39016723632812,-0.8865045309066772,-7.775754928588867,-1.8652081489562988,508.4336566925049
D4:22:CD:00:05:5E,-13.015767097473145,-50.36640930175781,168.88528442382812,-14.943412780761719,0.2459503710269928,-19.846309661865234,508.4336566925049
D4:22:CD:00:05:5D,148.1029815673828,-70.32170867919922,-3.2054436206817627,-0.12503895163536072,-4.953157424926758,3.2322521209716797,508.4939639568329
D4:22:CD:00:05:6B,-29.748247146606445,36.53989791870117,173.86965942382812,30.20879364013672,-10.801107406616211,-13.968101501464844,508.4939639568329
D4:22:CD:00:49:AA,-165.6404266357422,-77.86188507080078,111.03368377685547,-0.44905805587768555,-0.5914438962936401,2.0239953994750977,508.4939639568329
D4:22:CD:00:05:6E,-9.41805362701416,-65.22331237792969,-137.0968017578125,-2.3577866554260254,-9.184284210205078,-0.7824010848999023,508.4939639568329
D4:22:CD:00:05:5E,-21.220123291015625,-54.905555725097656,171.45513916015625,-16.25433349609375,2.4515795707702637,-18.610076904296875,508.4939639568329
D4:22:CD:00:05:5D,147.83778381347656,-66.93643951416016,-1.8713738918304443,-1.7889256477355957,-0.8364851474761963,4.24178409576416,508.5272011756897
D4:22:CD:00:05:6B,-47.35017395019531,46.99353790283203,-161.69204711914062,-17.337718963623047,13.360816955566406,-9.22903823852539,508.5272011756897
D4:22:CD:00:49:AA,-169.66941833496094,-78.79347229003906,113.76702880859375,-5.080405235290527,-0.5856215953826904,-0.5030460357666016,508.5272011756897
D4:22:CD:00:05:6E,-6.185201644897461,-65.4742431640625,-133.1627197265625,2.877537250518799,-8.336671829223633,-1.6990394592285156,508.5272011756897
D4:22:CD:00:05:5E,-35.59288787841797,-62.90550994873047,179.62017822265625,-7.341032028198242,1.754960060119629,8.101730346679688,508.5272011756897
D4:22:CD:00:05:5D,146.0145721435547,-65.95423889160156,0.5460582375526428,0.0033525964245200157,3.276271343231201,1.9327898025512695,508.55419993400574
D4:22:CD:00:05:6B,-36.78529739379883,52.225669860839844,-131.93540954589844,-20.612346649169922,4.870596885681152,-9.752840042114258,508.55419993400574
D4:22:CD:00:49:AA,-175.12802124023438,-78.99236297607422,118.3641357421875,-2.855123519897461,1.6414616107940674,3.116687774658203,508.55419993400574
D4:22:CD:00:05:6E,-6.3728203773498535,-67.11959075927734,-127.7160415649414,7.996932029724121,-9.836746215820312,-1.112320899963379,508.55419993400574
D4:22:CD:00:05:5E,-36.19636917114258,-67.5079116821289,-177.5159149169922,4.126542091369629,-10.421516418457031,6.40553092956543,508.55419993400574
D4:22:CD:00:05:5D,141.1377716064453,-66.06265258789062,4.692553997039795,1.1719295978546143,0.5185947418212891,2.4011125564575195,508.583833694458
D4:22:CD:00:05:6B,-21.040164947509766,48.315223693847656,-104.02452087402344,0.3576054573059082,-0.032854437828063965,-13.322946548461914,508.583833694458
D4:22:CD:00:49:AA,178.1077117919922,-78.03337860107422,122.34453582763672,3.0348920822143555,-2.3028383255004883,3.128870964050293,508.583833694458
D4:22:CD:00:05:6E,-17.655582427978516,-69.46817779541016,-119.3328628540039,9.792423248291016,-11.732791900634766,-3.1804261207580566,508.583833694458
D4:22:CD:00:05:5E,-29.03163719177246,-71.54747772216797,178.9673614501953,5.3174285888671875,4.190586090087891,18.36397933959961,508.583833694458
D4:22:CD:00:05:5D,135.09950256347656,-66.47677612304688,9.533872604370117,0.08399650454521179,-0.20263639092445374,3.0525245666503906,508.6138422489166
D4:22:CD:00:05:6B,-16.307268142700195,39.857303619384766,-85.47246551513672,-5.215744972229004,-3.4886903762817383,-1.3993730545043945,508.6138422489166
D4:22:CD:00:49:AA,172.78077697753906,-77.00730895996094,124.16162872314453,0.21324005722999573,-1.9754042625427246,0.24491024017333984,508.6138422489166
D4:22:CD:00:05:6E,-39.90721893310547,-72.04217529296875,-109.39703369140625,5.608851432800293,-10.094766616821289,-0.43647289276123047,508.6138422489166
D4:22:CD:00:05:5E,-32.6303825378418,-76.06144714355469,-177.6230926513672,-6.702278137207031,-0.8778640031814575,-11.36271858215332,508.6138422489166
D4:22:CD:00:05:5D,128.37109375,-66.83895111083984,15.146957397460938,4.225679397583008,2.062716484069824,3.661250114440918,508.6438293457031
D4:22:CD:00:05:6B,-14.260436058044434,30.708541870117188,-73.68012237548828,4.10761833190918,-1.8796648979187012,-0.09646797180175781,508.6438293457031
D4:22:CD:00:49:AA,168.2205352783203,-75.14045715332031,125.07048797607422,0.11850522458553314,-3.656311511993408,3.5119810104370117,508.6438293457031
D4:22:CD:00:05:6E,-62.852516174316406,-74.6252212524414,-101.47879791259766,1.856693983078003,-4.046377182006836,3.1091270446777344,508.6438293457031
D4:22:CD:00:05:5E,-36.257442474365234,-80.56758117675781,-172.78253173828125,-5.406930923461914,0.2581557631492615,0.7292613983154297,508.6438293457031
D4:22:CD:00:05:5D,120.80265045166016,-67.07537841796875,20.85384178161621,1.9344878196716309,1.5994901657104492,3.4677181243896484,508.6745705604553
D4:22:CD:00:05:6B,-20.271196365356445,22.473207473754883,-64.86470794677734,6.171311378479004,0.5450930595397949,7.315057754516602,508.6745705604553
D4:22:CD:00:49:AA,168.0775146484375,-74.59077453613281,122.88748168945312,0.22816559672355652,2.4684438705444336,3.966841697692871,508.6745705604553
D4:22:CD:00:05:6E,-78.41275787353516,-76.58929443359375,-96.79820251464844,0.3691737651824951,-0.04018159210681915,4.706081390380859,508.6745705604553
D4:22:CD:00:05:5E,-47.43573760986328,-84.17526245117188,-161.7220916748047,-3.9783201217651367,5.102412223815918,1.6878089904785156,508.6745705604553
D4:22:CD:00:05:5D,106.041259765625,-68.23661041259766,29.09417152404785,3.6149110794067383,8.705337524414062,-0.2725639343261719,508.7045714855194
D4:22:CD:00:05:6B,-26.443653106689453,15.806642532348633,-59.113895416259766,5.143061637878418,-2.039017677307129,9.9019775390625,508.7045714855194
D4:22:CD:00:49:AA,167.32215881347656,-74.4485855102539,119.24768829345703,8.083379745483398,-0.5914114713668823,-0.12074756622314453,508.7045714855194
D4:22:CD:00:05:6E,-87.92485046386719,-78.78878021240234,-95.72527313232422,-2.7831053733825684,0.5822944641113281,4.41660213470459,508.7045714855194
D4:22:CD:00:05:5E,-73.20771026611328,-87.01948547363281,-136.766357421875,-2.722472667694092,1.208477258682251,0.3709697723388672,508.7045714855194
D4:22:CD:00:05:5D,102.28324127197266,-67.811279296875,19.649093627929688,-10.628005981445312,27.860183715820312,0.3548116683959961,508.733571767807
D4:22:CD:00:05:6B,-31.981185913085938,9.783934593200684,-56.97378921508789,2.2989487648010254,0.7484309673309326,-5.58858585357666,508.733571767807
D4:22:CD:00:49:AA,166.4342498779297,-74.23209381103516,115.59310913085938,5.287531852722168,2.489044189453125,0.8518705368041992,508.733571767807
D4:22:CD:00:05:6E,-90.5489501953125,-81.22492218017578,-100.0391616821289,-2.699350357055664,2.023758888244629,2.6823062896728516,508.733571767807
D4:22:CD:00:05:5E,-145.5742950439453,-88.31704711914062,-64.6341781616211,-3.2758841514587402,1.017737627029419,0.4046297073364258,508.733571767807
D4:22:CD:00:05:5D,118.78418731689453,-63.192569732666016,-5.658630847930908,3.6708412170410156,25.53066635131836,3.1748485565185547,508.794153213501
D4:22:CD:00:05:6B,-37.86921310424805,2.5702929496765137,-56.04106140136719,-2.2645716667175293,-3.723154067993164,-4.078886032104492,508.794153213501
D4:22:CD:00:49:AA,166.98837280273438,-75.44560241699219,111.96837615966797,-1.5978209972381592,3.3485231399536133,1.7586584091186523,508.794153213501
D4:22:CD:00:05:6E,-86.79656219482422,-83.5200424194336,-109.1148452758789,-5.358672142028809,4.689048767089844,1.103867530822754,508.794153213501
D4:22:CD:00:05:5E,158.57469177246094,-87.05682373046875,-8.647711753845215,-3.333622455596924,0.921109676361084,0.47020626068115234,508.794153213501
D4:22:CD:00:05:5D,134.2921600341797,-54.491127014160156,-26.939712524414062,6.421521186828613,11.262285232543945,0.3246326446533203,508.8242576122284
D4:22:CD:00:05:6B,-42.14644241333008,-5.728425979614258,-56.324668884277344,-0.5589814186096191,-2.5929226875305176,-4.87158203125,508.8242576122284
D4:22:CD:00:49:AA,171.3340301513672,-76.19597625732422,106.31301879882812,2.75313138961792,3.098886013031006,0.5540437698364258,508.8242576122284
D4:22:CD:00:05:6E,-75.76049041748047,-85.1672592163086,-122.42767333984375,-6.6957550048828125,4.845296859741211,1.1039228439331055,508.8242576122284
D4:22:CD:00:05:5E,139.6793975830078,-85.42949676513672,9.77287769317627,-3.013153076171875,0.5761550664901733,0.29840850830078125,508.8242576122284
D4:22:CD:00:05:5D,144.9027099609375,-44.36206817626953,-41.32203674316406,5.67252254486084,2.7263779640197754,-5.10261344909668,508.854257106781
D4:22:CD:00:05:6B,-45.821006774902344,-15.29372787475586,-58.66468048095703,-0.9526222944259644,-3.266528606414795,-4.108595848083496,508.854257106781
D4:22:CD:00:49:AA,179.1349639892578,-76.45000457763672,97.89306640625,4.057962417602539,1.7973051071166992,0.22533130645751953,508.854257106781
D4:22:CD:00:05:6E,-53.077720642089844,-85.71572875976562,-142.92074584960938,-6.20405387878418,2.7640938758850098,-0.8034858703613281,508.854257106781
D4:22:CD:00:05:5E,129.9150848388672,-83.79357147216797,18.1865234375,-2.3803348541259766,0.8269617557525635,-0.18416690826416016,508.854257106781
D4:22:CD:00:05:5D,155.72671508789062,-34.87076187133789,-51.070499420166016,5.704494476318359,2.352041721343994,-8.866535186767578,508.883900642395
D4:22:CD:00:05:6B,-47.22301483154297,-27.76807975769043,-63.20761489868164,-1.2265021800994873,-8.65218734741211,-0.5767545700073242,508.883900642395
D4:22:CD:00:49:AA,-173.52008056640625,-75.88251495361328,90.51004791259766,2.658249855041504,0.3611629009246826,-3.3349781036376953,508.883900642395
D4:22:CD:00:05:6E,-23.663698196411133,-85.25963592529297,-166.63800048828125,-5.9646100997924805,-0.40834492444992065,-2.7933950424194336,508.883900642395
D4:22:CD:00:05:5E,134.0316162109375,-81.72709655761719,11.970637321472168,-1.549347162246704,-0.6750593185424805,-0.2689046859741211,508.883900642395
D4:22:CD:00:05:5D,167.41993713378906,-27.89504623413086,-58.858917236328125,3.4347915649414062,-2.097137451171875,-7.777737617492676,508.91439032554626
D4:22:CD:00:05:6B,-44.26130294799805,-43.5622444152832,-71.59972381591797,0.6734600067138672,-19.648967742919922,17.348594665527344,508.91439032554626
D4:22:CD:00:49:AA,-166.18289184570312,-74.7783432006836,83.77091979980469,-0.5180948972702026,-2.6433067321777344,-4.971170425415039,508.91439032554626
D4:22:CD:00:05:6E,1.582650899887085,-83.58935546875,173.42633056640625,-4.806048393249512,-4.249417304992676,-1.8235325813293457,508.91439032554626
D4:22:CD:00:05:5E,142.8902130126953,-79.40470886230469,1.5128045082092285,0.12507057189941406,-1.4294960498809814,0.6589183807373047,508.91439032554626
D4:22:CD:00:05:5D,175.5576629638672,-24.577367782592773,-66.06217956542969,-0.47280341386795044,-7.699908256530762,-9.705221176147461,508.94439029693604
D4:22:CD:00:05:6B,-36.48016357421875,-58.313724517822266,-86.15229034423828,2.2706661224365234,-20.087677001953125,26.10104751586914,508.94439029693604
D4:22:CD:00:49:AA,-159.46505737304688,-73.9919662475586,78.65739440917969,-3.3150758743286133,-2.072331428527832,-5.102550506591797,508.94439029693604
D4:22:CD:00:05:6E,19.5070743560791,-80.09098815917969,157.6971435546875,-2.385863780975342,-4.873302459716797,1.6926279067993164,508.94439029693604
D4:22:CD:00:05:5E,151.12266540527344,-77.11984252929688,-7.024720668792725,-3.401073932647705,0.7272940874099731,-2.9397354125976562,508.94439029693604
D4:22:CD:00:05:5D,176.7587127685547,-26.09596061706543,-72.46810150146484,-8.828113555908203,-13.003681182861328,-3.403233528137207,508.9741470813751
D4:22:CD:00:05:6B,-47.03959655761719,-64.06400299072266,-84.74317169189453,16.126224517822266,4.699313163757324,3.1053457260131836,508.9741470813751
D4:22:CD:00:49:AA,-153.2022705078125,-73.56453704833984,75.19026947021484,1.9888744354248047,1.154594898223877,-2.2096567153930664,508.9741470813751
D4:22:CD:00:05:6E,33.318180084228516,-73.73432922363281,145.10096740722656,1.911771297454834,-3.7119765281677246,2.2555532455444336,508.9741470813751
D4:22:CD:00:05:5E,154.2276611328125,-75.40611267089844,-9.229393005371094,-1.0394701957702637,-2.2497425079345703,-1.3022613525390625,508.9741470813751
D4:22:CD:00:05:5D,172.1719207763672,-29.322784423828125,-75.56950378417969,-1.593933343887329,-28.350414276123047,-5.548199653625488,509.0042963027954
D4:22:CD:00:05:6B,-49.562992095947266,-61.102210998535156,-73.92666625976562,-5.827177047729492,8.061416625976562,-1.646169662475586,509.0042963027954
D4:22:CD:00:49:AA,-148.93800354003906,-73.61009979248047,71.89024353027344,6.004697799682617,1.7345008850097656,0.23035335540771484,509.0042963027954
D4:22:CD:00:05:6E,44.64006042480469,-62.784889221191406,137.60484313964844,9.707159042358398,3.246591567993164,7.510658264160156,509.0042963027954
D4:22:CD:00:05:5E,156.97581481933594,-73.30106353759766,-10.891434669494629,-4.550022125244141,-1.719167947769165,-0.7368068695068359,509.0042963027954
D4:22:CD:00:05:5D,177.531982421875,-32.655460357666016,-74.11679077148438,-16.930583953857422,-22.978702545166016,15.429134368896484,509.0342855453491
D4:22:CD:00:05:6B,-39.128746032714844,-52.65568923950195,-64.7754135131836,-2.4880599975585938,-21.849609375,17.101680755615234,509.0342855453491
D4:22:CD:00:49:AA,-146.30377197265625,-74.85346984863281,68.31084442138672,-1.7102670669555664,3.161561965942383,4.005423545837402,509.0342855453491
D4:22:CD:00:05:6E,61.00923156738281,-46.440311431884766,137.06570434570312,6.98459529876709,-0.11626975238323212,1.066476821899414,509.0342855453491
D4:22:CD:00:05:5E,157.91278076171875,-71.16455078125,-10.347367286682129,-1.6512439250946045,1.598137617111206,1.647475242614746,509.0342855453491
D4:22:CD:00:05:5D,-177.2037811279297,-29.758590698242188,-69.83808898925781,-0.6141116619110107,-22.79615020751953,6.8296661376953125,509.0940556526184
D4:22:CD:00:05:6B,-31.121829986572266,-42.608924865722656,-62.46284484863281,9.466262817382812,-18.887699127197266,0.3645591735839844,509.0940556526184
D4:22:CD:00:49:AA,-146.53036499023438,-75.83696746826172,68.1243896484375,3.937727451324463,1.3344550132751465,8.311038970947266,509.0940556526184
D4:22:CD:00:05:6E,76.90518188476562,-27.250633239746094,135.3763427734375,8.61279296875,-32.07453155517578,35.30225372314453,509.0940556526184
D4:22:CD:00:05:5E,156.1445770263672,-69.98297119140625,-7.429000377655029,-4.294868469238281,2.474884510040283,2.060492515563965,509.0940556526184
D4:22:CD:00:05:5D,-178.19847106933594,-26.098495483398438,-68.2601318359375,15.63953971862793,-14.813362121582031,11.298990249633789,509.12419152259827
D4:22:CD:00:05:6B,-34.60268020629883,-36.32294464111328,-64.51727294921875,5.713146209716797,-13.95254135131836,-1.3745336532592773,509.12419152259827
D4:22:CD:00:49:AA,-154.2379608154297,-76.44347381591797,74.18534088134766,8.794900894165039,0.7106404304504395,11.612176895141602,509.12419152259827
D4:22:CD:00:05:6E,78.43785858154297,-5.918358325958252,129.8966827392578,-5.900896072387695,-0.5708273649215698,25.710338592529297,509.12419152259827
D4:22:CD:00:05:5E,154.06582641601562,-70.2450942993164,-6.929883003234863,-4.758707046508789,-0.4873141050338745,1.613663673400879,509.12419152259827
D4:22:CD:00:05:5D,175.01344299316406,-22.71931266784668,-69.19976043701172,6.752084732055664,-27.931045532226562,5.094992637634277,509.15398836135864
D4:22:CD:00:05:6B,-42.5741081237793,-34.351715087890625,-69.97396087646484,-2.7145776748657227,-8.3172607421875,2.645345687866211,509.15398836135864
D4:22:CD:00:49:AA,-162.44009399414062,-77.75990295410156,78.88154602050781,2.4341840744018555,-0.6557517051696777,10.502311706542969,509.15398836135864
D4:22:CD:00:05:6E,79.67431640625,16.485443115234375,121.23915100097656,-12.029001235961914,4.182380676269531,13.796318054199219,509.15398836135864
D4:22:CD:00:05:5E,150.87106323242188,-72.02552032470703,-7.731351375579834,-3.193909168243408,0.46840089559555054,3.3895578384399414,509.15398836135864
D4:22:CD:00:05:5D,171.53591918945312,-24.817167282104492,-69.64396667480469,9.087190628051758,-3.1017165184020996,-3.502007484436035,509.18450689315796
D4:22:CD:00:05:6B,-48.1625862121582,-36.2236213684082,-77.7576675415039,-3.239884376525879,-4.366262435913086,4.126435279846191,509.18450689315796
D4:22:CD:00:49:AA,-171.6165008544922,-79.71851348876953,84.03016662597656,0.8550134897232056,1.0252501964569092,3.660879135131836,509.18450689315796
D4:22:CD:00:05:6E,78.96177673339844,35.84978103637695,110.22679901123047,-9.651449203491211,7.603695869445801,1.583456039428711,509.18450689315796
D4:22:CD:00:05:5E,141.64474487304688,-75.63066101074219,-3.024139642715454,3.997805118560791,4.39910888671875,9.294534683227539,509.18450689315796
D4:22:CD:00:05:5D,170.17776489257812,-31.510934829711914,-72.44950103759766,3.3441834449768066,-16.131324768066406,-14.709014892578125,509.2146031856537
D4:22:CD:00:05:6B,-51.59912109375,-40.189552307128906,-86.6959228515625,-2.933346748352051,-4.514196395874023,0.6042022705078125,509.2146031856537
D4:22:CD:00:49:AA,177.5286865234375,-80.34852600097656,90.8658676147461,2.781296730041504,1.3346216678619385,1.0783891677856445,509.2146031856537
D4:22:CD:00:05:6E,81.66094207763672,50.44051742553711,98.95269775390625,1.364546298980713,-0.6816974878311157,-8.27907943725586,509.2146031856537
D4:22:CD:00:05:5E,118.76752471923828,-79.12775421142578,21.702287673950195,6.824294090270996,9.16307258605957,4.944452285766602,509.2146031856537
D4:22:CD:00:05:5D,168.08795166015625,-44.80504608154297,-77.21827697753906,4.633070945739746,-8.839200973510742,-2.7147951126098633,509.2446029186249
D4:22:CD:00:05:6B,-55.021846771240234,-45.79180145263672,-96.14798736572266,-3.614377498626709,-3.1094117164611816,-1.9300627708435059,509.2446029186249
D4:22:CD:00:49:AA,169.19284057617188,-79.07017517089844,95.74951171875,2.9178643226623535,-0.03014245256781578,-3.6850099563598633,509.2446029186249
D4:22:CD:00:05:6E,92.26375579833984,59.82780456542969,93.03968811035156,-2.8761210441589355,4.631064414978027,-2.2349414825439453,509.2446029186249
D4:22:CD:00:05:5E,112.92827606201172,-81.26936340332031,22.547767639160156,1.3674883842468262,0.030899547040462494,-3.8910598754882812,509.2446029186249
D4:22:CD:00:05:5D,172.86228942871094,-61.30055236816406,-87.87823486328125,-1.2081093788146973,-5.855739593505859,3.5461244583129883,509.2741696834564
D4:22:CD:00:05:6B,-60.86587142944336,-51.908653259277344,-105.45269775390625,-3.310103416442871,-1.263270616531372,-2.7403154373168945,509.2741696834564
D4:22:CD:00:49:AA,165.5343475341797,-77.42501068115234,97.09050750732422,-0.42911940813064575,1.494091510772705,-7.317882537841797,509.2741696834564
D4:22:CD:00:05:6E,98.29448699951172,65.05751037597656,94.53411865234375,-3.2846646308898926,8.050544738769531,-5.143972396850586,509.2741696834564
D4:22:CD:00:05:5E,131.10516357421875,-83.61088562011719,-2.2081851959228516,-9.084999084472656,12.229686737060547,-7.166454315185547,509.2741696834564
D4:22:CD:00:05:5D,-160.81309509277344,-77.0174560546875,-121.95442199707031,-4.562769889831543,-2.357006072998047,10.134233474731445,509.3044378757477
D4:22:CD:00:05:6B,-67.16365814208984,-57.52059555053711,-114.82355499267578,-1.7257096767425537,0.4995197653770447,-3.6540956497192383,509.3044378757477
D4:22:CD:00:49:AA,165.133056640625,-76.6028060913086,95.64881896972656,-0.14916619658470154,1.729515790939331,-10.835880279541016,509.3044378757477
D4:22:CD:00:05:6E,101.12852478027344,66.0149917602539,103.19340515136719,1.618614673614502,-2.7953715324401855,-11.093984603881836,509.3044378757477
D4:22:CD:00:05:5E,-178.1763916015625,-82.3368148803711,-54.94028091430664,-2.209157943725586,-6.807852745056152,-9.502237319946289,509.3044378757477
D4:22:CD:00:05:5D,-77.00557708740234,-76.23059844970703,149.80552673339844,-11.48312759399414,10.219417572021484,12.83359146118164,509.3346846103668
D4:22:CD:00:05:6B,-68.38436889648438,-62.378971099853516,-125.69408416748047,0.5762271881103516,2.665297031402588,-4.06080436706543,509.3346846103668
D4:22:CD:00:49:AA,165.1256103515625,-76.22692108154297,93.9603042602539,3.054565906524658,0.4131067395210266,-8.891904830932617,509.3346846103668
D4:22:CD:00:05:6E,110.09803009033203,61.8619384765625,119.8346176147461,-3.2338919639587402,1.1657919883728027,-11.64567756652832,509.3346846103668
D4:22:CD:00:05:5E,-167.7655029296875,-79.0486068725586,-75.47541809082031,-9.222074508666992,-15.82498550415039,-14.628557205200195,509.3346846103668
D4:22:CD:00:05:5D,-44.55754470825195,-66.16989135742188,119.46465301513672,-3.516585350036621,27.224571228027344,-10.083246231079102,509.3940281867981
D4:22:CD:00:05:6B,-60.471771240234375,-66.17250061035156,-139.42747497558594,1.6692793369293213,2.972339630126953,-4.94111442565918,509.3940281867981
D4:22:CD:00:49:AA,160.56028747558594,-77.51663208007812,96.10134887695312,-0.8585175275802612,-1.7612457275390625,-7.661768913269043,509.3940281867981
D4:22:CD:00:05:6E,111.78168487548828,52.75537872314453,134.48138427734375,-21.316452026367188,1.4229257106781006,-14.131004333496094,509.3940281867981
D4:22:CD:00:05:5E,-173.816650390625,-75.12533569335938,-79.02136993408203,-4.762704849243164,2.6183524131774902,5.2083024978637695,509.3940281867981
D4:22:CD:00:05:5D,-33.06901931762695,-64.84805297851562,114.42292022705078,-5.721827507019043,23.80740737915039,-21.078933715820312,509.42402958869934
D4:22:CD:00:05:6B,-45.785797119140625,-68.14958953857422,-155.74351501464844,1.614408254623413,2.4528112411499023,-5.826949119567871,509.42402958869934
D4:22:CD:00:49:AA,153.0563201904297,-80.02513885498047,101.44952392578125,-4.675833702087402,-0.2482871115207672,-6.429786682128906,509.42402958869934
D4:22:CD:00:05:6E,99.27397918701172,42.81088638305664,142.01551818847656,-16.632713317871094,17.694507598876953,-21.887744903564453,509.42402958869934
D4:22:CD:00:05:5E,-173.58001708984375,-72.06854248046875,-78.18431854248047,-2.288623332977295,-1.1473982334136963,-6.263327598571777,509.42402958869934
D4:22:CD:00:05:5D,-24.330793380737305,-71.46839904785156,111.44666290283203,1.3326992988586426,19.53540802001953,-9.814685821533203,509.45404076576233
D4:22:CD:00:05:6B,-29.979965209960938,-67.60968017578125,-172.1394500732422,0.5229642391204834,1.2307159900665283,-7.299530029296875,509.45404076576233
D4:22:CD:00:49:AA,141.1481170654297,-82.50731658935547,111.45404815673828,-1.0497078895568848,-0.8429396152496338,-3.02952241897583,509.45404076576233
D4:22:CD:00:05:6E,97.50823211669922,44.536590576171875,143.28932189941406,9.698287963867188,-6.157461166381836,-20.284934997558594,509.45404076576233
D4:22:CD:00:05:5E,-170.94264221191406,-70.21324920654297,-76.5226821899414,-1.2134904861450195,-5.344703674316406,0.10858821868896484,509.45404076576233
D4:22:CD:00:05:5D,1.6884292364120483,-81.88091278076172,94.12649536132812,-3.3243751525878906,14.41815185546875,-0.31046485900878906,509.48366618156433
D4:22:CD:00:05:6B,-19.9548282623291,-65.2883071899414,175.183837890625,-1.9611780643463135,0.06759488582611084,-8.417829513549805,509.48366618156433
D4:22:CD:00:49:AA,137.8180389404297,-83.55138397216797,115.55245971679688,3.040588855743408,0.24717119336128235,-4.8797197341918945,509.48366618156433
D4:22:CD:00:05:6E,103.99312591552734,53.994869232177734,135.21551513671875,-7.356380462646484,10.442817687988281,1.0435657501220703,509.48366618156433
D4:22:CD:00:05:5E,-170.09274291992188,-67.40672302246094,-76.79415130615234,1.0042998790740967,-0.6819539070129395,4.641445159912109,509.48366618156433
D4:22:CD:00:05:5D,112.55158233642578,-83.16264343261719,-7.772904872894287,-4.364129066467285,3.4327149391174316,1.4033021926879883,509.5140714645386
D4:22:CD:00:05:6B,-19.906309127807617,-63.46023941040039,167.53277587890625,-3.2705445289611816,1.7442684173583984,-5.330573081970215,509.5140714645386
D4:22:CD:00:49:AA,141.24807739257812,-83.82308959960938,114.05575561523438,0.36584776639938354,0.9822263717651367,-0.503565788269043,509.5140714645386
D4:22:CD:00:05:6E,94.99022674560547,62.7293586730957,119.69742584228516,-7.958343505859375,4.994148254394531,-9.209600448608398,509.5140714645386
D4:22:CD:00:05:5E,-167.9465789794922,-65.76112365722656,-78.39791107177734,-7.838350296020508,-1.4219517707824707,6.324285507202148,509.5140714645386
D4:22:CD:00:05:5D,138.84385681152344,-74.0032730102539,-31.793933868408203,-5.6104936599731445,0.4680803418159485,-0.15883159637451172,509.54407143592834
D4:22:CD:00:05:6B,-24.870864868164062,-63.37255096435547,161.7017364501953,1.1684508323669434,4.936805725097656,-1.0707473754882812,509.54407143592834
D4:22:CD:00:49:AA,148.5948944091797,-84.30329895019531,108.00353240966797,3.6467981338500977,-0.44755619764328003,3.145700454711914,509.54407143592834
D4:22:CD:00:05:6E,61.65472412109375,69.25950622558594,82.64405059814453,-5.5872907638549805,2.9649486541748047,-17.417919158935547,509.54407143592834
D4:22:CD:00:05:5E,-164.81692504882812,-62.328285217285156,-81.04570007324219,-3.4553370475769043,5.148576736450195,0.6314973831176758,509.54407143592834
D4:22:CD:00:05:5D,140.14747619628906,-67.67781066894531,-34.335941314697266,12.343450546264648,-11.208026885986328,-6.301682472229004,509.5737659931183
D4:22:CD:00:05:6B,-25.000682830810547,-65.3548812866211,154.8501434326172,6.055011749267578,8.254524230957031,2.2957448959350586,509.5737659931183
D4:22:CD:00:49:AA,170.46316528320312,-83.86307525634766,87.8515396118164,9.865629196166992,-2.114375591278076,7.126955032348633,509.5737659931183
D4:22:CD:00:05:6E,26.12641716003418,64.98356628417969,41.15774154663086,-0.30232447385787964,5.931953430175781,-10.940286636352539,509.5737659931183
D4:22:CD:00:05:5E,-162.08151245117188,-61.24039077758789,-83.02455139160156,0.03277001529932022,0.9164597988128662,3.5249204635620117,509.5737659931183
D4:22:CD:00:05:5D,143.923583984375,-64.87397003173828,-34.38226318359375,6.088748931884766,2.5214438438415527,3.9959793090820312,509.6039607524872
D4:22:CD:00:05:6B,-17.793813705444336,-69.87850952148438,147.04481506347656,5.598990440368652,5.106834411621094,5.197620391845703,509.6039607524872
D4:22:CD:00:49:AA,-176.47210693359375,-83.0665283203125,75.65603637695312,8.708419799804688,2.2948718070983887,6.261043548583984,509.6039607524872
D4:22:CD:00:05:6E,11.21634578704834,53.50063705444336,18.59202766418457,-2.300239086151123,3.1902637481689453,-10.37066650390625,509.6039607524872
D4:22:CD:00:05:5E,-158.957275390625,-62.074527740478516,-85.44025421142578,-2.337238311767578,0.7242252826690674,2.4548158645629883,509.6039607524872
D4:22:CD:00:05:5D,148.72531127929688,-64.54145812988281,-39.12136459350586,1.098067283630371,-12.45452880859375,12.661605834960938,509.63395857810974
D4:22:CD:00:05:6B,-4.630869388580322,-75.99443817138672,138.3160858154297,5.948957443237305,1.7329392433166504,8.811891555786133,509.63395857810974
D4:22:CD:00:49:AA,-168.2884979248047,-81.53189086914062,66.99296569824219,1.9075300693511963,0.4635455012321472,5.8815717697143555,509.63395857810974
D4:22:CD:00:05:6E,7.5292487144470215,39.86556625366211,7.555867671966553,1.5268464088439941,-0.5152477025985718,-2.3440256118774414,509.63395857810974
D4:22:CD:00:05:5E,-154.16571044921875,-64.11735534667969,-90.02647399902344,-5.095368385314941,-1.7415847778320312,3.4031143188476562,509.63395857810974
D4:22:CD:00:05:5D,149.3809356689453,-64.19560241699219,-41.11942672729492,6.0322723388671875,-8.78598403930664,-3.5800342559814453,509.69462513923645
D4:22:CD:00:05:6B,15.09264850616455,-81.79055786132812,127.895263671875,2.380446434020996,1.7450151443481445,10.813989639282227,509.69462513923645
D4:22:CD:00:49:AA,-166.44862365722656,-79.40725708007812,66.41871643066406,-2.807894706726074,0.3612724542617798,6.083186149597168,509.69462513923645
D4:22:CD:00:05:6E,11.541038513183594,27.705209732055664,1.6170234680175781,2.6455397605895996,-8.580156326293945,4.357263565063477,509.69462513923645
D4:22:CD:00:05:5E,-141.77989196777344,-69.62154388427734,-100.07936096191406,-5.726122856140137,-4.297240257263184,-0.16705894470214844,509.69462513923645
D4:22:CD:00:05:5D,157.7274169921875,-63.96522903442383,-45.321617126464844,-6.884705543518066,3.7411603927612305,-0.3013620376586914,509.7246446609497
D4:22:CD:00:05:6B,18.008411407470703,-86.33627319335938,137.71170043945312,2.0757055282592773,1.703237771987915,8.58584976196289,509.7246446609497
D4:22:CD:00:49:AA,-169.59274291992188,-78.32713317871094,73.67111206054688,-3.341306686401367,2.643448829650879,0.4324951171875,509.7246446609497
D4:22:CD:00:05:6E,21.603496551513672,20.4665470123291,-1.0931941270828247,6.699151039123535,-22.932079315185547,13.375007629394531,509.7246446609497
D4:22:CD:00:05:5E,-125.14237213134766,-72.04159545898438,-108.54718017578125,-15.277750015258789,-0.16778668761253357,1.450301170349121,509.7246446609497
D4:22:CD:00:05:5D,164.9695587158203,-63.987979888916016,-49.45613479614258,1.5499382019042969,-3.083805561065674,2.701521873474121,509.754686832428
D4:22:CD:00:05:6B,-56.81676483154297,-84.67028045654297,-137.5832977294922,-3.380061626434326,-7.464858055114746,3.6731929779052734,509.754686832428
D4:22:CD:00:49:AA,-175.4435577392578,-76.76715087890625,82.62494659423828,-1.1631324291229248,-3.724639415740967,-1.7123174667358398,509.754686832428
D4:22:CD:00:05:6E,44.78099822998047,19.863122940063477,3.844975709915161,0.5986695289611816,-16.245853424072266,-8.116313934326172,509.754686832428
D4:22:CD:00:05:5E,-119.54004669189453,-71.02167510986328,-101.69695281982422,-37.52497100830078,7.405947685241699,-0.7132883071899414,509.754686832428
D4:22:CD:00:05:5D,170.64035034179688,-63.63811492919922,-52.54939651489258,-0.8081340789794922,-1.1529686450958252,1.1357574462890625,509.7841591835022
D4:22:CD:00:05:6B,-72.82122802734375,-78.13580322265625,-120.07597351074219,-2.8389711380004883,-10.20317268371582,-3.6836748123168945,509.7841591835022
D4:22:CD:00:49:AA,-177.46124267578125,-75.10140991210938,88.43179321289062,-3.621720790863037,-1.530900478363037,-0.8682069778442383,509.7841591835022
D4:22:CD:00:05:6E,66.61548614501953,18.229185104370117,12.788064956665039,-5.172411918640137,14.809307098388672,2.735626220703125,509.7841591835022
D4:22:CD:00:05:5E,-132.76023864746094,-64.97640991210938,-79.7592544555664,-21.493183135986328,-4.057226181030273,-1.675623893737793,509.7841591835022
D4:22:CD:00:05:5D,175.1042022705078,-63.376102447509766,-54.277957916259766,0.5509705543518066,-0.8750137090682983,0.1350269317626953,509.81437277793884
D4:22:CD:00:05:6B,-79.53872680664062,-71.22074127197266,-118.28120422363281,-0.8704855442047119,-4.5246477127075195,-3.8196868896484375,509.81437277793884
D4:22:CD:00:49:AA,178.37091064453125,-74.59587860107422,95.63745880126953,-2.1946516036987305,3.5503554344177246,-0.4074831008911133,509.81437277793884
D4:22:CD:00:05:6E,72.4459457397461,12.877671241760254,19.1546630859375,-8.645214080810547,6.087937355041504,-1.701324462890625,509.81437277793884
D4:22:CD:00:05:5E,-146.4752197265625,-57.05937194824219,-60.1317024230957,-7.726448059082031,-7.29393196105957,-9.026159286499023,509.81437277793884
D4:22:CD:00:05:5D,178.48683166503906,-63.37797546386719,-56.01028060913086,0.8520718812942505,-1.228102684020996,0.069732666015625,509.8736641407013
D4:22:CD:00:05:6B,-76.67081451416016,-65.749267578125,-121.74311065673828,-1.8742172718048096,-6.827818870544434,-2.651465892791748,509.8736641407013
D4:22:CD:00:49:AA,171.63894653320312,-75.1919937133789,103.06891632080078,0.42393726110458374,2.159454345703125,-2.0284299850463867,509.8736641407013
D4:22:CD:00:05:6E,72.18865966796875,2.965360641479492,21.586040496826172,-5.9247236251831055,2.1431899070739746,-8.355825424194336,509.8736641407013
D4:22:CD:00:05:5E,-159.43251037597656,-49.39321517944336,-44.68442916870117,1.7671189308166504,-6.907564163208008,-10.704261779785156,509.8736641407013
D4:22:CD:00:05:5D,-178.84774780273438,-63.177127838134766,-58.00393295288086,0.8489470481872559,-1.6639409065246582,-0.7166280746459961,509.8806748390198
D4:22:CD:00:05:6B,-70.92729187011719,-61.99576950073242,-125.76033020019531,-2.1583290100097656,-2.620713710784912,-5.163660049438477,509.8806748390198
D4:22:CD:00:49:AA,163.8302764892578,-75.54228973388672,110.61246490478516,-0.020578276365995407,-0.03908783197402954,-4.755927085876465,509.8806748390198
D4:22:CD:00:05:6E,71.33296203613281,-12.048666000366211,21.374483108520508,1.9760677814483643,2.7738728523254395,-6.892301559448242,509.8806748390198
D4:22:CD:00:05:5E,-169.94227600097656,-44.31467056274414,-33.13760757446289,6.003423690795898,-2.8217854499816895,-10.408468246459961,509.8806748390198
D4:22:CD:00:05:5D,-177.39024353027344,-62.08031463623047,-59.31422424316406,2.4954724311828613,-1.259584665298462,-1.390096664428711,509.9036726951599
D4:22:CD:00:05:6B,-70.56151580810547,-57.90922164916992,-127.53829193115234,-1.2375123500823975,-0.6969298124313354,-5.0560455322265625,509.9036726951599
D4:22:CD:00:49:AA,154.4063720703125,-75.67303466796875,119.34835052490234,-0.5209133625030518,0.31684553623199463,-5.938310623168945,509.9036726951599
D4:22:CD:00:05:6E,67.7239990234375,-30.560779571533203,22.788734436035156,12.25787353515625,-0.9340114593505859,10.8975830078125,509.9036726951599
D4:22:CD:00:05:5E,-177.91946411132812,-42.20911407470703,-23.580968856811523,13.344194412231445,-0.9379053115844727,-9.335466384887695,509.9036726951599
D4:22:CD:00:05:5D,-176.4945831298828,-59.9442253112793,-59.36182403564453,2.68440580368042,-0.9150890111923218,-1.482457160949707,509.9337773323059
D4:22:CD:00:05:6B,-72.76138305664062,-53.342926025390625,-128.9658966064453,-1.7440130710601807,1.34489107131958,-2.4870567321777344,509.9337773323059
D4:22:CD:00:49:AA,145.65353393554688,-75.28558349609375,127.39895629882812,0.07656949758529663,0.7377521991729736,-6.740273475646973,509.9337773323059
D4:22:CD:00:05:6E,46.72273635864258,-47.88496017456055,36.582984924316406,17.076488494873047,7.25767707824707,20.62960433959961,509.9337773323059
D4:22:CD:00:05:5E,-179.87286376953125,-43.83934020996094,-15.695712089538574,5.657566070556641,9.543167114257812,7.208745956420898,509.9337773323059
D4:22:CD:00:05:5D,-176.5410919189453,-57.07828903198242,-57.80725860595703,-0.8224029541015625,-0.8396563529968262,-0.14311981201171875,509.9943253993988
D4:22:CD:00:05:6B,-73.11962127685547,-49.2340087890625,-132.32656860351562,-4.232328414916992,-1.5574712753295898,-3.9076576232910156,509.9943253993988
D4:22:CD:00:49:AA,139.9407958984375,-74.18030548095703,132.2843780517578,1.571134328842163,0.5744873285293579,-4.577960968017578,509.9943253993988
D4:22:CD:00:05:6E,31.923593521118164,-56.46367645263672,53.47794723510742,-8.619165420532227,4.6007795333862305,26.148151397705078,509.9943253993988
D4:22:CD:00:05:5E,-174.1447296142578,-45.878238677978516,-12.855423927307129,12.29220199584961,7.844860076904297,10.790983200073242,509.9943253993988
D4:22:CD:00:05:5D,-177.16201782226562,-53.82343673706055,-55.24061965942383,1.4116413593292236,0.1827816665172577,-0.47324466705322266,510.0243968963623
D4:22:CD:00:05:6B,-76.88751220703125,-44.85032653808594,-137.75001525878906,-6.344852447509766,-1.2206714153289795,-6.868372917175293,510.0243968963623
D4:22:CD:00:49:AA,134.5454864501953,-72.74386596679688,137.18798828125,-2.5761375427246094,1.2981271743774414,2.979781150817871,510.0243968963623
D4:22:CD:00:05:6E,43.39646911621094,-54.167823791503906,48.566864013671875,22.179344177246094,-9.839366912841797,1.0040464401245117,510.0243968963623
D4:22:CD:00:05:5E,-174.45648193359375,-47.368934631347656,-14.164724349975586,15.437166213989258,4.914402008056641,8.843250274658203,510.0243968963623
D4:22:CD:00:05:5D,-178.00608825683594,-50.72481155395508,-53.0328483581543,-1.5604658126831055,-1.4680113792419434,0.6233425140380859,510.0543975830078
D4:22:CD:00:05:6B,-90.95182800292969,-38.01295471191406,-142.8924560546875,3.408226490020752,2.056756019592285,6.177519798278809,510.0543975830078
D4:22:CD:00:49:AA,130.7606201171875,-72.28168487548828,142.85049438476562,-5.906238555908203,0.7719957828521729,6.031000137329102,510.0543975830078
D4:22:CD:00:05:6E,71.05857849121094,-48.275848388671875,43.84174728393555,15.608661651611328,12.148551940917969,-11.989490509033203,510.0543975830078
D4:22:CD:00:05:5E,-176.03712463378906,-46.33088302612305,-17.548269271850586,11.096822738647461,2.1964058876037598,13.978315353393555,510.0543975830078
D4:22:CD:00:05:5D,-178.17372131347656,-48.13601303100586,-51.38709259033203,-0.6483356952667236,0.02386067807674408,0.7026195526123047,510.0845501422882
D4:22:CD:00:05:6B,-93.11656188964844,-31.422561645507812,-148.14002990722656,4.650038719177246,-18.098827362060547,22.039051055908203,510.0845501422882
D4:22:CD:00:49:AA,131.88827514648438,-71.84076690673828,144.38453674316406,0.13078323006629944,1.858443021774292,2.9960336685180664,510.0845501422882
D4:22:CD:00:05:6E,97.01349639892578,-39.22282028198242,45.78022766113281,-9.409852981567383,5.0863800048828125,24.843673706054688,510.0845501422882
D4:22:CD:00:05:5E,-176.44033813476562,-42.95802307128906,-20.49736976623535,11.974098205566406,-10.640892028808594,9.578128814697266,510.0845501422882
D4:22:CD:00:05:5D,-177.5318145751953,-46.56650161743164,-50.99406814575195,-1.1942853927612305,-0.7520689964294434,1.2633056640625,510.1145613193512
D4:22:CD:00:05:6B,-92.70941162109375,-21.049652099609375,-150.43746948242188,12.703203201293945,-4.446666717529297,24.912166595458984,510.1145613193512
D4:22:CD:00:49:AA,134.97515869140625,-71.39986419677734,141.92103576660156,3.4588537216186523,-0.08253371715545654,13.15806770324707,510.1145613193512
D4:22:CD:00:05:6E,92.35167694091797,-28.189735412597656,44.72858810424805,9.016267776489258,12.700424194335938,12.895013809204102,510.1145613193512
D4:22:CD:00:05:5E,-174.66648864746094,-40.131778717041016,-20.995071411132812,13.28703498840332,-13.049413681030273,9.344022750854492,510.1145613193512
