Device,EulerX,EulerY,EulerZ,FreeAccX,FreeAccY,FreeAccZ,Timestamp
D4:22:CD:00:05:5D,-173.98870849609375,-83.39128875732422,-129.35336303710938,0.6530988216400146,10.095069885253906,-11.339349746704102,1564.8209037780762
D4:22:CD:00:05:6B,39.77272415161133,38.357303619384766,-47.70336151123047,2.6468405723571777,9.248006820678711,-2.159494400024414,1564.8209037780762
D4:22:CD:00:49:AA,162.77928161621094,-70.88175964355469,122.91739654541016,-1.9594018459320068,-0.8394790887832642,-9.489322662353516,1564.8209037780762
D4:22:CD:00:05:6E,-68.2165756225586,-70.1177978515625,-123.03962707519531,3.1365699768066406,-2.7042126655578613,-5.189013481140137,1564.8209037780762
D4:22:CD:00:05:5E,-97.79092407226562,-56.27888870239258,-146.97885131835938,-29.278484344482422,-5.485889434814453,2.7128400802612305,1564.8209037780762
D4:22:CD:00:05:5D,178.4652862548828,-80.55352020263672,-124.33705139160156,0.5034173727035522,9.185306549072266,1.0444774627685547,1564.8299188613892
D4:22:CD:00:05:6B,29.240589141845703,36.76680374145508,-62.74324417114258,0.33132505416870117,-4.778154373168945,-5.3830976486206055,1564.8299188613892
D4:22:CD:00:49:AA,162.8072967529297,-72.1191177368164,124.772705078125,-3.3259096145629883,-0.4159640669822693,-5.1462907791137695,1564.8299188613892
D4:22:CD:00:05:6E,-46.786163330078125,-67.13765716552734,-134.11878967285156,-1.480804204940796,-6.431358337402344,-4.516998291015625,1564.8299188613892
D4:22:CD:00:05:5E,-96.36775970458984,-58.91047668457031,-157.70599365234375,-15.941669464111328,9.455877304077148,-4.000432968139648,1564.8299188613892
D4:22:CD:00:49:AA,163.1396484375,-71.92268371582031,125.54314422607422,-1.8730790615081787,-0.8764170408248901,0.9389152526855469,1564.8360013961792
D4:22:CD:00:05:6E,-31.188236236572266,-62.96428298950195,-141.72532653808594,-4.327119827270508,-12.10342025756836,-5.700944900512695,1564.8360013961792
D4:22:CD:00:05:5E,-89.58211517333984,-60.71735763549805,-158.68226623535156,-24.29462432861328,28.856822967529297,-16.590145111083984,1564.8360013961792
D4:22:CD:00:05:5D,-169.37423706054688,-80.76908111572266,-119.60419464111328,-0.280880868434906,6.829108238220215,-1.9320869445800781,1564.8391630649567
D4:22:CD:00:05:6B,-68.2994384765625,-5.5088372230529785,-60.375732421875,0.2627999782562256,4.612034797668457,14.335220336914062,1564.8391630649567
D4:22:CD:00:05:6E,-26.867122650146484,-58.87773895263672,-144.81271362304688,-3.569042205810547,-12.515357971191406,-8.660629272460938,1564.8391630649567
D4:22:CD:00:05:5E,-104.73407745361328,-60.01728439331055,-144.40756225585938,-12.907930374145508,-21.44428253173828,-4.345763206481934,1564.8391630649567
D4:22:CD:00:05:5D,-169.33755493164062,-47.52249526977539,-105.48632049560547,-3.2382988929748535,0.5225555896759033,2.4713878631591797,1564.843162536621
D4:22:CD:00:05:6B,-50.8421745300293,9.9520902633667,-53.68722152709961,4.309410095214844,-7.037440299987793,20.380210876464844,1564.843162536621
D4:22:CD:00:49:AA,-168.64117431640625,-71.12879943847656,107.74201202392578,2.68172025680542,5.173501014709473,8.792564392089844,1564.843162536621
D4:22:CD:00:05:5D,-172.7766571044922,-46.27773666381836,-101.25260925292969,-3.0520544052124023,-0.30101943016052246,1.1407413482666016,1564.8861577510834
D4:22:CD:00:05:6B,-36.492645263671875,10.937530517578125,-44.67230987548828,8.33095932006836,-15.373537063598633,20.691307067871094,1564.8861577510834
D4:22:CD:00:49:AA,-171.37997436523438,-75.26953125,110.87986755371094,1.5677087306976318,3.8428945541381836,7.267822265625,1564.8861577510834
D4:22:CD:00:05:6E,107.82521057128906,-71.76842498779297,41.36902618408203,-4.751191139221191,-3.697732925415039,15.350683212280273,1564.8861577510834
D4:22:CD:00:05:5E,162.593505859375,-67.80279541015625,-17.81607437133789,1.7456459999084473,-0.2278289794921875,12.430315017700195,1564.8861577510834
D4:22:CD:00:05:5D,-175.16448974609375,-46.82749557495117,-98.12054443359375,-2.0319747924804688,-0.4101131558418274,1.1489753723144531,1564.916585445404
D4:22:CD:00:05:6B,-20.51051902770996,5.749750137329102,-35.859825134277344,6.178031921386719,-15.381994247436523,13.654912948608398,1564.916585445404
D4:22:CD:00:49:AA,176.81112670898438,-77.67267608642578,123.30571746826172,-1.2375884056091309,-0.7655090093612671,6.117664337158203,1564.916585445404
D4:22:CD:00:05:6E,108.24320983886719,-60.76508712768555,44.00736999511719,-0.24220317602157593,-2.1003990173339844,9.142284393310547,1564.916585445404
D4:22:CD:00:05:5E,168.2025146484375,-65.43272399902344,-26.583295822143555,2.6715307235717773,-1.2799880504608154,7.490423202514648,1564.916585445404
D4:22:CD:00:05:5D,-176.42938232421875,-48.535926818847656,-96.15497589111328,-1.5864722728729248,-1.0797314643859863,0.9077472686767578,1564.9461266994476
D4:22:CD:00:05:6B,-4.607507228851318,2.402488946914673,-28.153228759765625,-0.07355833053588867,-15.860122680664062,6.674238204956055,1564.9461266994476
D4:22:CD:00:49:AA,174.9669647216797,-78.35986328125,128.04530334472656,-2.566152572631836,-1.9954259395599365,4.634243011474609,1564.9461266994476
D4:22:CD:00:05:6E,105.15909576416016,-55.346412658691406,48.979801177978516,3.6277284622192383,1.0608150959014893,-1.7015981674194336,1564.9461266994476
D4:22:CD:00:05:5E,173.0560302734375,-67.45094299316406,-32.68070602416992,6.412782669067383,9.017097473144531,0.6304311752319336,1564.9461266994476
D4:22:CD:00:05:5D,-176.212890625,-51.2199592590332,-95.50157928466797,-3.121657371520996,-0.5363117456436157,1.4700145721435547,1565.0066184997559
D4:22:CD:00:05:6B,7.9256439208984375,2.548384666442871,-23.43551254272461,1.8938069343566895,-9.476093292236328,2.8962154388427734,1565.0066184997559
D4:22:CD:00:49:AA,-179.9625701904297,-78.9524917602539,128.02210998535156,0.06021930277347565,-0.5453590154647827,6.554338455200195,1565.0066184997559
D4:22:CD:00:05:6E,103.34416961669922,-61.95478057861328,52.35931396484375,3.675464630126953,3.028959274291992,-1.797816276550293,1565.0066184997559
D4:22:CD:00:05:5E,-159.77745056152344,-70.57196044921875,-58.10198211669922,5.362527847290039,9.145944595336914,-3.659371852874756,1565.0066184997559
D4:22:CD:00:05:5D,-175.75387573242188,-54.99794387817383,-95.57061767578125,-3.849769115447998,-0.6927599906921387,1.8749685287475586,1565.0376546382904
D4:22:CD:00:05:6B,18.375530242919922,4.5748419761657715,-22.35352325439453,0.4747157096862793,-6.935452461242676,0.6197977066040039,1565.0376546382904
D4:22:CD:00:49:AA,-173.87631225585938,-79.64900207519531,127.36815643310547,2.005213737487793,0.21388423442840576,2.7655153274536133,1565.0376546382904
D4:22:CD:00:05:6E,107.07103729248047,-74.97335815429688,54.98296356201172,0.26826930046081543,0.5416134595870972,3.866525650024414,1565.0376546382904
D4:22:CD:00:05:5E,-125.72765350341797,-69.2994613647461,-91.24898529052734,7.134454727172852,6.681331634521484,-5.414892196655273,1565.0376546382904
D4:22:CD:00:05:5D,-175.461181640625,-59.98897933959961,-94.64059448242188,-5.715946197509766,-2.9882254600524902,3.3091087341308594,1565.0661399364471
D4:22:CD:00:05:6B,27.902454376220703,7.1218767166137695,-24.259531021118164,-2.1049461364746094,-4.2395830154418945,-2.226236343383789,1565.0661399364471
D4:22:CD:00:49:AA,-168.3267822265625,-80.61433410644531,126.34558868408203,1.1399285793304443,-0.15488356351852417,-4.823490142822266,1565.0661399364471
D4:22:CD:00:05:6E,-174.21563720703125,-88.21963500976562,-12.83769702911377,-6.865665435791016,-5.419492721557617,1.317133903503418,1565.0661399364471
D4:22:CD:00:05:5E,-95.40017700195312,-63.96242141723633,-120.47299194335938,4.828523635864258,2.891355514526367,-5.42903995513916,1565.0661399364471
D4:22:CD:00:05:5D,-176.0628204345703,-65.11310577392578,-92.04499053955078,-0.16053727269172668,-7.815036773681641,3.388148307800293,1565.0961601734161
D4:22:CD:00:05:6B,34.96793746948242,10.399018287658691,-28.083179473876953,-4.227370262145996,-0.9561995267868042,-6.5247602462768555,1565.0961601734161
D4:22:CD:00:49:AA,-165.0876922607422,-81.33431243896484,126.84738159179688,1.2625706195831299,0.6521801948547363,-8.277599334716797,1565.0961601734161
D4:22:CD:00:05:6E,-87.43612670898438,-76.76245880126953,-86.56255340576172,-3.153219223022461,-10.688129425048828,-0.06569194793701172,1565.0961601734161
D4:22:CD:00:05:5E,-74.8904037475586,-56.04036331176758,-141.64468383789062,-1.1749703884124756,1.5263776779174805,-11.062721252441406,1565.0961601734161
D4:22:CD:00:05:5D,-177.62521362304688,-68.80888366699219,-89.58335876464844,5.942263603210449,-6.231536865234375,-1.561619758605957,1565.1257400512695
D4:22:CD:00:05:6B,38.36701202392578,15.2136812210083,-33.92863082885742,-2.4556384086608887,6.085757255554199,-7.615560531616211,1565.1257400512695
D4:22:CD:00:49:AA,-171.7518310546875,-81.73946380615234,135.49700927734375,2.702620506286621,3.261319160461426,-5.885200500488281,1565.1257400512695
D4:22:CD:00:05:6E,-74.99435424804688,-67.92850494384766,-83.2533950805664,-0.1598602831363678,-13.685859680175781,-5.065001487731934,1565.1257400512695
D4:22:CD:00:05:5E,-65.86051177978516,-48.53256607055664,-156.1263427734375,-3.2171168327331543,2.21022891998291,-12.786849975585938,1565.1257400512695
D4:22:CD:00:05:5D,-179.46102905273438,-71.09185791015625,-87.12444305419922,3.569122791290283,1.2793455123901367,-5.715527534484863,1565.1563789844513
D4:22:CD:00:05:6B,35.792232513427734,20.82648468017578,-41.532039642333984,1.1151494979858398,4.847725868225098,-8.086238861083984,1565.1563789844513
D4:22:CD:00:49:AA,174.4903106689453,-82.82247161865234,149.4449462890625,1.261962890625,1.5809259414672852,-5.709586143493652,1565.1563789844513
D4:22:CD:00:05:6E,-63.50435256958008,-67.07530212402344,-82.32698822021484,0.67635178565979,-3.296868324279785,-7.450774192810059,1565.1563789844513
D4:22:CD:00:05:5E,-63.39823913574219,-41.83698654174805,-168.0325469970703,-7.712285995483398,3.6058387756347656,-12.795597076416016,1565.1563789844513
D4:22:CD:00:05:5D,178.0479278564453,-72.21639251708984,-82.86985778808594,2.442836284637451,2.2389254570007324,-6.064453125,1565.1863813400269
D4:22:CD:00:05:6B,27.07475471496582,25.42140769958496,-50.8782844543457,2.317566394805908,3.604492664337158,-9.611091613769531,1565.1863813400269
D4:22:CD:00:49:AA,156.91986083984375,-84.11763763427734,166.55014038085938,-0.12152521312236786,0.8153961896896362,-7.6578874588012695,1565.1863813400269
D4:22:CD:00:05:6E,-58.7830810546875,-69.07109832763672,-81.4509506225586,1.943037986755371,-6.182306289672852,-9.381607055664062,1565.1863813400269
D4:22:CD:00:05:5E,-66.6408462524414,-36.83549118041992,-177.3583526611328,-14.59445571899414,7.09410285949707,-13.080163955688477,1565.1863813400269
D4:22:CD:00:05:5D,176.22755432128906,-71.93294525146484,-76.62062072753906,2.1891956329345703,3.9621033668518066,-5.797934532165527,1565.2161281108856
D4:22:CD:00:05:6B,16.10578727722168,28.659852981567383,-64.16375732421875,3.0246825218200684,0.8812978267669678,-10.044418334960938,1565.2161281108856
D4:22:CD:00:49:AA,137.61801147460938,-84.61158752441406,-175.0918731689453,-0.2696818709373474,1.3425061702728271,-6.755415916442871,1565.2161281108856
D4:22:CD:00:05:6E,-53.155208587646484,-71.91619873046875,-84.5284652709961,3.177579879760742,-5.302438735961914,-8.055782318115234,1565.2161281108856
D4:22:CD:00:05:5E,-72.55004119873047,-34.26662063598633,177.4482879638672,-16.097854614257812,13.31622314453125,-14.386308670043945,1565.2161281108856
D4:22:CD:00:05:5D,176.14515686035156,-69.95001220703125,-71.05842590332031,2.5131397247314453,3.4058117866516113,-4.517083168029785,1565.2461683750153
D4:22:CD:00:05:6B,5.860464096069336,28.665006637573242,-83.6567153930664,-0.791327953338623,-9.360315322875977,-14.574264526367188,1565.2461683750153
D4:22:CD:00:49:AA,111.82808685302734,-84.7318115234375,-151.723388671875,0.9249768257141113,0.88948655128479,-2.926069736480713,1565.2461683750153
D4:22:CD:00:05:6E,-38.8830451965332,-75.02747344970703,-96.21026611328125,3.43502140045166,-3.6911802291870117,-7.463712692260742,1565.2461683750153
D4:22:CD:00:05:5E,-76.64854431152344,-35.614234924316406,177.32057189941406,-13.047821044921875,26.907066345214844,-21.02532196044922,1565.2461683750153
D4:22:CD:00:05:5D,174.75848388671875,-67.11768341064453,-67.21495056152344,2.268354892730713,0.526585578918457,-1.8168015480041504,1565.3061599731445
D4:22:CD:00:05:6B,-3.1363916397094727,23.539154052734375,-103.19775390625,-14.048683166503906,-26.006900787353516,-23.003734588623047,1565.3061599731445
D4:22:CD:00:49:AA,82.7824935913086,-84.8270263671875,-126.49020385742188,1.049708604812622,-1.7758588790893555,-0.7313680648803711,1565.3061599731445
D4:22:CD:00:05:6E,-18.551410675048828,-76.28038787841797,-114.24291229248047,2.268836498260498,-3.6248745918273926,-4.20863151550293,1565.3061599731445
D4:22:CD:00:05:5E,-82.09368133544922,-39.80333709716797,-174.6971435546875,-15.809772491455078,-12.802934646606445,-10.452178955078125,1565.3061599731445
D4:22:CD:00:05:5D,171.8851776123047,-64.69209289550781,-64.21906280517578,-3.6460680961608887,-1.7791800498962402,1.2411422729492188,1565.3366959095001
D4:22:CD:00:05:6B,-12.73983097076416,22.309566497802734,-106.32368469238281,25.8089599609375,8.02365493774414,-20.393115997314453,1565.3366959095001
D4:22:CD:00:49:AA,84.26283264160156,-85.17176055908203,-131.93309020996094,-2.1194334030151367,-7.882537841796875,-0.5524539947509766,1565.3366959095001
D4:22:CD:00:05:6E,-3.033524513244629,-75.38755798339844,-126.72737121582031,0.720417857170105,-4.1376953125,-1.1207218170166016,1565.3366959095001
D4:22:CD:00:05:5E,-83.93779754638672,-44.175254821777344,-167.58889770507812,-18.913433074951172,-18.53020477294922,-5.261272430419922,1565.3366959095001
D4:22:CD:00:05:5D,167.94015502929688,-63.00279235839844,-60.384159088134766,0.6035739183425903,-3.2763500213623047,5.527867317199707,1565.3666837215424
D4:22:CD:00:05:6B,-20.763612747192383,24.921049118041992,-94.47941589355469,-18.549057006835938,0.728154182434082,7.359241485595703,1565.3666837215424
D4:22:CD:00:49:AA,99.29302978515625,-85.12444305419922,-151.15863037109375,-1.1225700378417969,-8.381206512451172,8.394569396972656,1565.3666837215424
D4:22:CD:00:05:6E,6.452090740203857,-74.44367980957031,-129.73849487304688,0.2634966969490051,-5.048213005065918,2.4601688385009766,1565.3666837215424
D4:22:CD:00:05:5E,-99.58544921875,-45.67507553100586,-157.58583068847656,-7.561084747314453,4.272736549377441,4.6820173263549805,1565.3666837215424
D4:22:CD:00:05:5D,163.74224853515625,-62.00529861450195,-55.69245147705078,-0.4697153568267822,-2.795315742492676,6.31080436706543,1565.3967700004578
D4:22:CD:00:05:6B,-15.934600830078125,24.144474029541016,-77.96826171875,-0.29862505197525024,-0.6100937128067017,-12.239351272583008,1565.3967700004578
D4:22:CD:00:49:AA,115.3048095703125,-85.34444427490234,-169.2755889892578,2.3273191452026367,-5.098411560058594,8.00981330871582,1565.3967700004578
D4:22:CD:00:05:6E,9.195585250854492,-74.1722183227539,-121.4980697631836,5.293596267700195,-8.046358108520508,9.902860641479492,1565.3967700004578
D4:22:CD:00:05:5E,-103.55255126953125,-47.14667892456055,-154.94256591796875,-0.6153881549835205,1.6389291286468506,4.826475143432617,1565.3967700004578
D4:22:CD:00:05:5D,157.53485107421875,-61.50485610961914,-50.78582000732422,1.1315176486968994,-2.0442800521850586,7.4808807373046875,1565.426385641098
D4:22:CD:00:05:6B,-19.34136199951172,15.656415939331055,-60.68504333496094,-6.769604682922363,-4.423304557800293,-7.145807266235352,1565.426385641098
D4:22:CD:00:49:AA,137.96572875976562,-85.77668762207031,166.39744567871094,6.685061454772949,2.48997163772583,3.713740348815918,1565.426385641098
D4:22:CD:00:05:6E,6.511142730712891,-74.86235809326172,-108.95655059814453,12.546716690063477,-5.832884788513184,9.941411972045898,1565.426385641098
D4:22:CD:00:05:5E,-100.92176055908203,-50.894771575927734,-156.123046875,-6.626524925231934,0.4925943613052368,0.22299957275390625,1565.426385641098
D4:22:CD:00:05:5D,148.02659606933594,-62.6943359375,-48.15996551513672,7.710600852966309,-5.118281364440918,7.185098648071289,1565.45645737648
D4:22:CD:00:05:6B,-24.285110473632812,2.3322865962982178,-50.80844497680664,-6.050471305847168,5.780036926269531,-2.5152525901794434,1565.45645737648
D4:22:CD:00:49:AA,159.49574279785156,-84.36070251464844,140.72998046875,13.886329650878906,5.115573883056641,-2.745058059692383,1565.45645737648
D4:22:CD:00:05:6E,-2.0882530212402344,-76.89801025390625,-102.18190002441406,9.818290710449219,-3.804718017578125,1.1993837356567383,1565.45645737648
D4:22:CD:00:05:5E,-96.89421081542969,-54.99521255493164,-158.20936584472656,-7.575887680053711,0.10033115744590759,-2.7882957458496094,1565.45645737648
D4:22:CD:00:05:5D,135.2745819091797,-63.51670455932617,-51.12004089355469,13.438976287841797,10.550710678100586,1.1018123626708984,1565.4871604442596
D4:22:CD:00:05:6B,-28.680206298828125,-13.37541389465332,-44.00063705444336,-7.91581916809082,6.835906028747559,-6.717914581298828,1565.4871604442596
D4:22:CD:00:49:AA,165.6118621826172,-81.73356628417969,128.78944396972656,3.923222541809082,2.5462608337402344,-0.994633674621582,1565.4871604442596
D4:22:CD:00:05:6E,-18.011423110961914,-81.47456359863281,-104.209716796875,3.4334468841552734,-9.268636703491211,-0.1088266372680664,1565.4871604442596
D4:22:CD:00:05:5E,-90.59275817871094,-57.967201232910156,-162.37979125976562,-8.309526443481445,0.612697958946228,-3.515510082244873,1565.4871604442596
D4:22:CD:00:05:5D,136.20257568359375,-59.8905143737793,-64.84993743896484,15.103015899658203,15.415838241577148,10.282434463500977,1565.5166673660278
D4:22:CD:00:05:6B,-38.118011474609375,-31.048330307006836,-33.20470428466797,0.3645302653312683,-1.4882783889770508,-11.252082824707031,1565.5166673660278
D4:22:CD:00:49:AA,171.64414978027344,-79.83120727539062,119.96321868896484,-3.3304271697998047,-2.4102463722229004,1.3085079193115234,1565.5166673660278
D4:22:CD:00:05:6E,-33.87517547607422,-86.09294891357422,-110.10204315185547,-8.114681243896484,7.351742744445801,-2.7036795616149902,1565.5166673660278
D4:22:CD:00:05:5E,-86.2640609741211,-59.634708404541016,-166.14837646484375,-7.775870323181152,-0.6321079730987549,-4.877504348754883,1565.5166673660278
D4:22:CD:00:05:5D,143.32180786132812,-51.903968811035156,-79.95418548583984,13.796171188354492,4.975305557250977,3.347137451171875,1565.546667098999
D4:22:CD:00:05:6B,-60.63505935668945,-46.402286529541016,-11.843873023986816,9.80238151550293,-0.6719741821289062,-1.2401924133300781,1565.546667098999
D4:22:CD:00:49:AA,177.72679138183594,-78.25618743896484,113.35346221923828,1.066772699356079,0.48286622762680054,2.2232580184936523,1565.546667098999
D4:22:CD:00:05:6E,-47.26506042480469,-87.48970031738281,-105.45741271972656,-3.473916530609131,8.061607360839844,-2.3621420860290527,1565.546667098999
D4:22:CD:00:05:5E,-83.93153381347656,-60.5533561706543,-168.62606811523438,-5.433631896972656,-0.21954715251922607,-2.625530242919922,1565.546667098999
D4:22:CD:00:05:5D,151.0352325439453,-42.1888427734375,-91.47172546386719,5.001753807067871,-0.33342570066452026,-3.4490952491760254,1565.6065633296967
D4:22:CD:00:05:6B,-89.41480255126953,-51.86295700073242,16.244070053100586,-4.3723249435424805,9.199905395507812,8.762487411499023,1565.6065633296967
D4:22:CD:00:49:AA,179.4625244140625,-78.61787414550781,110.11858367919922,4.759832382202148,2.5539703369140625,-2.8548245429992676,1565.6065633296967
D4:22:CD:00:05:6E,-30.35649299621582,-85.91932678222656,-115.00578308105469,-3.416943073272705,-3.1451945304870605,-3.7108864784240723,1565.6065633296967
D4:22:CD:00:05:5E,-84.08435821533203,-61.29121017456055,-168.5266876220703,-4.994011878967285,-1.9186384677886963,-3.2945332527160645,1565.6065633296967
D4:22:CD:00:05:5D,157.0968017578125,-32.88216018676758,-100.36056518554688,-1.1860456466674805,-0.35481852293014526,-9.589973449707031,1565.6363351345062
D4:22:CD:00:05:6B,-84.58854675292969,-51.01386642456055,31.105709075927734,-14.92827033996582,5.401182174682617,12.91273307800293,1565.6363351345062
D4:22:CD:00:49:AA,179.17117309570312,-79.41239929199219,108.67686462402344,0.9888617992401123,0.8362501859664917,-6.642088890075684,1565.6363351345062
D4:22:CD:00:05:6E,-27.056730270385742,-83.79846954345703,-114.21312713623047,-2.010038375854492,-9.231269836425781,-6.0088300704956055,1565.6363351345062
D4:22:CD:00:05:5E,-87.8962631225586,-61.33301544189453,-164.65882873535156,-6.297048568725586,-1.5974066257476807,-4.258787155151367,1565.6363351345062
D4:22:CD:00:05:5D,161.03323364257812,-25.168270111083984,-107.44944763183594,-3.466334819793701,0.19260478019714355,-12.27442741394043,1565.6671500205994
D4:22:CD:00:05:6B,-53.906829833984375,-49.16440963745117,28.530092239379883,10.808551788330078,10.620519638061523,-16.06442642211914,1565.6671500205994
D4:22:CD:00:49:AA,-178.6992645263672,-79.58845520019531,105.2108154296875,-1.5683002471923828,0.2010396122932434,-6.303118705749512,1565.6671500205994
D4:22:CD:00:05:6E,-32.42341232299805,-83.29317474365234,-111.53346252441406,-1.905785322189331,-4.542116165161133,-4.876412391662598,1565.6671500205994
D4:22:CD:00:05:5E,-93.65482330322266,-60.48363494873047,-158.71395874023438,-7.737973213195801,-2.3718466758728027,-5.683510780334473,1565.6671500205994
D4:22:CD:00:05:5D,163.869384765625,-19.84173011779785,-113.41131591796875,-2.7714452743530273,-0.15907588601112366,-11.346963882446289,1565.696530342102
D4:22:CD:00:05:6B,-39.85447692871094,-48.5407829284668,20.559057235717773,2.1543002128601074,13.832612991333008,-22.11203384399414,1565.696530342102
D4:22:CD:00:49:AA,-173.35455322265625,-79.17362213134766,99.48229217529297,0.4022012948989868,1.4274792671203613,-4.513794898986816,1565.696530342102
D4:22:CD:00:05:6E,-35.80167770385742,-84.05647277832031,-113.02937316894531,-0.9750899076461792,-0.059952206909656525,-4.722320556640625,1565.696530342102
D4:22:CD:00:05:5E,-101.77574157714844,-58.62628173828125,-151.4779510498047,-6.409767150878906,0.44642263650894165,-3.0030455589294434,1565.696530342102
D4:22:CD:00:05:5D,165.70082092285156,-17.061912536621094,-119.32548522949219,-5.29702091217041,-2.7320590019226074,-8.105785369873047,1565.7266795635223
D4:22:CD:00:05:6B,-47.632572174072266,-49.24209976196289,14.525041580200195,-7.0999555587768555,7.431235313415527,-6.895792007446289,1565.7266795635223
D4:22:CD:00:49:AA,-165.72975158691406,-78.63299560546875,91.38722229003906,3.753685474395752,-0.34598255157470703,-3.513700008392334,1565.7266795635223
D4:22:CD:00:05:6E,-21.04669761657715,-85.54231262207031,-129.27435302734375,1.0478777885437012,-0.35871583223342896,-3.4360947608947754,1565.7266795635223
D4:22:CD:00:05:5E,-110.30094146728516,-55.45795822143555,-143.97915649414062,-6.586177825927734,-1.0371825695037842,-2.784493923187256,1565.7266795635223
D4:22:CD:00:05:5D,166.4307098388672,-17.09375762939453,-124.9198989868164,-5.616150856018066,-8.021125793457031,-9.081941604614258,1565.7567563056946
D4:22:CD:00:05:6B,-63.475215911865234,-53.053199768066406,11.985979080200195,-2.3167338371276855,-5.896485328674316,0.007877349853515625,1565.7567563056946
D4:22:CD:00:49:AA,-156.8883056640625,-78.91150665283203,81.50946044921875,3.901371955871582,0.43762606382369995,0.14987945556640625,1565.7567563056946
D4:22:CD:00:05:6E,21.666318893432617,-85.4913330078125,-170.4553985595703,1.6379709243774414,-2.9643759727478027,-0.4306011199951172,1565.7567563056946
D4:22:CD:00:05:5E,-117.30903625488281,-51.38105392456055,-137.87399291992188,-7.487954139709473,0.24705222249031067,-2.628246307373047,1565.7567563056946
D4:22:CD:00:05:5D,168.70184326171875,-19.930097579956055,-129.11253356933594,-10.465181350708008,-10.540021896362305,-6.819681167602539,1565.7861030101776
D4:22:CD:00:05:6B,-76.4549789428711,-63.4536247253418,16.179773330688477,-4.403332710266113,-2.1124215126037598,5.659747123718262,1565.7861030101776
D4:22:CD:00:49:AA,-152.4755401611328,-79.71781921386719,74.64714813232422,3.349123001098633,-0.0730232447385788,1.2950611114501953,1565.7861030101776
D4:22:CD:00:05:6E,52.666194915771484,-83.0546875,161.14199829101562,-1.5008587837219238,-5.2015485763549805,2.2816638946533203,1565.7861030101776
D4:22:CD:00:05:5E,-121.78327178955078,-47.8079833984375,-134.169189453125,-6.21868896484375,0.42445647716522217,-0.07746219635009766,1565.7861030101776
D4:22:CD:00:05:5D,171.8614501953125,-22.193864822387695,-131.49623107910156,-9.152664184570312,-2.7534780502319336,35.2176513671875,1565.8166408538818
D4:22:CD:00:05:6B,-106.30648803710938,-77.87657165527344,49.37491226196289,-2.5815377235412598,10.641302108764648,32.55683135986328,1565.8166408538818
D4:22:CD:00:49:AA,-150.8247833251953,-79.64613342285156,70.24981689453125,-2.1378297805786133,-0.9426589012145996,1.967315673828125,1565.8166408538818
D4:22:CD:00:05:6E,71.30810546875,-80.06291198730469,145.59173583984375,-0.942360520362854,-5.177001953125,4.00090217590332,1565.8166408538818
D4:22:CD:00:05:5E,-124.36141967773438,-46.037933349609375,-131.84974670410156,-6.253269195556641,-0.5116055011749268,-0.040070533752441406,1565.8166408538818
D4:22:CD:00:05:5D,170.79595947265625,-20.621824264526367,-130.1726837158203,-18.223228454589844,-15.814981460571289,2.1177120208740234,1565.8466613292694
D4:22:CD:00:05:6B,-169.20880126953125,-84.63911437988281,126.27074432373047,-11.38746452331543,8.353839874267578,27.62850570678711,1565.8466613292694
D4:22:CD:00:49:AA,-151.1343536376953,-79.02571105957031,69.87276458740234,-1.8414092063903809,1.6153016090393066,8.812049865722656,1565.8466613292694
D4:22:CD:00:05:6E,85.52787017822266,-75.9199447631836,134.33238220214844,4.766561508178711,-4.27324104309082,7.958600997924805,1565.8466613292694
D4:22:CD:00:05:5E,-126.04097747802734,-45.976287841796875,-129.8404083251953,-6.009499549865723,0.18392813205718994,-0.3759641647338867,1565.8466613292694
D4:22:CD:00:05:5D,168.93661499023438,-17.3957576751709,-127.9471206665039,-11.301614761352539,-13.470964431762695,9.923332214355469,1565.906656742096
D4:22:CD:00:05:6B,-102.36717987060547,-86.00679016113281,69.8609848022461,19.563941955566406,18.86135482788086,4.908919334411621,1565.906656742096
D4:22:CD:00:49:AA,-150.42955017089844,-79.3998031616211,68.63311767578125,0.24627506732940674,1.0557856559753418,6.268255233764648,1565.906656742096
D4:22:CD:00:05:6E,96.29166412353516,-69.04036712646484,126.98542785644531,5.929767608642578,-3.9795641899108887,11.82469367980957,1565.906656742096
D4:22:CD:00:05:5E,-126.81602478027344,-46.96418762207031,-128.65243530273438,-6.917616844177246,0.14970964193344116,-0.9316511154174805,1565.906656742096
D4:22:CD:00:05:5D,169.5825653076172,-11.79049301147461,-127.74018096923828,-13.175180435180664,-11.977781295776367,7.8843841552734375,1565.9362428188324
D4:22:CD:00:05:6B,-76.65645599365234,-72.01443481445312,33.09686279296875,12.964624404907227,8.724655151367188,15.723346710205078,1565.9362428188324
D4:22:CD:00:49:AA,-150.76876831054688,-80.36292266845703,69.03157043457031,2.843841075897217,3.2139811515808105,3.947774887084961,1565.9362428188324
D4:22:CD:00:05:6E,99.6230239868164,-58.25096130371094,123.73700714111328,16.993377685546875,-6.906963348388672,24.887920379638672,1565.9362428188324
D4:22:CD:00:05:5E,-126.89229583740234,-48.63579177856445,-128.79592895507812,-7.680661201477051,0.5227228403091431,-0.9139671325683594,1565.9362428188324
D4:22:CD:00:05:5D,166.7709503173828,-6.1655378341674805,-128.28213500976562,-10.929304122924805,-5.255035400390625,5.84342098236084,1565.9663081169128
D4:22:CD:00:05:6B,-76.9789047241211,-57.08637237548828,19.975021362304688,0.0760495662689209,4.797808647155762,16.644996643066406,1565.9663081169128
D4:22:CD:00:49:AA,-154.15672302246094,-80.64111328125,72.80491638183594,2.2503485679626465,4.171043395996094,6.672298431396484,1565.9663081169128
D4:22:CD:00:05:6E,95.33531951904297,-44.29790115356445,123.36773681640625,10.732259750366211,-4.520505905151367,22.438339233398438,1565.9663081169128
D4:22:CD:00:05:5E,-126.40095520019531,-51.1124267578125,-130.53213500976562,-8.058963775634766,0.15801984071731567,0.44463348388671875,1565.9663081169128
D4:22:CD:00:05:5D,164.040283203125,-2.0152971744537354,-129.14247131347656,-5.780549049377441,-1.1828856468200684,-1.9996867179870605,1565.996473312378
D4:22:CD:00:05:6B,-67.86764526367188,-47.18999099731445,8.927497863769531,6.537386894226074,0.7426595687866211,1.1498565673828125,1565.996473312378
D4:22:CD:00:49:AA,-156.84718322753906,-80.89828491210938,75.37728881835938,3.2748918533325195,1.7642030715942383,5.684507369995117,1565.996473312378
D4:22:CD:00:05:6E,89.68199157714844,-28.16469955444336,123.74195098876953,7.7753095626831055,2.1823625564575195,15.402242660522461,1565.996473312378
D4:22:CD:00:05:5E,-124.06873321533203,-54.29390335083008,-134.30548095703125,-8.638570785522461,-2.271566867828369,3.798619270324707,1565.996473312378
D4:22:CD:00:05:5D,162.6387939453125,-0.9405301809310913,-130.31689453125,-3.519470691680908,2.883057117462158,-7.125699996948242,1566.0262215137482
D4:22:CD:00:05:6B,-63.740089416503906,-41.616607666015625,1.6858078241348267,2.2829723358154297,-1.0003132820129395,-9.418252944946289,1566.0262215137482
D4:22:CD:00:49:AA,-160.01373291015625,-81.14381408691406,78.61994171142578,2.9544901847839355,0.5868879556655884,2.681246757507324,1566.0262215137482
D4:22:CD:00:05:6E,80.0938720703125,-11.703414916992188,124.6004638671875,-0.8767894506454468,5.693909645080566,12.86839485168457,1566.0262215137482
D4:22:CD:00:05:5E,-120.30947875976562,-56.85219192504883,-139.04537963867188,-7.585455894470215,-6.40234375,4.611677169799805,1566.0262215137482
D4:22:CD:00:05:5D,161.53570556640625,-3.4360768795013428,-131.15243530273438,-3.1506762504577637,4.735030174255371,-10.79327392578125,1566.0567972660065
D4:22:CD:00:05:6B,-66.435302734375,-41.08625030517578,-3.235872268676758,-1.1687660217285156,0.8039768934249878,-8.974311828613281,1566.0567972660065
D4:22:CD:00:49:AA,-162.83102416992188,-81.462890625,82.15927124023438,2.16896915435791,0.33229345083236694,-0.5020895004272461,1566.0567972660065
D4:22:CD:00:05:6E,61.60463333129883,3.9741554260253906,125.55166625976562,-6.016742706298828,7.702935218811035,5.4193010330200195,1566.0567972660065
D4:22:CD:00:05:5E,-116.47867584228516,-58.03605651855469,-143.47622680664062,-4.3716630935668945,-5.0520429611206055,-1.6938858032226562,1566.0567972660065
D4:22:CD:00:05:5D,159.42697143554688,-9.5282564163208,-130.938232421875,-5.153504371643066,3.5596561431884766,-12.58761215209961,1566.0862295627594
D4:22:CD:00:05:6B,-70.39900970458984,-45.121055603027344,-7.733165740966797,-2.2967705726623535,1.9311728477478027,-6.272287368774414,1566.0862295627594
D4:22:CD:00:49:AA,-165.52764892578125,-80.81375885009766,86.09342193603516,2.218780994415283,-0.1142476350069046,-3.579941749572754,1566.0862295627594
D4:22:CD:00:05:6E,42.31962585449219,18.30710220336914,126.5639419555664,-3.7236528396606445,3.5091562271118164,-7.775163650512695,1566.0862295627594
D4:22:CD:00:05:5E,-114.87952423095703,-57.224388122558594,-148.17491149902344,-2.3459081649780273,-1.4439187049865723,-8.297199249267578,1566.0862295627594
D4:22:CD:00:05:5D,155.97486877441406,-18.654680252075195,-129.16677856445312,-6.42060661315918,0.3285425901412964,-12.25670051574707,1566.1173343658447
D4:22:CD:00:05:6B,-73.81100463867188,-52.7651481628418,-11.985517501831055,-0.8398820161819458,2.4847493171691895,-5.864570617675781,1566.1173343658447
D4:22:CD:00:49:AA,-166.3712158203125,-79.901123046875,88.9130859375,1.5114455223083496,-0.24364343285560608,-6.128177642822266,1566.1173343658447
D4:22:CD:00:05:6E,33.09514617919922,29.39824104309082,126.68463134765625,1.4282381534576416,-1.0996301174163818,-7.759594917297363,1566.1173343658447
D4:22:CD:00:05:5E,-118.4433364868164,-55.177978515625,-152.43133544921875,-3.317653179168701,5.019742012023926,-8.919673919677734,1566.1173343658447
D4:22:CD:00:05:5D,152.16139221191406,-29.95984649658203,-125.17876434326172,-5.395878791809082,-2.7241554260253906,-9.741582870483398,1566.1463959217072
D4:22:CD:00:05:6B,-75.60997772216797,-62.8377685546875,-16.71271514892578,-0.7240133285522461,2.984025478363037,-4.523658752441406,1566.1463959217072
D4:22:CD:00:49:AA,-167.5304412841797,-79.66324615478516,92.05097198486328,1.2544329166412354,1.0040605068206787,-7.217585563659668,1566.1463959217072
D4:22:CD:00:05:6E,36.224281311035156,37.9981575012207,125.990478515625,-2.0428929328918457,-2.4971494674682617,-5.5422163009643555,1566.1463959217072
D4:22:CD:00:05:5E,-125.83139038085938,-52.682098388671875,-154.46102905273438,-6.9765424728393555,9.194522857666016,-8.724161148071289,1566.1463959217072
D4:22:CD:00:05:5D,147.29776000976562,-42.4079704284668,-118.4432373046875,-2.6101999282836914,-4.183864593505859,-6.956272125244141,1566.206568479538
D4:22:CD:00:05:6B,-71.80428314208984,-73.82672882080078,-25.63386344909668,-1.0748720169067383,3.1198043823242188,-3.8057117462158203,1566.206568479538
D4:22:CD:00:49:AA,-169.45657348632812,-80.41511535644531,94.2007827758789,1.7229390144348145,1.4866995811462402,-7.948923110961914,1566.206568479538
D4:22:CD:00:05:6E,45.70317840576172,45.55379104614258,128.16648864746094,-3.772916316986084,-1.9041264057159424,-7.958857536315918,1566.206568479538
D4:22:CD:00:05:5E,-130.84413146972656,-50.75218200683594,-154.66566467285156,-6.776418685913086,5.961057662963867,-8.826025009155273,1566.206568479538
D4:22:CD:00:05:5D,139.9056854248047,-55.62275314331055,-108.23506164550781,0.9309176206588745,-2.8483242988586426,-0.44094276428222656,1566.236086845398
D4:22:CD:00:05:6B,-51.21903991699219,-82.964111328125,-51.97150421142578,-1.5385313034057617,2.179532527923584,-4.75908088684082,1566.236086845398
D4:22:CD:00:49:AA,-172.79258728027344,-81.50608825683594,96.16938018798828,1.132087230682373,0.09053389728069305,-7.585169792175293,1566.236086845398
D4:22:CD:00:05:6E,53.205535888671875,50.8536262512207,137.8540496826172,-4.351044654846191,-1.00449800491333,-10.241558074951172,1566.236086845398
D4:22:CD:00:05:5E,-129.26434326171875,-49.78278350830078,-154.2379608154297,-4.491808891296387,0.7322537899017334,-6.254481315612793,1566.236086845398
D4:22:CD:00:05:5D,124.59661102294922,-68.17851257324219,-87.69739532470703,6.110187530517578,-12.427377700805664,6.358591079711914,1566.2660913467407
D4:22:CD:00:05:6B,22.10289192199707,-85.30235290527344,-133.00819396972656,-3.106276035308838,4.005387306213379,-6.029097557067871,1566.2660913467407
D4:22:CD:00:49:AA,-174.43502807617188,-82.0648193359375,96.65130615234375,0.7882341146469116,-1.2725942134857178,-5.057621955871582,1566.2660913467407
D4:22:CD:00:05:6E,57.6290168762207,51.63751220703125,156.2379608154297,-8.566644668579102,-4.983592987060547,-14.2183837890625,1566.2660913467407
D4:22:CD:00:05:5E,-128.71084594726562,-47.70547103881836,-153.15000915527344,-3.9397082328796387,-5.885122299194336,0.4510927200317383,1566.2660913467407
D4:22:CD:00:05:5D,100.31370544433594,-75.72779083251953,-48.129756927490234,23.50570297241211,0.6431258916854858,12.085552215576172,1566.2961888313293
D4:22:CD:00:05:6B,55.07756805419922,-81.66177368164062,-171.98133850097656,-5.352483749389648,9.402421951293945,-8.026758193969727,1566.2961888313293
D4:22:CD:00:49:AA,-171.02200317382812,-82.41041564941406,94.18183898925781,0.39839786291122437,-2.987325668334961,-3.2578048706054688,1566.2961888313293
D4:22:CD:00:05:6E,59.93860626220703,45.6218376159668,174.8865966796875,-15.931884765625,-7.419669151306152,-25.546295166015625,1566.2961888313293
D4:22:CD:00:05:5E,-132.46766662597656,-44.25425720214844,-152.4606475830078,-12.941295623779297,-2.3783397674560547,2.6350231170654297,1566.2961888313293
D4:22:CD:00:05:5D,92.32603454589844,-75.46208953857422,-24.039169311523438,7.746518135070801,28.364253997802734,-6.517467498779297,1566.326187133789
D4:22:CD:00:05:6B,70.9775390625,-77.4034423828125,172.96145629882812,-3.930021286010742,9.374626159667969,-8.904003143310547,1566.326187133789
D4:22:CD:00:49:AA,-170.69554138183594,-82.1028060913086,95.73687744140625,5.298646926879883,-2.0195536613464355,1.2248954772949219,1566.326187133789
D4:22:CD:00:05:6E,54.95664978027344,39.70825958251953,-175.43756103515625,-11.352380752563477,-14.413972854614258,-13.380514144897461,1566.326187133789
D4:22:CD:00:05:5E,-132.3417205810547,-42.45535659790039,-154.1085662841797,-10.337509155273438,0.0720500648021698,0.12404632568359375,1566.326187133789
D4:22:CD:00:05:5D,111.79340362548828,-72.94184875488281,-40.18711853027344,9.028213500976562,8.876470565795898,4.956341743469238,1566.3567004203796
D4:22:CD:00:05:6B,84.3159408569336,-72.67668914794922,163.73004150390625,-2.907021999359131,5.5770769119262695,-6.703827857971191,1566.3567004203796
D4:22:CD:00:49:AA,-172.4499969482422,-80.1535415649414,98.0857925415039,11.909368515014648,-0.6619715690612793,8.31582260131836,1566.3567004203796
D4:22:CD:00:05:6E,38.669586181640625,43.29034423828125,179.5393829345703,12.951440811157227,7.377176284790039,-7.076169967651367,1566.3567004203796
D4:22:CD:00:05:5E,-127.0453872680664,-42.50139617919922,-158.37754821777344,-14.223196029663086,-3.0994668006896973,4.377079010009766,1566.3567004203796
D4:22:CD:00:05:5D,127.858154296875,-70.50335693359375,-58.64405822753906,5.159902572631836,-15.594095230102539,3.6126012802124023,1566.3867027759552
D4:22:CD:00:05:6B,94.209228515625,-67.27790832519531,155.1564483642578,-6.154390335083008,1.7747418880462646,-0.2237100601196289,1566.3867027759552
D4:22:CD:00:49:AA,-170.39013671875,-79.4524917602539,98.09880828857422,0.01027936115860939,-2.771121025085449,4.829878807067871,1566.3867027759552
D4:22:CD:00:05:6E,41.47714614868164,50.05146408081055,164.00546264648438,2.6291871070861816,3.7108259201049805,-16.87963104248047,1566.3867027759552
D4:22:CD:00:05:5E,-119.94595336914062,-43.6479606628418,-165.22552490234375,-10.280294418334961,-4.104791641235352,-3.742691993713379,1566.3867027759552
D4:22:CD:00:05:5D,137.5099334716797,-67.09517669677734,-65.89208221435547,2.694911479949951,-12.549610137939453,16.32324981689453,1566.4162406921387
D4:22:CD:00:05:6B,101.20175170898438,-61.13279724121094,144.6566162109375,-14.236566543579102,4.823223114013672,12.167551040649414,1566.4162406921387
D4:22:CD:00:49:AA,-167.5557861328125,-78.26659393310547,101.30326080322266,-2.9345297813415527,-5.497672080993652,3.8014516830444336,1566.4162406921387
D4:22:CD:00:05:6E,44.781829833984375,55.68780517578125,138.87538146972656,-12.268720626831055,-9.383291244506836,-16.311092376708984,1566.4162406921387
D4:22:CD:00:05:5E,-106.5174331665039,-44.39263153076172,-168.25494384765625,-10.31894302368164,17.79186248779297,-3.5050272941589355,1566.4162406921387
D4:22:CD:00:05:5D,151.76023864746094,-64.81037139892578,-70.71253204345703,-19.812618255615234,13.831052780151367,9.435121536254883,1566.4462397098541
D4:22:CD:00:05:6B,106.2154312133789,-57.01407241821289,135.90980529785156,-8.512723922729492,13.830419540405273,7.9487152099609375,1566.4462397098541
D4:22:CD:00:49:AA,-164.68223571777344,-77.77337646484375,107.31551361083984,-6.466866493225098,-1.2623059749603271,0.6350469589233398,1566.4462397098541
D4:22:CD:00:05:6E,40.012020111083984,53.567039489746094,115.01585388183594,-2.0267553329467773,-7.185201644897461,-5.501430511474609,1566.4462397098541
D4:22:CD:00:05:5E,-97.83531188964844,-43.74587631225586,-161.08950805664062,-22.96633529663086,28.094871520996094,-2.7633142471313477,1566.4462397098541
D4:22:CD:00:05:5D,155.54464721679688,-64.9758071899414,-75.0951919555664,5.059205055236816,-0.286526620388031,0.4714517593383789,1566.5067200660706
D4:22:CD:00:05:6B,118.28943634033203,-57.44252014160156,129.593017578125,-5.928645133972168,8.028711318969727,0.1266927719116211,1566.5067200660706
D4:22:CD:00:49:AA,-162.1558380126953,-76.43048095703125,109.47019958496094,-4.976784706115723,6.083874702453613,-5.393889427185059,1566.5067200660706
D4:22:CD:00:05:6E,39.717811584472656,45.91847610473633,98.00209045410156,0.4736565947532654,-7.7744903564453125,-1.1671733856201172,1566.5067200660706
D4:22:CD:00:05:5E,-102.08787536621094,-40.79401397705078,-144.18719482421875,-24.914588928222656,8.813108444213867,-2.6287431716918945,1566.5067200660706
D4:22:CD:00:05:5D,160.45062255859375,-65.76919555664062,-79.43134307861328,1.4515929222106934,-0.5855934619903564,0.9533309936523438,1566.5363380908966
D4:22:CD:00:05:6B,136.6100616455078,-61.89438247680664,120.58065032958984,-3.9852843284606934,1.5617010593414307,3.6602210998535156,1566.5363380908966
D4:22:CD:00:49:AA,-166.86550903320312,-74.05927276611328,114.84066009521484,5.539215087890625,5.111395835876465,-1.1447267532348633,1566.5363380908966
D4:22:CD:00:05:6E,38.619850158691406,37.14142990112305,82.99562072753906,-4.729872703552246,-0.08687986433506012,5.191333770751953,1566.5363380908966
D4:22:CD:00:05:5E,-111.50961303710938,-37.738895416259766,-126.15015411376953,-7.015899658203125,-4.169856071472168,-8.72713851928711,1566.5363380908966
D4:22:CD:00:05:5D,165.33505249023438,-67.047119140625,-84.17261505126953,0.7182244062423706,0.28048592805862427,0.40726661682128906,1566.5665929317474
D4:22:CD:00:05:6B,152.99171447753906,-66.68074798583984,108.33091735839844,-0.7171502113342285,2.3864474296569824,1.3155441284179688,1566.5665929317474
D4:22:CD:00:49:AA,-174.40982055664062,-71.72028350830078,120.51094055175781,2.083176612854004,0.4763568043708801,3.6284103393554688,1566.5665929317474
D4:22:CD:00:05:6E,40.96989059448242,29.865886688232422,69.63610076904297,14.783514022827148,-3.370856285095215,-1.8930773735046387,1566.5665929317474
D4:22:CD:00:05:5E,-115.7706527709961,-35.536895751953125,-112.01329040527344,4.227418899536133,-1.8219621181488037,-11.232650756835938,1566.5665929317474
D4:22:CD:00:05:5D,169.18942260742188,-68.77699279785156,-88.26728820800781,0.7825709581375122,0.3363865613937378,0.47599124908447266,1566.5965993404388
D4:22:CD:00:05:6B,159.62721252441406,-70.6419448852539,98.91780090332031,-0.5062304735183716,0.6046477556228638,-1.1214008331298828,1566.5965993404388
D4:22:CD:00:49:AA,179.8636016845703,-70.09500885009766,124.181640625,-5.632742881774902,2.04801082611084,4.624075889587402,1566.5965993404388
D4:22:CD:00:05:6E,54.28317642211914,23.907230377197266,61.92100524902344,11.05207633972168,-7.958687782287598,-3.5888805389404297,1566.5965993404388
D4:22:CD:00:05:5E,-117.10977172851562,-33.762454986572266,-102.07877349853516,6.836068153381348,0.8198728561401367,-12.657527923583984,1566.5965993404388
D4:22:CD:00:05:5D,172.70663452148438,-70.54334259033203,-91.95893096923828,-0.07613030076026917,-0.3356704115867615,0.07639694213867188,1566.626101732254
D4:22:CD:00:05:6B,160.13687133789062,-74.15371704101562,93.28235626220703,-4.056009292602539,-0.17407286167144775,-2.836791515350342,1566.626101732254
D4:22:CD:00:49:AA,175.73191833496094,-69.59819030761719,126.47132110595703,-3.7841744422912598,0.264462947845459,0.40241527557373047,1566.626101732254
D4:22:CD:00:05:6E,67.8366928100586,16.21870231628418,58.69520950317383,-4.875216484069824,5.202885627746582,-0.1297435760498047,1566.626101732254
D4:22:CD:00:05:5E,-119.49407958984375,-32.949134826660156,-95.45137786865234,3.811121940612793,-0.019094374030828476,-11.806264877319336,1566.626101732254
D4:22:CD:00:05:5D,176.8611602783203,-72.05559539794922,-95.98243713378906,-0.3255910873413086,-0.6302152872085571,-0.13690757751464844,1566.656504392624
D4:22:CD:00:05:6B,160.3695526123047,-77.27770233154297,90.09306335449219,-3.519777774810791,1.8434302806854248,-2.4229989051818848,1566.656504392624
D4:22:CD:00:49:AA,172.5084991455078,-69.74357604980469,128.71226501464844,-2.383176803588867,1.3226473331451416,-2.807723045349121,1566.656504392624
D4:22:CD:00:05:6E,72.779296875,8.532083511352539,55.22686004638672,-2.9774370193481445,3.6962780952453613,2.786849021911621,1566.656504392624
D4:22:CD:00:05:5E,-124.67388916015625,-34.00440979003906,-91.6341552734375,-0.9676885604858398,-3.8162994384765625,-7.922421455383301,1566.656504392624
D4:22:CD:00:05:5D,-178.57839965820312,-73.0401840209961,-100.35723114013672,0.03257231414318085,-1.2118983268737793,-0.38251209259033203,1566.6858310699463
D4:22:CD:00:05:6B,161.47848510742188,-80.75518798828125,87.53087615966797,-2.763047218322754,1.3824126720428467,-1.6382360458374023,1566.6858310699463
D4:22:CD:00:49:AA,168.2490692138672,-69.49103546142578,131.26524353027344,-1.0574257373809814,1.1614601612091064,-3.9444098472595215,1566.6858310699463
D4:22:CD:00:05:6E,78.75581359863281,1.6339001655578613,51.36257553100586,0.4279518127441406,-0.16154354810714722,-4.035564422607422,1566.6858310699463
D4:22:CD:00:05:5E,-129.36785888671875,-37.38942337036133,-90.6844482421875,-1.810410499572754,-5.748139381408691,-3.594531536102295,1566.6858310699463
D4:22:CD:00:05:5D,-175.1185760498047,-73.08795928955078,-103.8908920288086,0.5642204284667969,-2.1861186027526855,-1.2236404418945312,1566.7161326408386
D4:22:CD:00:05:6B,166.77772521972656,-84.6122055053711,80.06414794921875,-2.3985767364501953,0.22201621532440186,-3.1577820777893066,1566.7161326408386
D4:22:CD:00:49:AA,161.46421813964844,-69.38013458251953,135.25216674804688,0.3497263193130493,-1.3004341125488281,-4.482577323913574,1566.7161326408386
D4:22:CD:00:05:6E,87.75502014160156,-6.011927604675293,47.81132125854492,0.03863566368818283,1.9807088375091553,-2.3445239067077637,1566.7161326408386
D4:22:CD:00:05:5E,-132.99607849121094,-42.408226013183594,-92.6738510131836,2.1431164741516113,-11.416614532470703,-2.4577994346618652,1566.7161326408386
D4:22:CD:00:05:5D,-175.56777954101562,-71.60399627685547,-103.82378387451172,1.2794160842895508,-3.624845027923584,-1.544398307800293,1566.7506201267242
D4:22:CD:00:05:6B,-146.3282012939453,-88.1584701538086,29.452533721923828,-2.7162880897521973,0.559532642364502,-5.991687774658203,1566.7506201267242
D4:22:CD:00:49:AA,153.96640014648438,-69.04090881347656,139.58392333984375,0.5586713552474976,-2.42739200592041,-6.199675559997559,1566.7506201267242
D4:22:CD:00:05:6E,95.50321960449219,-15.027030944824219,44.02938461303711,1.6262998580932617,2.5464706420898438,-1.8392772674560547,1566.7506201267242
D4:22:CD:00:05:5E,-130.3616485595703,-46.867523193359375,-98.34123992919922,-2.5402398109436035,1.0278139114379883,8.670429229736328,1566.7506201267242
D4:22:CD:00:05:5D,-179.63064575195312,-68.16802215576172,-100.40887451171875,0.7649012804031372,-4.284907341003418,-2.9239754676818848,1566.806081533432
D4:22:CD:00:05:6B,-54.9954833984375,-85.66976165771484,-65.51402282714844,-3.8315892219543457,2.5815091133117676,-6.958696365356445,1566.806081533432
D4:22:CD:00:49:AA,147.32672119140625,-68.88558959960938,144.33790588378906,-2.549076557159424,-2.048226833343506,-5.510761260986328,1566.806081533432
D4:22:CD:00:05:6E,100.6383056640625,-25.76534080505371,40.13386917114258,4.815946578979492,2.634822368621826,-0.06869792938232422,1566.806081533432
D4:22:CD:00:05:5E,-135.472900390625,-45.01937484741211,-99.4659652709961,-13.214546203613281,-15.90523910522461,-2.244220733642578,1566.806081533432
D4:22:CD:00:05:5D,178.25340270996094,-63.584049224853516,-96.82260131835938,0.7502527236938477,0.6281516551971436,-0.26189517974853516,1566.8363115787506
D4:22:CD:00:05:6B,-41.51361846923828,-80.53643798828125,-80.83460998535156,-2.858433723449707,4.303254127502441,-5.995540618896484,1566.8363115787506
D4:22:CD:00:49:AA,141.19935607910156,-69.03445434570312,151.08746337890625,-4.714202880859375,-0.4068954586982727,-2.574645519256592,1566.8363115787506
D4:22:CD:00:05:6E,101.53547668457031,-38.730323791503906,37.56763458251953,7.600543975830078,2.2816543579101562,4.760028839111328,1566.8363115787506
D4:22:CD:00:05:5E,-142.1800079345703,-43.291255950927734,-98.0361099243164,1.7888925075531006,-13.003463745117188,2.802048683166504,1566.8363115787506
D4:22:CD:00:05:5D,176.279541015625,-58.8811149597168,-93.9371337890625,2.0688886642456055,-0.27972888946533203,-1.1533126831054688,1566.8665974140167
D4:22:CD:00:05:6B,-36.745243072509766,-74.55130004882812,-86.07032012939453,-2.0542383193969727,5.959578514099121,-5.721695899963379,1566.8665974140167
D4:22:CD:00:49:AA,136.4962158203125,-68.56470489501953,157.0821075439453,0.39930635690689087,2.4556593894958496,3.0687952041625977,1566.8665974140167
D4:22:CD:00:05:6E,94.15917205810547,-53.62493133544922,38.21063232421875,8.467918395996094,3.2433176040649414,22.871490478515625,1566.8665974140167
D4:22:CD:00:05:5E,-139.53025817871094,-42.18351364135742,-96.17937469482422,-7.956476211547852,-15.735977172851562,8.895944595336914,1566.8665974140167
D4:22:CD:00:05:5D,176.28297424316406,-54.95827865600586,-91.76256561279297,0.20463883876800537,1.7682523727416992,1.6061067581176758,1566.8957006931305
D4:22:CD:00:05:6B,-37.442291259765625,-67.97139739990234,-87.17887115478516,0.27515649795532227,14.88083267211914,0.030950546264648438,1566.8957006931305
D4:22:CD:00:49:AA,137.23976135253906,-68.00857543945312,157.80718994140625,0.8440402746200562,-1.1691420078277588,9.767547607421875,1566.8957006931305
D4:22:CD:00:05:6E,75.16694641113281,-60.851871490478516,40.839839935302734,2.4109249114990234,6.77888298034668,17.884998321533203,1566.8957006931305
D4:22:CD:00:05:5E,-133.14129638671875,-40.797080993652344,-93.00484466552734,-12.079233169555664,-18.80072784423828,10.720138549804688,1566.8957006931305
D4:22:CD:00:05:5D,176.14413452148438,-52.263465881347656,-90.2502670288086,-0.9839760065078735,0.7772210836410522,2.003726005554199,1566.9257714748383
D4:22:CD:00:05:6B,-38.280609130859375,-60.977874755859375,-85.85189819335938,-9.249845504760742,14.767333984375,5.7263898849487305,1566.9257714748383
D4:22:CD:00:49:AA,138.64645385742188,-67.83085632324219,156.98231506347656,-4.392413139343262,-1.4469795227050781,9.198526382446289,1566.9257714748383
D4:22:CD:00:05:6E,67.45201873779297,-56.990882873535156,34.043373107910156,32.06468963623047,3.5039401054382324,8.08740234375,1566.9257714748383
D4:22:CD:00:05:5E,-128.80628967285156,-36.098541259765625,-87.40472412109375,-11.53192138671875,-18.32455825805664,9.132379531860352,1566.9257714748383
D4:22:CD:00:05:5D,176.22093200683594,-50.99763488769531,-89.2664794921875,-0.8096669912338257,0.8737590312957764,2.377347946166992,1566.9563376903534
D4:22:CD:00:05:6B,-41.90704345703125,-54.22493362426758,-79.99296569824219,-9.70174789428711,19.860820770263672,13.287101745605469,1566.9563376903534
D4:22:CD:00:49:AA,140.60171508789062,-68.05493927001953,156.63690185546875,-1.7439451217651367,-0.5722266435623169,7.946493148803711,1566.9563376903534
D4:22:CD:00:05:6E,78.79696655273438,-50.503726959228516,33.00677490234375,12.97581672668457,3.1503782272338867,7.856193542480469,1566.9563376903534
D4:22:CD:00:05:5E,-129.7707061767578,-31.446928024291992,-81.23653411865234,-3.2060489654541016,-16.2288818359375,6.355306625366211,1566.9563376903534
D4:22:CD:00:05:5D,176.32513427734375,-50.99203872680664,-88.1793212890625,-0.24941274523735046,0.4755937457084656,1.5185203552246094,1566.9863605499268
D4:22:CD:00:05:6B,-43.51513671875,-45.03525924682617,-69.6276626586914,-12.892704010009766,20.612648010253906,22.368602752685547,1566.9863605499268
D4:22:CD:00:49:AA,140.7096710205078,-69.59270477294922,158.80897521972656,-1.7915804386138916,1.6945888996124268,4.826787948608398,1566.9863605499268
D4:22:CD:00:05:6E,87.55596923828125,-46.073265075683594,36.2702522277832,3.562199592590332,6.804121971130371,7.372692108154297,1566.9863605499268
D4:22:CD:00:05:5E,-131.96954345703125,-28.08160400390625,-77.20591735839844,-1.0673682689666748,-2.852710723876953,3.739665985107422,1566.9863605499268
D4:22:CD:00:05:5D,176.34014892578125,-51.91842269897461,-87.06827545166016,-0.4832361340522766,0.41072291135787964,1.3453969955444336,1567.0160365104675
D4:22:CD:00:05:6B,-32.398128509521484,-32.04904556274414,-60.113895416259766,1.5662527084350586,6.681971549987793,14.577333450317383,1567.0160365104675
D4:22:CD:00:49:AA,142.95965576171875,-70.98577117919922,158.84951782226562,-3.5966458320617676,1.7398102283477783,4.888114929199219,1567.0160365104675
D4:22:CD:00:05:6E,88.40386962890625,-44.02810287475586,42.22907257080078,5.265585899353027,5.999359130859375,2.46022891998291,1567.0160365104675
D4:22:CD:00:05:5E,-135.8736114501953,-26.326488494873047,-76.488037109375,1.6108968257904053,3.954627513885498,-1.9397997856140137,1567.0160365104675
D4:22:CD:00:05:5D,176.31964111328125,-53.71127700805664,-86.05318450927734,-1.3535821437835693,0.42565202713012695,1.2054204940795898,1567.046585559845
D4:22:CD:00:05:6B,-21.277572631835938,-18.036088943481445,-51.98908996582031,7.414032936096191,2.936765670776367,3.440370559692383,1567.046585559845
D4:22:CD:00:49:AA,145.65977478027344,-72.02935028076172,158.86465454101562,-3.240372657775879,0.5835992097854614,2.430972099304199,1567.046585559845
D4:22:CD:00:05:6E,88.74533081054688,-44.01497268676758,50.99418640136719,5.092062950134277,6.054093360900879,-0.2562103271484375,1567.046585559845
D4:22:CD:00:05:5E,-138.62425231933594,-26.829416275024414,-79.29856872558594,5.712828636169434,8.001951217651367,-5.234652519226074,1567.046585559845
D4:22:CD:00:05:5D,176.6380615234375,-56.31351089477539,-85.63521575927734,-2.105307102203369,0.43926215171813965,0.9807929992675781,1567.106594324112
D4:22:CD:00:05:6B,-11.402680397033691,-6.200840473175049,-47.18741989135742,2.0534725189208984,1.480844497680664,6.301548004150391,1567.106594324112
D4:22:CD:00:49:AA,149.940185546875,-72.60823822021484,157.15635681152344,-2.470885753631592,2.053041458129883,1.8602428436279297,1567.106594324112
D4:22:CD:00:05:6E,90.78034973144531,-46.32612991333008,62.630149841308594,1.730339765548706,6.696290969848633,0.3576221466064453,1567.106594324112
D4:22:CD:00:05:5E,-135.18760681152344,-29.816146850585938,-85.64188385009766,6.682746887207031,7.363186836242676,-5.735411643981934,1567.106594324112
D4:22:CD:00:05:5D,177.8253936767578,-59.69572448730469,-86.6671142578125,-2.773681163787842,0.6902521848678589,0.9962997436523438,1567.1368155479431
D4:22:CD:00:05:6B,1.8825775384902954,4.308972358703613,-46.172122955322266,-4.639100074768066,-3.341588020324707,2.1499900817871094,1567.1368155479431
D4:22:CD:00:49:AA,152.82513427734375,-73.59869384765625,155.688232421875,0.4782158136367798,2.244716167449951,1.123122215270996,1567.1368155479431
D4:22:CD:00:05:6E,92.36072540283203,-51.027862548828125,77.18526458740234,-2.854006290435791,4.051051139831543,1.007918357849121,1567.1368155479431
D4:22:CD:00:05:5E,-126.54424285888672,-33.719635009765625,-95.23176574707031,5.022641181945801,4.317840576171875,-7.629661560058594,1567.1368155479431
D4:22:CD:00:05:5D,179.7077178955078,-63.75080871582031,-89.80448913574219,-2.395991325378418,0.30173730850219727,0.6990242004394531,1567.1674525737762
D4:22:CD:00:05:6B,14.1245756149292,13.100472450256348,-44.852500915527344,-10.481782913208008,-4.42095947265625,-4.568209648132324,1567.1674525737762
D4:22:CD:00:49:AA,153.7458953857422,-75.11618041992188,154.85906982421875,1.4193589687347412,2.0150060653686523,-4.087651252746582,1567.1674525737762
D4:22:CD:00:05:6E,90.00131225585938,-57.26768493652344,94.93579864501953,-5.027941703796387,-0.26066160202026367,0.15047168731689453,1567.1674525737762
D4:22:CD:00:05:5E,-116.6514892578125,-36.70307922363281,-107.06392669677734,2.1239452362060547,1.4675376415252686,-9.269510269165039,1567.1674525737762
D4:22:CD:00:05:5D,-178.0336456298828,-67.95098876953125,-94.60299682617188,-0.2218565046787262,-0.6385966539382935,0.3626747131347656,1567.1959774494171
D4:22:CD:00:05:6B,18.206201553344727,19.215503692626953,-42.76893997192383,-2.9053783416748047,7.533201217651367,-6.488635063171387,1567.1959774494171
D4:22:CD:00:49:AA,155.14292907714844,-76.10435485839844,152.76966857910156,0.5044775009155273,0.9037686586380005,-7.141730308532715,1567.1959774494171
D4:22:CD:00:05:6E,83.48419952392578,-63.64924240112305,114.33939361572266,-5.0431413650512695,-5.500997543334961,-3.7141013145446777,1567.1959774494171
D4:22:CD:00:05:5E,-107.9218521118164,-38.649723052978516,-120.19207000732422,-1.3230466842651367,-0.6136481761932373,-10.336311340332031,1567.1959774494171
D4:22:CD:00:05:5D,-176.22232055664062,-71.57526397705078,-99.73953247070312,2.0845956802368164,-1.47556471824646,-0.34441566467285156,1567.226613521576
D4:22:CD:00:05:6B,13.798532485961914,23.781818389892578,-43.091983795166016,-2.3922104835510254,4.105714797973633,-7.203373908996582,1567.226613521576
D4:22:CD:00:49:AA,156.525390625,-76.57295989990234,150.6121368408203,-0.6296213865280151,0.3163601756095886,-7.217700004577637,1567.226613521576
D4:22:CD:00:05:6E,69.84331512451172,-69.49185180664062,134.79193115234375,-0.043918952345848083,-7.821144104003906,-4.02098274230957,1567.226613521576
D4:22:CD:00:05:5E,-100.20328521728516,-40.184356689453125,-134.8467254638672,-5.990181922912598,-0.05625306814908981,-9.092279434204102,1567.226613521576
D4:22:CD:00:05:5D,-175.7992401123047,-74.2626724243164,-103.35862731933594,2.7139081954956055,-1.8029279708862305,-2.7500648498535156,1567.2566983699799
D4:22:CD:00:05:6B,10.601128578186035,28.960603713989258,-49.686851501464844,4.709875106811523,4.408792495727539,-8.201799392700195,1567.2566983699799
D4:22:CD:00:49:AA,156.98390197753906,-76.80656433105469,148.95616149902344,-0.30093914270401,0.053738102316856384,-5.646605491638184,1567.2566983699799
D4:22:CD:00:05:6E,45.6525993347168,-74.00695037841797,160.39254760742188,-0.09773047268390656,-6.002973556518555,-7.438641548156738,1567.2566983699799
D4:22:CD:00:05:5E,-96.0497817993164,-40.910762786865234,-148.97962951660156,-15.868099212646484,7.147703170776367,-9.393253326416016,1567.2566983699799
D4:22:CD:00:05:5D,-178.2893829345703,-75.64583587646484,-103.62801361083984,3.0739588737487793,-2.572183609008789,-3.6064724922180176,1567.2867987155914
D4:22:CD:00:05:6B,10.729788780212402,34.791961669921875,-66.81037139892578,6.162059783935547,-0.3562314510345459,-10.615873336791992,1567.2867987155914
D4:22:CD:00:49:AA,156.13632202148438,-76.95795440673828,147.72097778320312,0.9342285394668579,-1.1220879554748535,-4.114422798156738,1567.2867987155914
D4:22:CD:00:05:6E,12.767220497131348,-76.4565658569336,-167.61489868164062,0.4815515875816345,-5.173916816711426,-8.84878921508789,1567.2867987155914
D4:22:CD:00:05:5E,-101.571533203125,-41.268802642822266,-159.66680908203125,-21.476581573486328,9.012495040893555,-6.636935234069824,1567.2867987155914
D4:22:CD:00:05:5D,176.5928955078125,-75.48650360107422,-99.58993530273438,1.0805974006652832,-3.117370128631592,-2.6031594276428223,1567.3161551952362
D4:22:CD:00:05:6B,3.2346699237823486,35.60676574707031,-90.86305236816406,2.05576229095459,-5.285645484924316,-21.894668579101562,1567.3161551952362
D4:22:CD:00:49:AA,152.7082061767578,-77.32266998291016,147.99160766601562,0.5942016839981079,-1.7894060611724854,-3.1146106719970703,1567.3161551952362
D4:22:CD:00:05:6E,-25.32839584350586,-75.36589050292969,-132.47915649414062,-0.432264506816864,-7.20424747467041,-5.541801452636719,1567.3161551952362
D4:22:CD:00:05:5E,-106.65052795410156,-41.54114532470703,-166.2130584716797,-15.141937255859375,15.13338851928711,-3.038278579711914,1567.3161551952362
D4:22:CD:00:05:5D,170.89913940429688,-73.62332153320312,-92.49917602539062,1.6003568172454834,-3.722686290740967,0.35011768341064453,1567.3462274074554
D4:22:CD:00:05:6B,-19.87833023071289,25.92458152770996,-107.99093627929688,-12.339059829711914,-23.307228088378906,-32.1004638671875,1567.3462274074554
D4:22:CD:00:49:AA,146.41822814941406,-77.5875244140625,150.42791748046875,-0.10640892386436462,-0.7777819633483887,-2.514820098876953,1567.3462274074554
D4:22:CD:00:05:6E,-54.429237365722656,-69.90630340576172,-108.23780059814453,1.3138055801391602,-10.516485214233398,0.9459505081176758,1567.3462274074554
D4:22:CD:00:05:5E,-112.28961944580078,-41.29232406616211,-165.51937866210938,-8.299484252929688,28.411060333251953,-1.9511370658874512,1567.3462274074554
D4:22:CD:00:05:5D,165.1890106201172,-70.39839935302734,-86.17829132080078,-1.386573314666748,-1.0449490547180176,1.0127315521240234,1567.4060015678406
D4:22:CD:00:05:6B,-50.34651565551758,23.136892318725586,-109.75975799560547,-8.317630767822266,1.2337749004364014,-18.361900329589844,1567.4060015678406
D4:22:CD:00:49:AA,139.08058166503906,-76.7964859008789,152.16241455078125,-3.606812000274658,-3.846127510070801,-1.8464770317077637,1567.4060015678406
D4:22:CD:00:05:6E,-68.62992858886719,-63.722354888916016,-98.21470642089844,1.1304905414581299,-10.43582534790039,-1.6022157669067383,1567.4060015678406
D4:22:CD:00:05:5E,-114.7015380859375,-40.95180892944336,-161.01304626464844,-8.23105239868164,-9.263648986816406,-7.041367530822754,1567.4060015678406
D4:22:CD:00:05:5D,160.41539001464844,-66.62781524658203,-80.54261779785156,1.0208473205566406,2.164943218231201,-1.6413469314575195,1567.4362797737122
D4:22:CD:00:05:6B,-74.59909057617188,28.27117919921875,-101.92743682861328,-7.55303955078125,-5.537899017333984,16.681312561035156,1567.4362797737122
D4:22:CD:00:49:AA,137.933837890625,-75.68798065185547,150.11485290527344,-10.02138900756836,-6.410829544067383,0.8191900253295898,1567.4362797737122
D4:22:CD:00:05:6E,-77.27344512939453,-62.20503234863281,-91.14181518554688,5.308236122131348,-6.428108215332031,-1.4949140548706055,1567.4362797737122
D4:22:CD:00:05:5E,-114.45532989501953,-41.95848846435547,-158.5689697265625,-17.541515350341797,-2.912078380584717,0.33664512634277344,1567.4362797737122
