Device,EulerX,EulerY,EulerZ,FreeAccX,FreeAccY,FreeAccZ,Timestamp
D4:22:CD:00:05:5D,173.6951446533203,-54.476985931396484,-86.96263122558594,-2.5178022384643555,1.478804111480713,2.722370147705078,2353.352355480194
D4:22:CD:00:05:6B,-39.76243591308594,-26.698196411132812,-99.16190338134766,1.5597114562988281,19.276931762695312,16.148826599121094,2353.352355480194
D4:22:CD:00:49:AA,133.829345703125,-67.66513061523438,133.10740661621094,-3.771587371826172,-2.3121724128723145,5.549517631530762,2353.352355480194
D4:22:CD:00:05:6E,118.69062805175781,-63.29302215576172,18.731945037841797,9.937255859375,7.395843505859375,11.325706481933594,2353.352355480194
D4:22:CD:00:05:5E,-170.2875213623047,-56.55214309692383,-51.27377700805664,-0.5575883388519287,-0.9778691530227661,11.068082809448242,2353.352355480194
D4:22:CD:00:05:5D,174.2575225830078,-53.206634521484375,-87.0779037475586,-0.3840285539627075,1.0967919826507568,1.5268363952636719,2353.3553643226624
D4:22:CD:00:05:6B,-43.654937744140625,-11.511783599853516,-94.76465606689453,2.9571304321289062,11.67446517944336,33.23668670654297,2353.3553643226624
D4:22:CD:00:49:AA,133.4058837890625,-67.0731430053711,133.5547332763672,-3.829472541809082,-1.1473331451416016,8.694671630859375,2353.3553643226624
D4:22:CD:00:05:6E,116.68692779541016,-62.81964111328125,26.25139617919922,8.120615005493164,9.014951705932617,12.780149459838867,2353.3553643226624
D4:22:CD:00:05:5E,-168.77565002441406,-54.36848831176758,-52.455806732177734,0.8006068468093872,4.324973106384277,-2.5375938415527344,2353.3553643226624
D4:22:CD:00:05:5D,175.17410278320312,-53.25191879272461,-87.4325180053711,-0.150527685880661,1.19376540184021,1.8348846435546875,2353.3583648204803
D4:22:CD:00:05:6B,-35.73122024536133,6.634013652801514,-85.47955322265625,-0.9663295745849609,-7.218751907348633,29.262699127197266,2353.3583648204803
D4:22:CD:00:49:AA,133.408447265625,-67.92440795898438,134.20651245117188,-0.2639748454093933,-0.21575927734375,7.685724258422852,2353.3583648204803
D4:22:CD:00:05:6E,117.12748718261719,-65.9573974609375,38.28667068481445,-2.4035391807556152,4.685225486755371,11.39289665222168,2353.3583648204803
D4:22:CD:00:05:5E,-168.3975067138672,-56.250404357910156,-54.57130813598633,2.795492649078369,7.575173377990723,-9.569709777832031,2353.3583648204803
D4:22:CD:00:05:6B,-14.298138618469238,21.7564640045166,-74.3414077758789,-1.9459643363952637,-18.72260284423828,10.265466690063477,2353.3613562583923
D4:22:CD:00:49:AA,133.62440490722656,-69.18973541259766,134.10047912597656,-2.9048314094543457,1.8895719051361084,8.733675003051758,2353.3613562583923
D4:22:CD:00:05:6E,109.73931121826172,-73.43157958984375,59.24858474731445,-10.26534652709961,-2.223785400390625,7.407102584838867,2353.3613562583923
D4:22:CD:00:05:5E,-162.7860870361328,-62.6738166809082,-59.03324508666992,7.990067481994629,7.7487688064575195,-9.865259170532227,2353.3613562583923
D4:22:CD:00:05:5D,165.5723419189453,-83.21476745605469,-122.29456329345703,-0.2899356484413147,-3.807774066925049,-1.779829978942871,2353.363364458084
D4:22:CD:00:05:6B,-110.26194763183594,-41.093040466308594,-52.78544235229492,4.665412902832031,-4.313769340515137,-5.2204999923706055,2353.363364458084
D4:22:CD:00:05:5D,-152.42617797851562,-85.6748275756836,-167.93373107910156,-2.460939884185791,-3.1264595985412598,-1.912412166595459,2353.435577392578
D4:22:CD:00:05:6B,-101.33922576904297,-52.67442321777344,-67.1077880859375,4.653782844543457,-1.1548638343811035,-4.072430610656738,2353.435577392578
D4:22:CD:00:49:AA,101.65027618408203,-67.38920593261719,-174.0374755859375,-0.7391977310180664,-1.747901201248169,-4.158225059509277,2353.435577392578
D4:22:CD:00:05:6E,57.57498550415039,-78.20729064941406,75.85102081298828,-0.7003390789031982,0.6280413866043091,12.034351348876953,2353.435577392578
D4:22:CD:00:05:5E,-136.85336303710938,-58.9758415222168,-41.26304626464844,-23.717735290527344,-6.271134376525879,33.387474060058594,2353.435577392578
D4:22:CD:00:05:5D,-134.32049560546875,-84.6381607055664,172.6795196533203,4.343402862548828,-5.655875205993652,-0.19150161743164062,2353.4656596183777
D4:22:CD:00:05:6B,-85.64369201660156,-55.835391998291016,-89.10211181640625,-0.20319318771362305,-1.244764804840088,-5.389507293701172,2353.4656596183777
D4:22:CD:00:49:AA,106.08031463623047,-69.30856323242188,177.78903198242188,-0.47270095348358154,-1.229447364807129,-5.285761833190918,2353.4656596183777
D4:22:CD:00:05:6E,25.489421844482422,-79.95956420898438,108.76998138427734,-4.618242263793945,-0.18592968583106995,10.621610641479492,2353.4656596183777
D4:22:CD:00:05:5E,-178.21385192871094,-32.2972412109375,-17.404769897460938,10.06689453125,-2.9286394119262695,-6.263527870178223,2353.4656596183777
D4:22:CD:00:05:5D,-138.7323455810547,-81.5111083984375,-179.26734924316406,0.6508677005767822,3.4220428466796875,-0.8671283721923828,2353.4956588745117
D4:22:CD:00:05:6B,-78.16151428222656,-53.801124572753906,-105.44757843017578,-0.40156978368759155,0.021004557609558105,-4.721991539001465,2353.4956588745117
D4:22:CD:00:49:AA,107.18724060058594,-70.11607360839844,172.8612060546875,-2.375661849975586,-1.1615877151489258,-3.1267852783203125,2353.4956588745117
D4:22:CD:00:05:6E,16.684831619262695,-80.30632781982422,116.76969146728516,-4.361026763916016,-4.5225830078125,12.214923858642578,2353.4956588745117
D4:22:CD:00:05:5E,169.70596313476562,-44.14761734008789,-15.543554306030273,15.822074890136719,-4.736570358276367,6.018197059631348,2353.4956588745117
D4:22:CD:00:05:5D,-156.41944885253906,-77.12638854980469,-159.78524780273438,2.2493700981140137,-1.2763245105743408,-1.4311017990112305,2353.5561997890472
D4:22:CD:00:05:6B,-74.45712280273438,-49.36008071899414,-118.33291625976562,-0.060989201068878174,1.6059050559997559,-0.3413095474243164,2353.5561997890472
D4:22:CD:00:49:AA,105.5685043334961,-71.42413330078125,171.1262664794922,-4.510232925415039,-3.132139205932617,-1.04071044921875,2353.5561997890472
D4:22:CD:00:05:6E,52.03614044189453,-78.6637191772461,81.92401885986328,-0.5986770391464233,1.5064194202423096,9.188837051391602,2353.5561997890472
D4:22:CD:00:05:5E,166.3805389404297,-58.435089111328125,-17.327146530151367,5.350608825683594,-8.58041000366211,9.274410247802734,2353.5561997890472
D4:22:CD:00:05:5D,-163.15817260742188,-72.18589782714844,-151.11619567871094,0.4512503147125244,6.679445266723633,0.8531112670898438,2353.5852060317993
D4:22:CD:00:05:6B,-75.36117553710938,-42.31277084350586,-127.43567657470703,1.2143018245697021,7.410099983215332,7.888875961303711,2353.5852060317993
D4:22:CD:00:49:AA,106.52355194091797,-73.58958435058594,168.3799591064453,-2.1787290573120117,-3.8791122436523438,3.873086929321289,2353.5852060317993
D4:22:CD:00:05:6E,67.4263916015625,-77.53276824951172,65.2836685180664,4.8137102127075195,5.162614822387695,7.290374755859375,2353.5852060317993
D4:22:CD:00:05:5E,163.4298553466797,-66.14063262939453,-13.354480743408203,2.3541765213012695,-9.504138946533203,15.689048767089844,2353.5852060317993
D4:22:CD:00:05:5D,-166.85389709472656,-67.84986877441406,-146.78712463378906,-0.2536916732788086,4.729484558105469,1.0990524291992188,2353.6457512378693
D4:22:CD:00:05:6B,-79.59211730957031,-31.931533813476562,-130.80569458007812,11.25029182434082,12.485515594482422,14.079988479614258,2353.6457512378693
D4:22:CD:00:49:AA,111.36851501464844,-74.02342224121094,162.46302795410156,-3.2139811515808105,-4.440858840942383,6.098320960998535,2353.6457512378693
D4:22:CD:00:05:6E,69.58570098876953,-78.74656677246094,61.88578414916992,4.660723686218262,7.8169660568237305,7.5487060546875,2353.6457512378693
D4:22:CD:00:05:5E,163.45010375976562,-69.09523010253906,-5.770442962646484,2.8889222145080566,-0.8697772026062012,18.670860290527344,2353.6457512378693
D4:22:CD:00:05:5D,-168.66717529296875,-64.9441146850586,-144.98814392089844,1.131593942642212,3.5862655639648438,1.3026275634765625,2353.64875125885
D4:22:CD:00:05:6B,-77.80622100830078,-16.331132888793945,-130.50718688964844,16.314701080322266,0.03044414520263672,23.291248321533203,2353.64875125885
D4:22:CD:00:49:AA,119.36221313476562,-74.50040435791016,154.53892517089844,-6.500307083129883,-6.679747581481934,9.530006408691406,2353.64875125885
D4:22:CD:00:05:6E,80.9944076538086,-79.35001373291016,51.20738983154297,-0.7794429063796997,6.1411285400390625,13.284923553466797,2353.64875125885
D4:22:CD:00:05:5E,161.06661987304688,-68.80883026123047,-2.525334596633911,-0.15639731287956238,-1.730271577835083,11.73753547668457,2353.64875125885
D4:22:CD:00:05:5D,-169.1984405517578,-63.967708587646484,-144.07852172851562,3.049622058868408,4.276577949523926,1.4092950820922852,2353.6757514476776
D4:22:CD:00:05:6B,-70.6323013305664,2.4989113807678223,-129.0623321533203,13.764341354370117,-10.801870346069336,28.409725189208984,2353.6757514476776
D4:22:CD:00:49:AA,131.94541931152344,-75.4527587890625,143.5246124267578,-0.29607152938842773,-5.935281753540039,8.369064331054688,2353.6757514476776
D4:22:CD:00:05:6E,95.50505828857422,-76.44795989990234,39.4734992980957,-3.429927349090576,4.599301338195801,16.919708251953125,2353.6757514476776
D4:22:CD:00:05:5E,154.46360778808594,-69.84963989257812,6.706639289855957,3.561985492706299,9.942840576171875,2.5108203887939453,2353.6757514476776
D4:22:CD:00:05:5D,-168.35858154296875,-64.57482147216797,-144.22103881835938,-0.4037419557571411,4.126794815063477,1.7389163970947266,2353.7057514190674
D4:22:CD:00:05:6B,-50.94252395629883,20.451194763183594,-125.72575378417969,-4.047950744628906,-22.935649871826172,23.335403442382812,2353.7057514190674
D4:22:CD:00:49:AA,144.32115173339844,-75.47669982910156,132.80841064453125,-1.0814785957336426,-5.349856376647949,10.329200744628906,2353.7057514190674
D4:22:CD:00:05:6E,99.47473907470703,-72.80020904541016,39.22243118286133,-6.881278991699219,2.942049503326416,11.811624526977539,2353.7057514190674
D4:22:CD:00:05:5E,142.67727661132812,-73.61756896972656,26.316221237182617,3.0206847190856934,12.280916213989258,-5.566181182861328,2353.7057514190674
D4:22:CD:00:05:5D,-165.44940185546875,-67.11934661865234,-146.57406616210938,1.7787294387817383,3.9775242805480957,2.8747806549072266,2353.735288619995
D4:22:CD:00:05:6B,-28.08608055114746,32.92070388793945,-118.57715606689453,-6.9141387939453125,-11.87601089477539,7.9186859130859375,2353.735288619995
D4:22:CD:00:49:AA,154.69503784179688,-77.13902282714844,124.74415588378906,-2.799314022064209,-0.11796164512634277,10.028644561767578,2353.735288619995
D4:22:CD:00:05:6E,96.1709976196289,-71.30158233642578,43.8441162109375,-7.490509033203125,0.6881190538406372,4.744361877441406,2353.735288619995
D4:22:CD:00:05:5E,110.83943176269531,-77.71544647216797,65.26839447021484,2.801994800567627,11.917961120605469,-10.166961669921875,2353.735288619995
D4:22:CD:00:05:5D,-159.96682739257812,-72.65460968017578,-151.17431640625,0.09419909119606018,6.182660102844238,4.121634483337402,2353.7662813663483
D4:22:CD:00:05:6B,-9.257584571838379,39.629722595214844,-110.18714904785156,-19.108291625976562,-6.965344429016113,4.988482475280762,2353.7662813663483
D4:22:CD:00:49:AA,166.0689239501953,-79.46229553222656,115.73191833496094,2.3404316902160645,4.588665008544922,5.503915786743164,2353.7662813663483
D4:22:CD:00:05:6E,89.15586853027344,-72.91976928710938,53.13096237182617,-0.43260639905929565,1.3143153190612793,-3.216895580291748,2353.7662813663483
D4:22:CD:00:05:5E,60.49894714355469,-75.5218505859375,118.84217834472656,1.013399600982666,9.954435348510742,-9.52033805847168,2353.7662813663483
D4:22:CD:00:05:5D,-146.07798767089844,-79.87447357177734,-164.8162384033203,-2.474086284637451,-1.0670249462127686,12.842662811279297,2353.7952888011932
D4:22:CD:00:05:6B,7.194411754608154,43.62083435058594,-105.47109985351562,-19.034435272216797,-2.7114968299865723,-5.73276424407959,2353.7952888011932
D4:22:CD:00:49:AA,-179.95706176757812,-80.97772979736328,103.84759521484375,-1.0230016708374023,2.527472972869873,-2.9709911346435547,2353.7952888011932
D4:22:CD:00:05:6E,79.65067291259766,-77.10127258300781,71.00776672363281,-3.8944191932678223,-2.661162853240967,-10.337713241577148,2353.7952888011932
D4:22:CD:00:05:5E,29.38275718688965,-66.34754180908203,148.7611541748047,-2.070894241333008,6.802019119262695,-6.568784713745117,2353.7952888011932
D4:22:CD:00:05:5D,-94.8033676147461,-83.93699645996094,136.9284210205078,-2.8728528022766113,3.292032241821289,0.7186746597290039,2353.8558325767517
D4:22:CD:00:05:6B,20.069475173950195,46.761592864990234,-102.82893371582031,-10.457202911376953,1.892303466796875,-11.830995559692383,2353.8558325767517
D4:22:CD:00:49:AA,-158.51382446289062,-80.55439758300781,84.8905029296875,-5.365138053894043,-1.066117286682129,-6.608837127685547,2353.8558325767517
D4:22:CD:00:05:6E,47.29254150390625,-81.86187744140625,112.2121810913086,-4.296361923217773,-5.030394554138184,-12.962091445922852,2353.8558325767517
D4:22:CD:00:05:5E,13.972625732421875,-55.78284454345703,159.6375732421875,-12.84246826171875,-1.6783158779144287,-6.188518524169922,2353.8558325767517
D4:22:CD:00:05:5D,-101.3499984741211,-86.0728530883789,143.00582885742188,20.464763641357422,7.612462997436523,-15.067594528198242,2353.8858354091644
D4:22:CD:00:05:6B,27.75333595275879,49.28950119018555,-103.54328918457031,-5.167293548583984,2.496767044067383,-12.894538879394531,2353.8858354091644
D4:22:CD:00:49:AA,-146.41766357421875,-79.23356628417969,75.24911499023438,1.8083384037017822,0.050059691071510315,-8.881227493286133,2353.8858354091644
D4:22:CD:00:05:6E,-2.796884298324585,-80.21003723144531,172.3595428466797,-0.2882993221282959,-3.4457225799560547,-12.162105560302734,2353.8858354091644
D4:22:CD:00:05:5E,3.125124454498291,-46.658451080322266,162.7504119873047,-18.38092803955078,-2.552150249481201,-7.725620269775391,2353.8858354091644
D4:22:CD:00:05:5D,-174.03956604003906,-83.25724029541016,-134.4250030517578,3.5711464881896973,-7.371180534362793,-5.975676536560059,2353.9158506393433
D4:22:CD:00:05:6B,30.589189529418945,52.68733596801758,-107.67459869384766,-4.921038627624512,0.6698307991027832,-13.477922439575195,2353.9158506393433
D4:22:CD:00:49:AA,-138.84164428710938,-78.72087097167969,69.8417739868164,2.1623167991638184,0.26091456413269043,-11.15925407409668,2353.9158506393433
D4:22:CD:00:05:6E,-16.621057510375977,-74.12442779541016,-161.52316284179688,-0.6492615938186646,-5.475168228149414,-11.456901550292969,2353.9158506393433
D4:22:CD:00:05:5E,-3.6847879886627197,-40.01062774658203,163.55235290527344,-12.83022689819336,6.733231544494629,-15.42452621459961,2353.9158506393433
D4:22:CD:00:05:5D,178.1231689453125,-79.98242950439453,-115.23929595947266,2.0758137702941895,-7.4991350173950195,-11.326879501342773,2353.9453842639923
D4:22:CD:00:05:6B,30.39760398864746,57.3669319152832,-116.14591979980469,-1.0208871364593506,0.10554897785186768,-14.398956298828125,2353.9453842639923
D4:22:CD:00:49:AA,-129.42144775390625,-79.01531219482422,61.858375549316406,-0.14530706405639648,1.0522780418395996,-9.868247985839844,2353.9453842639923
D4:22:CD:00:05:6E,-22.061901092529297,-67.64830780029297,-148.74879455566406,1.2623324394226074,-6.26162052154541,-10.524906158447266,2353.9453842639923
D4:22:CD:00:05:5E,-4.759336948394775,-36.080467224121094,165.0192108154297,-12.371709823608398,-4.550334930419922,-18.538421630859375,2353.9453842639923
D4:22:CD:00:05:5D,-179.9476776123047,-79.66659545898438,-109.93045043945312,-6.506227493286133,27.683151245117188,-6.012796401977539,2353.975384235382
D4:22:CD:00:05:6B,15.938458442687988,61.637020111083984,-134.48092651367188,9.126205444335938,-7.226374626159668,-10.199384689331055,2353.975384235382
D4:22:CD:00:49:AA,-119.9380111694336,-79.08029174804688,54.1628303527832,-0.9426157474517822,-0.6591321229934692,-9.264970779418945,2353.975384235382
D4:22:CD:00:05:6E,-25.203107833862305,-61.88804244995117,-141.4942169189453,1.929023027420044,-4.114727973937988,-8.454282760620117,2353.975384235382
D4:22:CD:00:05:5E,-7.768590450286865,-36.47431182861328,166.43893432617188,-12.005195617675781,-1.6433868408203125,-16.865524291992188,2353.975384235382
D4:22:CD:00:05:5D,173.80455017089844,-76.64663696289062,-108.0544662475586,-6.034353256225586,-0.6930997371673584,-6.913382530212402,2354.0053839683533
D4:22:CD:00:05:6B,-13.81436538696289,61.09055709838867,-164.921630859375,-11.574779510498047,9.248619079589844,-23.81295394897461,2354.0053839683533
D4:22:CD:00:49:AA,-112.61865234375,-77.93077850341797,49.808868408203125,-2.63382625579834,-2.264169216156006,-4.413026809692383,2354.0053839683533
D4:22:CD:00:05:6E,-24.593290328979492,-57.0439453125,-136.6316375732422,0.9559692144393921,-6.766143798828125,-5.4758405685424805,2354.0053839683533
D4:22:CD:00:05:5E,-13.752979278564453,-41.12174606323242,168.4418182373047,-11.699850082397461,-2.4717555046081543,-13.408510208129883,2354.0053839683533
D4:22:CD:00:05:5D,169.47695922851562,-74.03450012207031,-104.85323333740234,-5.366866111755371,-4.337444305419922,1.481642723083496,2354.0359256267548
D4:22:CD:00:05:6B,-33.0467529296875,55.38154602050781,166.6228790283203,-5.637981414794922,3.3587522506713867,-30.107837677001953,2354.0359256267548
D4:22:CD:00:49:AA,-107.81021881103516,-77.0931167602539,45.966392517089844,3.9295763969421387,0.8221588134765625,-2.3244423866271973,2354.0359256267548
D4:22:CD:00:05:6E,-23.09410858154297,-53.45677185058594,-132.45384216308594,-2.010478973388672,-9.151920318603516,-2.961662769317627,2354.0359256267548
D4:22:CD:00:05:5E,-23.335689544677734,-48.350337982177734,171.86729431152344,-15.534875869750977,1.1478848457336426,-12.539216995239258,2354.0359256267548
D4:22:CD:00:05:5D,166.3375701904297,-71.43115234375,-97.14218139648438,-0.31080949306488037,0.08195683360099792,2.5376644134521484,2354.0659301280975
D4:22:CD:00:05:6B,-49.718994140625,55.31367111206055,164.05523681640625,21.851139068603516,-14.276922225952148,-12.458934783935547,2354.0659301280975
D4:22:CD:00:49:AA,-109.15006256103516,-76.9373779296875,46.319091796875,3.9565587043762207,-1.3434076309204102,-0.2947254180908203,2354.0659301280975
D4:22:CD:00:05:6E,-22.67280387878418,-52.966773986816406,-128.0009765625,-2.752392292022705,-11.227714538574219,-0.04671478271484375,2354.0659301280975
D4:22:CD:00:05:5E,-31.372684478759766,-55.750518798828125,175.52072143554688,1.9426915645599365,-9.106164932250977,9.736007690429688,2354.0659301280975
D4:22:CD:00:05:5D,162.5043182373047,-69.96126556396484,-91.99969482421875,7.739537239074707,-2.704224109649658,3.3292760848999023,2354.09592628479
D4:22:CD:00:05:6B,-68.61236572265625,64.57901763916016,175.9387969970703,-7.276520729064941,12.199295043945312,5.104822158813477,2354.09592628479
D4:22:CD:00:49:AA,-110.32221221923828,-77.49917602539062,45.62215042114258,-4.809659004211426,0.03641830384731293,5.745220184326172,2354.09592628479
D4:22:CD:00:05:6E,-26.673946380615234,-55.14069366455078,-123.38265228271484,0.9566119909286499,-12.094833374023438,3.563488006591797,2354.09592628479
D4:22:CD:00:05:5E,-27.925003051757812,-60.12308883666992,174.69419860839844,-7.137923240661621,-10.89158821105957,4.029631614685059,2354.09592628479
D4:22:CD:00:05:5D,157.36746215820312,-69.72508239746094,-86.03945922851562,-1.6220664978027344,1.1426026821136475,4.453333854675293,2354.15589094162
D4:22:CD:00:05:6B,-53.42509841918945,72.2925033569336,-160.22657775878906,-12.691461563110352,7.201642036437988,-10.134210586547852,2354.15589094162
D4:22:CD:00:49:AA,-111.55691528320312,-78.3680191040039,44.448509216308594,-1.1897621154785156,-0.04840485751628876,5.602762222290039,2354.15589094162
D4:22:CD:00:05:6E,-35.67991638183594,-58.933555603027344,-118.95386505126953,2.2119593620300293,-11.305427551269531,1.0108451843261719,2354.15589094162
D4:22:CD:00:05:5E,-29.9525146484375,-64.64612579345703,174.14151000976562,-2.6126747131347656,7.111638069152832,9.946638107299805,2354.15589094162
D4:22:CD:00:05:5D,149.3910675048828,-70.66876220703125,-78.40077209472656,-4.064788818359375,0.6135425567626953,6.867864608764648,2354.1858909130096
D4:22:CD:00:05:6B,-11.035036087036133,71.10636901855469,-114.65046691894531,1.7914648056030273,-0.7424253225326538,-12.812387466430664,2354.1858909130096
D4:22:CD:00:49:AA,-114.99821472167969,-79.0890884399414,46.0216064453125,0.7198426723480225,-0.773021936416626,4.231195449829102,2354.1858909130096
D4:22:CD:00:05:6E,-48.83079528808594,-63.6159782409668,-114.37067413330078,0.20780089497566223,-8.259334564208984,2.92391300201416,2354.1858909130096
D4:22:CD:00:05:5E,-30.81641387939453,-68.37091827392578,171.8738555908203,-3.5658679008483887,2.877701759338379,2.8198232650756836,2354.1858909130096
D4:22:CD:00:05:5D,138.30953979492188,-72.20795440673828,-68.5866470336914,1.8388679027557373,-2.765291213989258,3.9369096755981445,2354.215905189514
D4:22:CD:00:05:6B,4.59041166305542,61.28417205810547,-89.95787048339844,-3.0066113471984863,0.6461087465286255,-7.535824775695801,2354.215905189514
D4:22:CD:00:49:AA,-120.89403533935547,-79.6357421875,49.04179000854492,4.472772598266602,-0.3338947892189026,3.5194149017333984,2354.215905189514
D4:22:CD:00:05:6E,-54.8901481628418,-66.97744750976562,-111.63356018066406,2.801292896270752,7.008275985717773,11.089096069335938,2354.215905189514
D4:22:CD:00:05:5E,-27.07014274597168,-70.33009338378906,166.91476440429688,-8.210123062133789,0.2774832844734192,-4.400660514831543,2354.215905189514
D4:22:CD:00:05:5D,128.59906005859375,-73.24372863769531,-63.87989807128906,6.124285697937012,-1.8543133735656738,1.2124414443969727,2354.2464385032654
D4:22:CD:00:05:6B,5.4085493087768555,49.38662338256836,-82.12211608886719,-4.670623779296875,1.4073374271392822,-3.43522310256958,2354.2464385032654
D4:22:CD:00:49:AA,-133.99659729003906,-79.46868133544922,58.6770133972168,8.274131774902344,0.582807183265686,1.023834228515625,2354.2464385032654
D4:22:CD:00:05:6E,-51.49584197998047,-68.02622985839844,-113.01071166992188,-0.1661810278892517,-9.973274230957031,-0.8565206527709961,2354.2464385032654
D4:22:CD:00:05:5E,-22.683679580688477,-71.567626953125,160.82545471191406,-8.003974914550781,-1.5627131462097168,-0.024290084838867188,2354.2464385032654
D4:22:CD:00:05:5D,124.18155670166016,-73.41094207763672,-73.14450073242188,13.945232391357422,10.518514633178711,2.582493782043457,2354.2754402160645
D4:22:CD:00:05:6B,0.963962197303772,38.77851486206055,-78.3708724975586,4.179248809814453,3.8570852279663086,0.10239028930664062,2354.2754402160645
D4:22:CD:00:49:AA,-147.23712158203125,-78.99142456054688,68.24787902832031,4.26728630065918,1.5217692852020264,-1.9347386360168457,2354.2754402160645
D4:22:CD:00:05:6E,-55.81952667236328,-69.7092056274414,-113.65165710449219,-4.46196174621582,0.6641765832901001,-1.7271041870117188,2354.2754402160645
D4:22:CD:00:05:5E,-15.374761581420898,-71.86331939697266,153.42698669433594,-4.294787406921387,0.7158173322677612,-0.5751190185546875,2354.2754402160645
D4:22:CD:00:05:5D,131.1582794189453,-68.47938537597656,-92.27493286132812,20.651031494140625,8.677286148071289,8.973207473754883,2354.305438518524
D4:22:CD:00:05:6B,-10.098255157470703,29.558244705200195,-75.1857681274414,-5.959286689758301,5.2613067626953125,4.508231163024902,2354.305438518524
D4:22:CD:00:49:AA,-155.9973907470703,-77.8742904663086,75.51923370361328,-0.4110908508300781,3.0913538932800293,0.6583499908447266,2354.305438518524
D4:22:CD:00:05:6E,-50.54949188232422,-71.92180633544922,-117.0551986694336,-7.962573051452637,-3.2758302688598633,-4.222433090209961,2354.305438518524
D4:22:CD:00:05:5E,-9.166860580444336,-72.17259979248047,146.71533203125,-5.188820838928223,-0.47636842727661133,-2.2877559661865234,2354.305438518524
D4:22:CD:00:05:5D,138.77781677246094,-58.975521087646484,-108.14775848388672,9.723150253295898,-0.3290901780128479,3.3069677352905273,2354.335981607437
D4:22:CD:00:05:6B,-15.094428062438965,20.309375762939453,-71.6920166015625,-2.261601448059082,4.257216453552246,2.1755361557006836,2354.335981607437
D4:22:CD:00:49:AA,-160.9509735107422,-76.15503692626953,80.84178161621094,0.8100887537002563,2.7088212966918945,0.5193262100219727,2354.335981607437
D4:22:CD:00:05:6E,-45.86675262451172,-72.79447937011719,-121.3104019165039,-10.149555206298828,-7.672621726989746,-6.236551284790039,2354.335981607437
D4:22:CD:00:05:5E,-6.259058475494385,-73.03377532958984,142.52078247070312,-3.6756653785705566,-0.15796241164207458,-1.2802839279174805,2354.335981607437
D4:22:CD:00:05:5D,144.83294677734375,-48.6419563293457,-118.87203979492188,2.4277172088623047,-4.773248672485352,-7.143405914306641,2354.3659749031067
D4:22:CD:00:05:6B,-23.96222686767578,10.494901657104492,-68.43997192382812,-2.9406046867370605,4.7978925704956055,-7.179656982421875,2354.3659749031067
D4:22:CD:00:49:AA,-162.00576782226562,-74.75801086425781,83.22731018066406,4.425908088684082,-0.16799747943878174,0.8945980072021484,2354.3659749031067
D4:22:CD:00:05:6E,-44.20936584472656,-72.91048431396484,-124.73407745361328,-7.582685470581055,-4.705160140991211,-6.075117111206055,2354.3659749031067
D4:22:CD:00:05:5E,-5.726964950561523,-75.08952331542969,140.8283233642578,-2.4693727493286133,-0.8896052837371826,-1.8313913345336914,2354.3659749031067
D4:22:CD:00:05:5D,152.5594024658203,-39.8286247253418,-125.95000457763672,-1.598670244216919,-2.4293766021728516,-13.207233428955078,2354.3959822654724
D4:22:CD:00:05:6B,-36.14120101928711,0.48551273345947266,-63.92176055908203,-10.438152313232422,-3.2467894554138184,2.1904115676879883,2354.3959822654724
D4:22:CD:00:49:AA,-163.0194091796875,-74.92512512207031,85.88467407226562,2.305124282836914,2.7245192527770996,-1.4929828643798828,2354.3959822654724
D4:22:CD:00:05:6E,-41.16208267211914,-72.78575134277344,-128.16204833984375,-5.088587760925293,-1.9913313388824463,-5.6066999435424805,2354.3959822654724
D4:22:CD:00:05:5E,-11.381340980529785,-79.22526550292969,145.6687774658203,-1.666529893875122,-0.8169283866882324,-1.6791629791259766,2354.3959822654724
D4:22:CD:00:05:5D,159.93783569335938,-34.43656921386719,-131.4097442626953,-2.418539047241211,-0.4942365288734436,-12.747611999511719,2354.455752849579
D4:22:CD:00:05:6B,-44.093475341796875,-9.13415241241455,-59.40531921386719,-6.610660552978516,-3.6800131797790527,0.7907962799072266,2354.455752849579
D4:22:CD:00:49:AA,-163.39096069335938,-74.9171371459961,86.9300537109375,1.020376205444336,2.063164710998535,-5.030732154846191,2354.455752849579
D4:22:CD:00:05:6E,-34.03893280029297,-72.74386596679688,-132.8465118408203,-2.2716126441955566,-3.043844223022461,-5.565265655517578,2354.455752849579
D4:22:CD:00:05:5E,-28.736778259277344,-83.63369750976562,163.62339782714844,-1.8486604690551758,-0.4698149561882019,-0.9556427001953125,2354.455752849579
D4:22:CD:00:05:5D,164.56997680664062,-32.62595748901367,-136.65786743164062,-3.1175646781921387,0.531468391418457,-8.348672866821289,2354.4857540130615
D4:22:CD:00:05:6B,-46.728389739990234,-20.434215545654297,-55.58869934082031,-2.744342803955078,-5.298583030700684,-2.6058597564697266,2354.4857540130615
D4:22:CD:00:49:AA,-161.29115295410156,-74.38471221923828,85.89187622070312,0.48007988929748535,-0.1386362612247467,-4.516420364379883,2354.4857540130615
D4:22:CD:00:05:6E,-24.43028450012207,-72.6243896484375,-138.75144958496094,-0.7395644187927246,-4.433250427246094,-4.4681243896484375,2354.4857540130615
D4:22:CD:00:05:5E,-76.5680923461914,-86.24485778808594,-147.07557678222656,-5.848687171936035,1.594238042831421,-0.7786445617675781,2354.4857540130615
D4:22:CD:00:05:5D,166.3110809326172,-33.87133026123047,-142.23443603515625,-6.97703742980957,-0.4906728267669678,-6.851438522338867,2354.5157692432404
D4:22:CD:00:05:6B,-45.096473693847656,-34.55580520629883,-53.92026138305664,5.616504669189453,-6.947751045227051,4.802532196044922,2354.5157692432404
D4:22:CD:00:49:AA,-157.03085327148438,-74.2618408203125,84.30345153808594,1.0910820960998535,0.049241580069065094,-3.215620517730713,2354.5157692432404
D4:22:CD:00:05:6E,-12.795035362243652,-71.39849090576172,-145.25070190429688,1.7998604774475098,-1.1491990089416504,0.3884458541870117,2354.5157692432404
D4:22:CD:00:05:5E,-126.00738525390625,-84.7998275756836,-95.84920501708984,-5.363832473754883,-1.3129830360412598,-1.3111114501953125,2354.5157692432404
D4:22:CD:00:05:5D,164.6847381591797,-35.5678825378418,-147.11705017089844,-12.432243347167969,4.930060386657715,11.084840774536133,2354.5453009605408
D4:22:CD:00:05:6B,-32.82555389404297,-50.13309097290039,-61.75585174560547,12.328330993652344,-13.642036437988281,12.129739761352539,2354.5453009605408
D4:22:CD:00:49:AA,-152.89096069335938,-75.43009185791016,81.89806365966797,3.7202625274658203,1.5007872581481934,-5.24702262878418,2354.5453009605408
D4:22:CD:00:05:6E,2.227506399154663,-68.1645278930664,-154.2480010986328,1.8069260120391846,-6.564120292663574,0.4518852233886719,2354.5453009605408
D4:22:CD:00:05:5E,-145.40887451171875,-82.11880493164062,-76.21585845947266,-5.219306945800781,2.897801399230957,0.3543834686279297,2354.5453009605408
D4:22:CD:00:05:5D,164.14132690429688,-36.945133209228516,-147.25955200195312,-16.59357452392578,-5.998958587646484,0.6905765533447266,2354.5752992630005
D4:22:CD:00:05:6B,-11.14999008178711,-59.949745178222656,-81.7345962524414,7.54122257232666,-12.755138397216797,24.2230224609375,2354.5752992630005
D4:22:CD:00:49:AA,-153.35264587402344,-76.49103546142578,81.39344787597656,5.407428741455078,2.0820064544677734,-3.8771095275878906,2354.5752992630005
D4:22:CD:00:05:6E,15.26156234741211,-63.490421295166016,-163.09835815429688,-2.5519227981567383,-5.149224281311035,1.016434669494629,2354.5752992630005
D4:22:CD:00:05:5E,-154.27210998535156,-80.49207305908203,-67.09468078613281,-3.6313228607177734,2.495513916015625,1.5382204055786133,2354.5752992630005
D4:22:CD:00:05:5D,168.0119171142578,-36.29615783691406,-145.11256408691406,-19.822467803955078,2.8893284797668457,11.274200439453125,2354.6052997112274
D4:22:CD:00:05:6B,-9.965779304504395,-59.99733352661133,-85.46466827392578,9.162120819091797,-4.074638366699219,6.257537841796875,2354.6052997112274
D4:22:CD:00:49:AA,-153.66683959960938,-76.07886505126953,82.26950073242188,-4.151695251464844,0.9342408180236816,2.605990409851074,2354.6052997112274
D4:22:CD:00:05:6E,29.18158721923828,-58.8548583984375,-171.54818725585938,-4.571164131164551,-7.446616172790527,3.665231704711914,2354.6052997112274
D4:22:CD:00:05:5E,-162.68923950195312,-79.94245147705078,-57.820735931396484,-4.076808929443359,0.841167688369751,0.12066650390625,2354.6052997112274
D4:22:CD:00:05:5D,167.37525939941406,-33.196800231933594,-141.15496826171875,-18.02962875366211,-4.699131965637207,10.160871505737305,2354.635848045349
D4:22:CD:00:05:6B,-23.159832000732422,-55.323707580566406,-74.81130981445312,3.348834991455078,-9.98768424987793,12.313362121582031,2354.635848045349
D4:22:CD:00:49:AA,-156.054443359375,-74.20984649658203,86.4213638305664,0.9165537357330322,-0.5186119079589844,5.731999397277832,2354.635848045349
D4:22:CD:00:05:6E,41.011024475097656,-54.6427001953125,-179.80906677246094,3.435617446899414,-20.80261993408203,15.24612045288086,2354.635848045349
D4:22:CD:00:05:5E,-169.3979034423828,-80.02655792236328,-50.48611831665039,-6.212717056274414,0.9015766382217407,-0.5400791168212891,2354.635848045349
D4:22:CD:00:05:5D,165.65318298339844,-28.1004581451416,-136.9856414794922,-13.630029678344727,-3.216121196746826,7.549406051635742,2354.665848493576
D4:22:CD:00:05:6B,-32.70550537109375,-48.675418853759766,-70.08992767333984,9.957897186279297,-17.14462661743164,3.120486259460449,2354.665848493576
D4:22:CD:00:49:AA,-159.4170684814453,-71.25270080566406,90.02960205078125,6.364693641662598,0.8953021764755249,6.819437026977539,2354.665848493576
D4:22:CD:00:05:6E,42.157806396484375,-51.797218322753906,171.53445434570312,5.077426910400391,-12.519462585449219,14.705291748046875,2354.665848493576
D4:22:CD:00:05:5E,-172.3131103515625,-81.02975463867188,-47.74302673339844,-5.512175559997559,1.1018199920654297,-0.10398483276367188,2354.665848493576
D4:22:CD:00:05:5D,166.42820739746094,-21.81049156188965,-133.28695678710938,-8.00948715209961,-8.83243179321289,14.357492446899414,2354.695850133896
D4:22:CD:00:05:6B,-40.898475646972656,-41.258296966552734,-68.6294174194336,2.134946823120117,-18.577003479003906,3.604109764099121,2354.695850133896
D4:22:CD:00:49:AA,-162.01434326171875,-70.63126373291016,92.43538665771484,4.166134834289551,4.1981306076049805,5.370100975036621,2354.695850133896
D4:22:CD:00:05:6E,46.20646667480469,-44.64982986450195,159.76426696777344,6.676512718200684,-12.665315628051758,20.481727600097656,2354.695850133896
D4:22:CD:00:05:5E,-174.20458984375,-83.45440673828125,-47.01594543457031,-7.046293258666992,1.5588247776031494,1.2815961837768555,2354.695850133896
D4:22:CD:00:05:5D,164.18812561035156,-15.126462936401367,-132.02928161621094,-3.897542953491211,-3.6709494590759277,13.675031661987305,2354.755637407303
D4:22:CD:00:05:6B,-46.358154296875,-34.3555908203125,-69.79183959960938,-0.9843292236328125,-19.42676544189453,0.6920919418334961,2354.755637407303
D4:22:CD:00:49:AA,-166.1353302001953,-69.81117248535156,95.58849334716797,3.000650405883789,5.732524871826172,8.737491607666016,2354.755637407303
D4:22:CD:00:05:6E,42.22248840332031,-32.79571533203125,149.5833740234375,-1.4088339805603027,-9.60836410522461,21.239646911621094,2354.755637407303
D4:22:CD:00:05:5E,-165.91143798828125,-88.23653411865234,-58.035953521728516,-7.71054744720459,2.068307876586914,4.637270927429199,2354.755637407303
D4:22:CD:00:05:5D,161.06832885742188,-9.657937049865723,-133.47032165527344,2.4041543006896973,-3.250056266784668,2.455821990966797,2354.7860164642334
D4:22:CD:00:05:6B,-52.016422271728516,-30.196256637573242,-73.01598358154297,-4.904792785644531,-14.112371444702148,0.3376798629760742,2354.7860164642334
D4:22:CD:00:49:AA,-171.16571044921875,-69.3787841796875,98.09134674072266,6.754636764526367,3.8236236572265625,11.047197341918945,2354.7860164642334
D4:22:CD:00:05:6E,31.26483917236328,-19.18217658996582,143.2184295654297,-5.382765769958496,0.4918849468231201,13.541397094726562,2354.7860164642334
D4:22:CD:00:05:5E,0.7441515326499939,-84.72258758544922,134.27659606933594,-3.819763660430908,-2.8739562034606934,11.556356430053711,2354.7860164642334
D4:22:CD:00:05:5D,161.06793212890625,-6.864840030670166,-137.0067901611328,3.9256229400634766,-1.7889044284820557,-7.160361289978027,2354.8151891231537
D4:22:CD:00:05:6B,-55.1846923828125,-31.169687271118164,-78.66150665283203,-7.166585922241211,-7.759490013122559,1.5335063934326172,2354.8151891231537
D4:22:CD:00:49:AA,-176.19236755371094,-70.06936645507812,101.1192398071289,4.961652755737305,3.4453883171081543,8.398504257202148,2354.8151891231537
D4:22:CD:00:05:6E,24.469099044799805,-5.917877674102783,139.22637939453125,-7.018703460693359,-1.2768468856811523,2.091038703918457,2354.8151891231537
D4:22:CD:00:05:5E,5.305164337158203,-76.74198913574219,131.87557983398438,0.9591747522354126,-4.969333648681641,3.3984060287475586,2354.8151891231537
D4:22:CD:00:05:5D,161.77609252929688,-7.5432891845703125,-141.67349243164062,-0.2417583167552948,1.3206872940063477,-13.65926742553711,2354.8457176685333
D4:22:CD:00:05:6B,-56.22856140136719,-36.94953918457031,-85.70671081542969,-6.311601638793945,-2.9975132942199707,1.583806037902832,2354.8457176685333
D4:22:CD:00:49:AA,179.9482421875,-71.21525573730469,103.35816192626953,1.2991039752960205,0.25831079483032227,0.8289270401000977,2354.8457176685333
D4:22:CD:00:05:6E,20.197935104370117,4.47537088394165,136.64747619628906,-4.580404281616211,-7.285458564758301,-4.964799880981445,2354.8457176685333
D4:22:CD:00:05:5E,11.26181697845459,-71.01984405517578,133.33131408691406,-5.877804756164551,4.771625518798828,-13.479862213134766,2354.8457176685333
D4:22:CD:00:05:5D,160.2796630859375,-11.997191429138184,-146.2427215576172,-4.97493839263916,2.6335840225219727,-22.056766510009766,2354.8757174015045
D4:22:CD:00:05:6B,-55.23295211791992,-44.86724090576172,-93.26597595214844,-4.900604248046875,1.6489107608795166,-0.08375358581542969,2354.8757174015045
D4:22:CD:00:49:AA,174.7466278076172,-72.04749298095703,107.24275970458984,1.6180520057678223,-0.2367399036884308,-7.322573661804199,2354.8757174015045
D4:22:CD:00:05:6E,14.271100997924805,12.23340129852295,133.87750244140625,-4.482204437255859,-7.988831520080566,-10.136816024780273,2354.8757174015045
D4:22:CD:00:05:5E,13.549588203430176,-70.59740447998047,136.3317413330078,-7.214725494384766,-3.766158103942871,-9.425493240356445,2354.8757174015045
D4:22:CD:00:05:5D,158.22869873046875,-20.64898681640625,-149.80953979492188,-8.964885711669922,2.7436327934265137,-23.667587280273438,2354.90571808815
D4:22:CD:00:05:6B,-49.36800765991211,-53.24779510498047,-101.90397644042969,-2.6401658058166504,1.8757288455963135,-3.8971052169799805,2354.90571808815
D4:22:CD:00:49:AA,171.56871032714844,-71.55589294433594,109.37379455566406,-1.096649169921875,-0.5296118259429932,-7.307762145996094,2354.90571808815
D4:22:CD:00:05:6E,9.830390930175781,19.09600257873535,132.96633911132812,2.4972901344299316,1.29417085647583,-12.266977310180664,2354.90571808815
D4:22:CD:00:05:5E,9.928634643554688,-72.02920532226562,135.28488159179688,0.6070013046264648,-8.478313446044922,-8.812921524047852,2354.90571808815
D4:22:CD:00:05:5D,157.3242645263672,-32.87788772583008,-151.7958526611328,-10.897890090942383,1.1566276550292969,-17.696609497070312,2354.93536400795
D4:22:CD:00:05:6B,-44.57229995727539,-60.539730072021484,-111.41165924072266,-1.6373810768127441,3.2058053016662598,-4.789044380187988,2354.93536400795
D4:22:CD:00:49:AA,171.3703155517578,-71.73116302490234,109.64037322998047,-0.830216646194458,-0.3766735792160034,-8.938783645629883,2354.93536400795
D4:22:CD:00:05:6E,15.124475479125977,26.012460708618164,135.32876586914062,0.4014875888824463,0.24222302436828613,-16.277141571044922,2354.93536400795
D4:22:CD:00:05:5E,3.6270651817321777,-73.51611328125,135.42703247070312,0.7448651790618896,13.099433898925781,-11.051887512207031,2354.93536400795
D4:22:CD:00:05:5D,157.23532104492188,-48.36113739013672,-151.9707489013672,-9.728431701660156,-0.7268640995025635,-8.440656661987305,2354.965364933014
D4:22:CD:00:05:6B,-37.102142333984375,-66.31942749023438,-122.86304473876953,-1.8499813079833984,7.298005104064941,-5.530373573303223,2354.965364933014
D4:22:CD:00:49:AA,168.1776885986328,-72.79854583740234,111.72887420654297,0.829066276550293,-0.3571929335594177,-9.378931045532227,2354.965364933014
D4:22:CD:00:05:6E,25.955215454101562,32.69789123535156,140.9484405517578,-11.350116729736328,-6.468779563903809,-17.093711853027344,2354.965364933014
D4:22:CD:00:05:5E,-2.0241260528564453,-76.98987579345703,141.40805053710938,-1.7589516639709473,1.8214576244354248,1.0293998718261719,2354.965364933014
D4:22:CD:00:05:5D,157.41180419921875,-66.05055236816406,-150.15061950683594,-7.923285484313965,-0.5596804618835449,5.965174674987793,2354.9953632354736
D4:22:CD:00:05:6B,-24.689834594726562,-70.61528778076172,-136.97279357910156,-0.8687906265258789,4.360454559326172,-7.623266220092773,2354.9953632354736
D4:22:CD:00:49:AA,164.42105102539062,-74.0892562866211,114.26296997070312,-0.002792081795632839,-0.9340821504592896,-9.515554428100586,2354.9953632354736
D4:22:CD:00:05:6E,30.631797790527344,39.294921875,149.67568969726562,-19.960250854492188,-4.399883270263672,-18.126258850097656,2354.9953632354736
D4:22:CD:00:05:5E,-14.849282264709473,-80.8658447265625,151.76866149902344,-2.778914451599121,-5.710988998413086,-1.195195198059082,2354.9953632354736
D4:22:CD:00:05:5D,143.3480987548828,-84.88909912109375,-131.25709533691406,4.559377670288086,-5.383624076843262,23.383487701416016,2355.055904865265
D4:22:CD:00:05:6B,-13.583239555358887,-73.0566635131836,-151.8420867919922,0.1984086036682129,7.085066795349121,-5.618213653564453,2355.055904865265
D4:22:CD:00:49:AA,161.3265838623047,-74.86858367919922,116.60189056396484,1.7059369087219238,0.4675113558769226,-8.74766731262207,2355.055904865265
D4:22:CD:00:05:6E,31.15130043029785,45.80907440185547,158.8500518798828,-13.136175155639648,3.620075225830078,-27.18769073486328,2355.055904865265
D4:22:CD:00:05:5E,-37.864253997802734,-83.37037658691406,171.81248474121094,-2.8706493377685547,1.1305501461029053,5.084239959716797,2355.055904865265
D4:22:CD:00:05:5D,10.446150779724121,-79.08824157714844,15.602044105529785,26.687259674072266,0.24352872371673584,10.727239608764648,2355.085904598236
D4:22:CD:00:05:6B,0.2254708707332611,-73.2857894897461,-167.76998901367188,-0.6809368133544922,6.712006568908691,-5.220080375671387,2355.085904598236
D4:22:CD:00:49:AA,157.05711364746094,-75.40222930908203,119.50353240966797,1.6245872974395752,0.35284584760665894,-4.638933181762695,2355.085904598236
D4:22:CD:00:05:6E,40.355777740478516,51.03923416137695,152.8525390625,7.045780181884766,7.598245620727539,-8.348325729370117,2355.085904598236
D4:22:CD:00:05:5E,-56.36725997924805,-83.52210235595703,-170.42962646484375,-5.058528900146484,-1.2066457271575928,6.322725296020508,2355.085904598236
D4:22:CD:00:05:5D,17.085113525390625,-75.19657135009766,16.219676971435547,9.599233627319336,18.540386199951172,-15.226709365844727,2355.1159143447876
D4:22:CD:00:05:6B,8.932524681091309,-72.11528778076172,179.72682189941406,-3.7370829582214355,3.658076286315918,-4.919516563415527,2355.1159143447876
D4:22:CD:00:49:AA,161.1139678955078,-76.0561752319336,116.75701904296875,0.8115617036819458,-0.7222890853881836,-0.8002338409423828,2355.1159143447876
D4:22:CD:00:05:6E,46.32217025756836,55.57455062866211,128.87344360351562,-11.936773300170898,-7.12209415435791,-12.437763214111328,2355.1159143447876
D4:22:CD:00:05:5E,-57.96543884277344,-82.27452850341797,-168.71865844726562,-5.250580787658691,1.0228116512298584,5.60546875,2355.1159143447876
D4:22:CD:00:05:5D,36.40973663330078,-78.32534790039062,-2.953749656677246,19.877944946289062,10.306253433227539,-4.7194061279296875,2355.145466566086
D4:22:CD:00:05:6B,9.498190879821777,-72.92375946044922,172.08091735839844,-3.7106313705444336,5.011478424072266,-3.1785964965820312,2355.145466566086
D4:22:CD:00:49:AA,174.530029296875,-74.68388366699219,104.42333984375,10.636848449707031,-0.17821770906448364,6.777105331420898,2355.145466566086
D4:22:CD:00:05:6E,31.200830459594727,51.42616653442383,98.04808044433594,-16.722660064697266,1.419344425201416,-26.220840454101562,2355.145466566086
D4:22:CD:00:05:5E,-52.11962127685547,-79.94837951660156,-173.91531372070312,-4.764235496520996,-0.5611996650695801,7.145669937133789,2355.145466566086
D4:22:CD:00:05:5D,71.09297943115234,-81.34860229492188,-37.59312438964844,1.7067112922668457,-9.016298294067383,5.199130058288574,2355.1754670143127
D4:22:CD:00:05:6B,13.210949897766113,-77.08950805664062,163.64724731445312,-1.1408929824829102,8.71723747253418,4.870924949645996,2355.1754670143127
D4:22:CD:00:49:AA,-179.87625122070312,-73.64237213134766,97.95269775390625,6.925814628601074,-0.8770804405212402,9.391302108764648,2355.1754670143127
D4:22:CD:00:05:6E,12.30810546875,38.99128341674805,77.26498413085938,-1.900848388671875,9.893983840942383,-20.07744598388672,2355.1754670143127
D4:22:CD:00:05:5E,-37.389163970947266,-76.27894592285156,175.67303466796875,-0.11904008686542511,-3.497244358062744,4.2191314697265625,2355.1754670143127
D4:22:CD:00:05:5D,89.42342376708984,-83.6749496459961,-58.86905288696289,-0.13434112071990967,-10.167915344238281,2.984564781188965,2355.205467224121
D4:22:CD:00:05:6B,41.15281295776367,-82.61454010009766,141.11721801757812,0.7837681770324707,9.308401107788086,13.544403076171875,2355.205467224121
D4:22:CD:00:49:AA,-175.64990234375,-72.88983154296875,94.04942321777344,-0.6784601211547852,-0.2047727406024933,8.406244277954102,2355.205467224121
D4:22:CD:00:05:6E,9.925533294677734,26.943225860595703,66.3761215209961,5.007643699645996,-2.3050060272216797,-2.475830554962158,2355.205467224121
D4:22:CD:00:05:5E,-31.140981674194336,-73.35417175292969,177.34133911132812,-8.371265411376953,-7.35323429107666,-0.9293651580810547,2355.205467224121
D4:22:CD:00:05:5D,112.40098571777344,-85.71334838867188,-85.07528686523438,-4.370153427124023,8.988710403442383,3.026383399963379,2355.2360093593597
D4:22:CD:00:05:6B,101.5170669555664,-86.07319641113281,94.08566284179688,-2.251107692718506,1.737001657485962,12.127851486206055,2355.2360093593597
D4:22:CD:00:49:AA,-172.25762939453125,-72.26145935058594,92.68838500976562,-1.9166145324707031,-0.8802304267883301,0.8229141235351562,2355.2360093593597
D4:22:CD:00:05:6E,20.042387008666992,17.633865356445312,59.83431625366211,-0.7718294858932495,-11.496034622192383,0.6371240615844727,2355.2360093593597
D4:22:CD:00:05:5E,-32.2945556640625,-74.48173522949219,-172.5839385986328,-37.98411560058594,4.063604354858398,-6.158598899841309,2355.2360093593597
D4:22:CD:00:05:5D,143.68777465820312,-85.71764373779297,-114.44493103027344,-4.32511043548584,-6.997649192810059,5.621138572692871,2355.266008615494
D4:22:CD:00:05:6B,-155.6564483642578,-85.60742950439453,2.190014600753784,0.4035458564758301,-9.728130340576172,5.670355796813965,2355.266008615494
D4:22:CD:00:49:AA,-169.08053588867188,-70.68336486816406,93.85638427734375,-1.0955066680908203,-0.42593276500701904,-4.542173385620117,2355.266008615494
D4:22:CD:00:05:6E,35.22770690917969,11.158041954040527,55.80127716064453,9.51089859008789,-14.998741149902344,3.354188919067383,2355.266008615494
D4:22:CD:00:05:5E,-60.588279724121094,-80.04246520996094,-138.78053283691406,-27.715187072753906,-3.3368043899536133,-3.358643054962158,2355.266008615494
D4:22:CD:00:05:5D,178.05282592773438,-84.48516845703125,-145.58041381835938,-0.6556349992752075,3.557865619659424,-0.25402164459228516,2355.3260242938995
D4:22:CD:00:05:6B,-118.47511291503906,-78.96607971191406,-33.36243438720703,3.341397762298584,-5.917173385620117,-1.286355972290039,2355.3260242938995
D4:22:CD:00:49:AA,-167.7488555908203,-67.8638916015625,97.53874969482422,-3.883427143096924,2.0071535110473633,-4.467364311218262,2355.3260242938995
D4:22:CD:00:05:6E,63.53966522216797,6.481292247772217,56.15081787109375,6.6906843185424805,-13.52924919128418,-16.08776092529297,2355.3260242938995
D4:22:CD:00:05:5E,-119.08146667480469,-80.9193344116211,-73.54383850097656,-10.62139892578125,-3.742771625518799,-8.453092575073242,2355.3260242938995
D4:22:CD:00:05:5D,-167.93113708496094,-82.54291534423828,-159.91160583496094,1.6657249927520752,-1.3659782409667969,1.0033636093139648,2355.3555755615234
D4:22:CD:00:05:6B,-94.89912414550781,-76.70014953613281,-46.76619338989258,4.926459312438965,-11.694845199584961,-5.591728210449219,2355.3555755615234
D4:22:CD:00:49:AA,-172.03785705566406,-66.1890869140625,104.73049926757812,-2.55393123626709,2.428023338317871,1.9081697463989258,2355.3555755615234
D4:22:CD:00:05:6E,94.7817611694336,-1.6866105794906616,57.99876403808594,-14.519575119018555,2.0827226638793945,7.869411468505859,2355.3555755615234
D4:22:CD:00:05:5E,-151.51589965820312,-74.29424285888672,-35.10082244873047,-5.593774795532227,-2.3159027099609375,-13.858076095581055,2355.3555755615234
D4:22:CD:00:05:5D,-161.0548095703125,-81.10863494873047,-166.96054077148438,1.9490790367126465,-0.2825261950492859,0.7658491134643555,2355.3855752944946
D4:22:CD:00:05:6B,-71.77523040771484,-78.09307098388672,-63.402645111083984,0.02585458755493164,-11.28792953491211,-5.983536720275879,2355.3855752944946
D4:22:CD:00:49:AA,-174.7147979736328,-66.07843017578125,108.0308609008789,-2.2658920288085938,0.07390455901622772,4.227672576904297,2355.3855752944946
D4:22:CD:00:05:6E,105.79278564453125,-13.376313209533691,55.95327377319336,-2.3697261810302734,-8.485301971435547,17.165992736816406,2355.3855752944946
D4:22:CD:00:05:5E,-166.05636596679688,-65.8777084350586,-18.80929946899414,0.14420047402381897,0.7372174263000488,-15.235334396362305,2355.3855752944946
D4:22:CD:00:05:5D,-155.12802124023438,-80.53433990478516,-172.9931640625,0.41364336013793945,1.5477688312530518,0.8421030044555664,2355.4156901836395
D4:22:CD:00:05:6B,-59.67047882080078,-77.83622741699219,-81.93428039550781,-9.561088562011719,-0.04954814910888672,3.861238479614258,2355.4156901836395
D4:22:CD:00:49:AA,-176.36183166503906,-65.64898681640625,110.5859375,-2.9125218391418457,1.782155990600586,3.2273378372192383,2355.4156901836395
D4:22:CD:00:05:6E,107.65322875976562,-26.736099243164062,49.212867736816406,1.9835455417633057,-1.203664779663086,-0.8466424942016602,2355.4156901836395
D4:22:CD:00:05:5E,-175.583740234375,-58.810089111328125,-9.902779579162598,2.2320375442504883,2.147097110748291,-12.530921936035156,2355.4156901836395
D4:22:CD:00:05:5D,-150.43798828125,-80.21736907958984,-178.7737274169922,-0.9721212387084961,0.7233408689498901,0.16331005096435547,2355.4454669952393
D4:22:CD:00:05:6B,-54.18364334106445,-74.65673065185547,-95.25975036621094,-11.331130981445312,5.104185104370117,1.443526268005371,2355.4454669952393
D4:22:CD:00:49:AA,-179.1616668701172,-66.00677490234375,113.64403533935547,-1.1240849494934082,2.6733317375183105,-1.1447525024414062,2355.4454669952393
D4:22:CD:00:05:6E,114.92378234863281,-41.344810485839844,38.608272552490234,2.581758499145508,-0.2431400716304779,13.536365509033203,2355.4454669952393
D4:22:CD:00:05:5E,175.9483642578125,-54.619598388671875,-3.4656972885131836,1.4391906261444092,1.875690221786499,-7.97225284576416,2355.4454669952393
D4:22:CD:00:05:5D,-148.480224609375,-79.4644546508789,178.721435546875,-1.3877546787261963,-2.29298734664917,-0.8239593505859375,2355.4754672050476
D4:22:CD:00:05:6B,-52.67068862915039,-69.62818908691406,-101.87673950195312,-7.866545677185059,0.19864392280578613,-2.337027072906494,2355.4754672050476
D4:22:CD:00:49:AA,176.36131286621094,-66.581787109375,117.10792541503906,0.39611947536468506,1.7857143878936768,-4.134847640991211,2355.4754672050476
D4:22:CD:00:05:6E,114.51175689697266,-54.812042236328125,26.555063247680664,-1.9359991550445557,-6.147747993469238,15.483222961425781,2355.4754672050476
D4:22:CD:00:05:5E,167.744873046875,-53.36940383911133,2.716154098510742,6.883635520935059,5.102867126464844,-2.724792003631592,2355.4754672050476
D4:22:CD:00:05:5D,-153.93182373046875,-77.93955993652344,-175.8768768310547,-0.515886664390564,-4.785383224487305,-1.5220403671264648,2355.505466938019
D4:22:CD:00:05:6B,-48.2880744934082,-64.91254425048828,-110.60259246826172,-5.054468154907227,-4.285401344299316,-5.717495918273926,2355.505466938019
D4:22:CD:00:49:AA,170.20579528808594,-67.12395477294922,121.43609619140625,-0.4595023989677429,0.6380528211593628,-5.088723182678223,2355.505466938019
D4:22:CD:00:05:6E,104.92578887939453,-66.61539459228516,20.67575454711914,9.922536849975586,-0.022497694939374924,5.456432342529297,2355.505466938019
D4:22:CD:00:05:5E,163.05308532714844,-57.35171127319336,8.093470573425293,11.085988998413086,4.782306671142578,-1.033015251159668,2355.505466938019
D4:22:CD:00:05:5D,-162.7841033935547,-75.1784896850586,-165.6470947265625,1.0824458599090576,-5.064810752868652,-1.5624685287475586,2355.5360164642334
D4:22:CD:00:05:6B,-48.23453140258789,-60.159698486328125,-118.34391784667969,-5.004083633422852,-3.2479753494262695,-8.231821060180664,2355.5360164642334
D4:22:CD:00:49:AA,163.517822265625,-67.69959259033203,126.0904541015625,-1.4583940505981445,0.35819000005722046,-5.197714805603027,2355.5360164642334
D4:22:CD:00:05:6E,94.2772216796875,-76.1132583618164,28.949752807617188,5.93242073059082,1.6916313171386719,3.546261787414551,2355.5360164642334
D4:22:CD:00:05:5E,166.10630798339844,-59.16390609741211,6.097007751464844,-9.765249252319336,7.075273513793945,23.517597198486328,2355.5360164642334
D4:22:CD:00:05:5D,-171.68785095214844,-70.90737915039062,-154.3904266357422,-1.1220126152038574,-3.309635639190674,-1.5198945999145508,2355.5660133361816
D4:22:CD:00:05:6B,-56.76602554321289,-54.59711837768555,-122.07709503173828,-5.300877571105957,5.158624649047852,-6.293234825134277,2355.5660133361816
D4:22:CD:00:49:AA,156.55581665039062,-68.53140258789062,130.9029083251953,-1.455256700515747,0.4448341131210327,-3.0376291275024414,2355.5660133361816
D4:22:CD:00:05:6E,84.719970703125,-80.5254135131836,36.899627685546875,-6.875324249267578,-7.375487327575684,1.3851385116577148,2355.5660133361816
D4:22:CD:00:05:5E,158.84078979492188,-60.13508224487305,4.006445407867432,15.023836135864258,-1.3322772979736328,2.6398677825927734,2355.5660133361816
D4:22:CD:00:05:5D,-178.4914093017578,-65.35018157958984,-144.8052215576172,-1.1321756839752197,1.7369508743286133,-0.38175106048583984,2355.625104904175
D4:22:CD:00:05:6B,-56.52751541137695,-49.97977828979492,-128.66343688964844,9.065792083740234,1.5926175117492676,-1.933126449584961,2355.625104904175
D4:22:CD:00:49:AA,149.2612762451172,-69.76632690429688,136.9120635986328,-3.055482864379883,0.47446995973587036,-2.0302348136901855,2355.625104904175
D4:22:CD:00:05:6E,81.15819549560547,-79.84523010253906,36.37453842163086,11.040586471557617,2.0487399101257324,3.1843833923339844,2355.625104904175
D4:22:CD:00:05:5E,153.56777954101562,-61.70069122314453,4.54874849319458,13.025274276733398,7.501038551330566,15.37673568725586,2355.625104904175
D4:22:CD:00:05:5D,178.02792358398438,-60.33370590209961,-138.5971221923828,1.2266581058502197,3.4624242782592773,1.4693183898925781,2355.65563249588
D4:22:CD:00:05:6B,-55.15970230102539,-43.68061065673828,-136.64309692382812,6.6158599853515625,1.410022258758545,-1.043161392211914,2355.65563249588
D4:22:CD:00:49:AA,140.677001953125,-71.85518646240234,145.4535675048828,-1.8285202980041504,1.3866426944732666,-1.1372976303100586,2355.65563249588
D4:22:CD:00:05:6E,84.14927673339844,-77.66564178466797,41.19425964355469,6.029629707336426,4.906627655029297,6.573036193847656,2355.65563249588
D4:22:CD:00:05:5E,157.3567657470703,-60.2114372253418,1.3061554431915283,5.859546661376953,-7.075272560119629,13.40789794921875,2355.65563249588
