Device,EulerX,EulerY,EulerZ,FreeAccX,FreeAccY,FreeAccZ,Timestamp
D4:22:CD:00:05:5D,174.34559631347656,-54.12854766845703,-107.18295288085938,-2.6228151321411133,1.959641695022583,2.8083419799804688,2324.2521085739136
D4:22:CD:00:05:6B,-85.46942901611328,-41.69511413574219,-88.87947082519531,13.015716552734375,12.757333755493164,17.007038116455078,2324.2521085739136
D4:22:CD:00:49:AA,152.2323760986328,-66.06044006347656,131.1556854248047,-5.272213935852051,-0.008689289912581444,12.74666976928711,2324.2521085739136
D4:22:CD:00:05:6E,60.512210845947266,-66.72280883789062,71.3904800415039,-3.452096939086914,6.588191032409668,9.626527786254883,2324.2521085739136
D4:22:CD:00:05:5E,174.56198120117188,-61.7787971496582,43.043304443359375,7.111313819885254,1.5048797130584717,20.145282745361328,2324.2521085739136
D4:22:CD:00:05:5D,174.6981964111328,-52.470680236816406,-105.37969207763672,-0.3477666974067688,1.1727755069732666,1.3219499588012695,2324.2551000118256
D4:22:CD:00:05:6B,-84.12362670898438,-29.26027488708496,-91.61801147460938,16.194934844970703,12.643381118774414,31.411266326904297,2324.2551000118256
D4:22:CD:00:49:AA,150.93336486816406,-65.84749603271484,132.8939208984375,0.323594868183136,-0.6904222965240479,5.694920539855957,2324.2551000118256
D4:22:CD:00:05:6E,59.31031799316406,-64.14277648925781,81.55138397216797,-5.1939697265625,8.596460342407227,11.999242782592773,2324.2551000118256
D4:22:CD:00:05:5E,-179.2521514892578,-55.33564376831055,37.72903823852539,4.745292663574219,1.182746410369873,21.20281219482422,2324.2551000118256
D4:22:CD:00:49:AA,149.77284240722656,-66.21935272216797,133.84141540527344,-3.4172778129577637,2.4424901008605957,10.121004104614258,2324.2581079006195
D4:22:CD:00:05:6E,60.217933654785156,-63.545997619628906,94.38748168945312,-9.504220962524414,3.228959083557129,11.883543014526367,2324.2581079006195
D4:22:CD:00:05:5E,-175.75062561035156,-48.584678649902344,35.72343063354492,1.0932343006134033,-2.189929485321045,17.180095672607422,2324.2581079006195
D4:22:CD:00:05:5D,-146.8112335205078,-79.82917785644531,-143.5540313720703,-4.020700454711914,3.202451705932617,-1.0721845626831055,2324.260108947754
D4:22:CD:00:05:6B,-50.65986633300781,-19.257633209228516,-56.62204360961914,-4.194063186645508,2.1441092491149902,-4.118476867675781,2324.260108947754
D4:22:CD:00:05:6E,60.790992736816406,-65.55975341796875,109.85303497314453,-8.141441345214844,-2.653787136077881,8.490903854370117,2324.260108947754
D4:22:CD:00:05:5E,-171.5364532470703,-43.17417907714844,34.3255500793457,-5.436179161071777,-4.717503547668457,7.141927719116211,2324.260108947754
D4:22:CD:00:05:5D,161.30645751953125,-74.71855163574219,-92.33849334716797,0.09426233172416687,0.0031843888573348522,-0.6142816543579102,2324.263107776642
D4:22:CD:00:05:6B,-55.294063568115234,-13.132453918457031,-56.87628173828125,-4.269295692443848,2.987800121307373,-0.3746166229248047,2324.263107776642
D4:22:CD:00:49:AA,-168.99374389648438,-88.2940673828125,97.40444946289062,-0.5672628879547119,0.9768201112747192,-1.7954111099243164,2324.263107776642
D4:22:CD:00:05:5D,154.34095764160156,-68.1608657836914,-82.14134216308594,2.387691020965576,2.6992297172546387,0.034183502197265625,2324.3356580734253
D4:22:CD:00:05:6B,-62.07788848876953,-0.5785473585128784,-57.02035903930664,1.0733585357666016,-1.3731484413146973,13.539466857910156,2324.3356580734253
D4:22:CD:00:49:AA,170.5747528076172,-88.96524047851562,119.78192901611328,1.9908771514892578,-2.2477474212646484,5.8219194412231445,2324.3356580734253
D4:22:CD:00:05:6E,-28.315837860107422,-70.47601318359375,146.63601684570312,7.011104583740234,-0.3377504348754883,15.654314041137695,2324.3356580734253
D4:22:CD:00:05:5E,133.351806640625,-74.36219787597656,37.662174224853516,-0.08508044481277466,0.0064798640087246895,20.66309356689453,2324.3356580734253
D4:22:CD:00:05:5D,157.93077087402344,-62.412010192871094,-81.43812561035156,5.20130729675293,2.179457187652588,0.7257375717163086,2324.365658044815
D4:22:CD:00:05:6B,-59.1246452331543,5.596408843994141,-57.63119888305664,8.387428283691406,-3.022864818572998,18.456649780273438,2324.365658044815
D4:22:CD:00:49:AA,166.07945251464844,-83.53980255126953,124.3014144897461,3.7894949913024902,-6.903290748596191,9.523466110229492,2324.365658044815
D4:22:CD:00:05:6E,-22.62898826599121,-58.35370635986328,148.6155548095703,-16.186195373535156,8.971111297607422,14.418575286865234,2324.365658044815
D4:22:CD:00:05:5E,144.33126831054688,-71.52655792236328,28.9440975189209,-4.729207992553711,-1.9998021125793457,19.45028305053711,2324.365658044815
D4:22:CD:00:05:5D,164.5592498779297,-58.69721984863281,-83.72332000732422,2.270042896270752,1.3028509616851807,2.083743095397949,2324.396199464798
D4:22:CD:00:05:6B,-56.73418426513672,11.280699729919434,-56.16814041137695,9.152103424072266,-7.2475385665893555,28.370716094970703,2324.396199464798
D4:22:CD:00:49:AA,167.38143920898438,-75.97245788574219,122.19282531738281,1.522566556930542,0.6934851408004761,9.895288467407227,2324.396199464798
D4:22:CD:00:05:6E,5.7385382652282715,-72.07784271240234,128.23179626464844,-11.700403213500977,12.465028762817383,9.220344543457031,2324.396199464798
D4:22:CD:00:05:5E,154.57911682128906,-61.02166748046875,15.401968955993652,-1.1345622539520264,2.544283866882324,11.672101974487305,2324.396199464798
D4:22:CD:00:05:5D,169.62338256835938,-56.7824592590332,-84.28240203857422,-0.596312403678894,1.353215217590332,1.630218505859375,2324.4261996746063
D4:22:CD:00:05:6B,-43.29591369628906,18.13997459411621,-50.458499908447266,8.812463760375977,-11.710514068603516,35.103553771972656,2324.4261996746063
D4:22:CD:00:49:AA,162.33151245117188,-72.80911254882812,126.11336517333984,-1.0764195919036865,-0.36571991443634033,10.784772872924805,2324.4261996746063
D4:22:CD:00:05:6E,41.14061737060547,-84.2125015258789,98.92748260498047,-6.0915117263793945,10.693157196044922,4.233114242553711,2324.4261996746063
D4:22:CD:00:05:5E,160.3649139404297,-56.267173767089844,6.912764072418213,-0.6146812438964844,8.002376556396484,3.2202329635620117,2324.4261996746063
D4:22:CD:00:05:5D,173.16372680664062,-56.568397521972656,-83.72982788085938,-4.297972679138184,0.4372270703315735,2.297072410583496,2324.4561998844147
D4:22:CD:00:05:6B,-15.810420036315918,24.17867088317871,-40.60260772705078,-5.995776176452637,-10.516525268554688,9.135656356811523,2324.4561998844147
D4:22:CD:00:49:AA,160.02413940429688,-73.24053192138672,128.1553192138672,-6.858226776123047,2.6048922538757324,6.96641731262207,2324.4561998844147
D4:22:CD:00:05:6E,-137.5215301513672,-85.41691589355469,-76.1858139038086,-9.470146179199219,0.3630169630050659,6.071498870849609,2324.4561998844147
D4:22:CD:00:05:5E,170.61630249023438,-56.24850845336914,-2.7892754077911377,0.2586628198623657,8.897720336914062,-4.524117469787598,2324.4561998844147
D4:22:CD:00:05:5D,175.41339111328125,-58.26695251464844,-84.74044036865234,-4.435423851013184,0.9060146808624268,2.2741336822509766,2324.4854686260223
D4:22:CD:00:05:6B,6.897891998291016,26.925100326538086,-29.20714569091797,-10.265583038330078,-18.676002502441406,4.596607208251953,2324.4854686260223
D4:22:CD:00:49:AA,164.85462951660156,-75.00963592529297,122.39392852783203,-2.3042449951171875,0.5606046915054321,4.0452775955200195,2324.4854686260223
D4:22:CD:00:05:6E,-115.69193267822266,-77.228759765625,-92.35823059082031,-10.519086837768555,-9.77488899230957,0.6962614059448242,2324.4854686260223
D4:22:CD:00:05:5E,-176.9149627685547,-58.67461013793945,-15.288092613220215,1.6234173774719238,8.127506256103516,-9.48830795288086,2324.4854686260223
D4:22:CD:00:05:5D,177.302978515625,-61.96217346191406,-85.55252075195312,-3.02215576171875,1.6818292140960693,3.4995250701904297,2324.5157334804535
D4:22:CD:00:05:6B,24.885881423950195,29.093177795410156,-21.429475784301758,-0.5921125411987305,-16.007522583007812,-5.368736267089844,2324.5157334804535
D4:22:CD:00:49:AA,175.32435607910156,-76.35115814208984,113.28656005859375,-0.16036048531532288,-0.31057727336883545,0.5926399230957031,2324.5157334804535
D4:22:CD:00:05:6E,-102.66277313232422,-72.18875122070312,-98.33771514892578,-8.293115615844727,-6.896086692810059,-6.199895858764648,2324.5157334804535
D4:22:CD:00:05:5E,-161.86793518066406,-61.55239486694336,-31.557056427001953,2.4981961250305176,6.581974983215332,-10.460823059082031,2324.5157334804535
D4:22:CD:00:05:5D,177.3021240234375,-67.84217071533203,-83.75074768066406,2.2444701194763184,-1.0620999336242676,9.180438995361328,2324.545834541321
D4:22:CD:00:05:6B,39.419429779052734,32.133094787597656,-16.407371520996094,-0.141310453414917,-8.476507186889648,-7.856371879577637,2324.545834541321
D4:22:CD:00:49:AA,-172.45199584960938,-75.43717193603516,103.41798400878906,-0.22991079092025757,-0.6074808835983276,-5.71650505065918,2324.545834541321
D4:22:CD:00:05:6E,-89.58259582519531,-68.44200897216797,-102.5227279663086,-4.914085388183594,-4.75191593170166,-10.831356048583984,2324.545834541321
D4:22:CD:00:05:5E,-143.04783630371094,-63.709068298339844,-51.47460174560547,3.0663585662841797,4.640154838562012,-10.189428329467773,2324.545834541321
D4:22:CD:00:05:5D,174.55575561523438,-75.80000305175781,-86.72327423095703,2.8448219299316406,1.3652615547180176,5.341859817504883,2324.606374025345
D4:22:CD:00:05:6B,50.28675079345703,35.77212905883789,-14.01179027557373,-2.7372970581054688,-4.496345520019531,-8.852479934692383,2324.606374025345
D4:22:CD:00:49:AA,-168.77407836914062,-73.56817626953125,99.99769592285156,5.377732276916504,0.33357274532318115,-7.749628067016602,2324.606374025345
D4:22:CD:00:05:6E,-77.24568176269531,-64.40892791748047,-105.45668029785156,-3.816892147064209,-4.306638717651367,-11.955963134765625,2324.606374025345
D4:22:CD:00:05:5E,-122.33535766601562,-64.36934661865234,-73.70993041992188,1.4657068252563477,1.9550542831420898,-9.719930648803711,2324.606374025345
D4:22:CD:00:05:5D,171.30667114257812,-76.1539535522461,-91.27603912353516,2.058076858520508,13.993515014648438,-6.570599555969238,2324.6363656520844
D4:22:CD:00:05:6B,57.7852783203125,40.643428802490234,-16.051502227783203,-2.301875114440918,-1.2339909076690674,-9.732097625732422,2324.6363656520844
D4:22:CD:00:49:AA,-168.55577087402344,-74.61610412597656,99.07591247558594,2.751401901245117,1.353339433670044,-9.506929397583008,2324.6363656520844
D4:22:CD:00:05:6E,-69.03761291503906,-60.23748016357422,-105.02115631103516,-3.0861716270446777,-6.264860153198242,-12.0460205078125,2324.6363656520844
D4:22:CD:00:05:5E,-100.35710144042969,-63.46415710449219,-96.82227325439453,-1.724402904510498,0.26309919357299805,-8.630416870117188,2324.6363656520844
D4:22:CD:00:05:5D,170.80828857421875,-70.44517517089844,-87.78459167480469,5.361504554748535,-7.83737850189209,-11.251749038696289,2324.6663739681244
D4:22:CD:00:05:6B,60.2650260925293,46.832340240478516,-22.770597457885742,1.1173734664916992,1.0727512836456299,-9.326900482177734,2324.6663739681244
D4:22:CD:00:49:AA,-168.50245666503906,-77.2126235961914,100.11666107177734,-5.378641128540039,1.0241756439208984,-7.260761260986328,2324.6663739681244
D4:22:CD:00:05:6E,-66.29987335205078,-56.57155990600586,-102.93453979492188,-0.5466704368591309,-9.26559066772461,-11.294990539550781,2324.6663739681244
D4:22:CD:00:05:5E,-81.63653564453125,-60.601078033447266,-117.80863189697266,-7.8977766036987305,-2.5011134147644043,-7.981446266174316,2324.6663739681244
D4:22:CD:00:05:5D,178.99998474121094,-70.32372283935547,-89.13934326171875,-12.17306137084961,2.8083810806274414,-11.00027847290039,2324.6959297657013
D4:22:CD:00:05:6B,55.26692199707031,53.17795944213867,-34.7038459777832,3.7120137214660645,2.883626937866211,-8.152769088745117,2324.6959297657013
D4:22:CD:00:49:AA,-164.9226837158203,-79.68763732910156,98.7402114868164,-2.553338050842285,-0.13097143173217773,-6.674958229064941,2324.6959297657013
D4:22:CD:00:05:6E,-68.46250915527344,-53.787899017333984,-100.64636993408203,0.1326410174369812,-8.954002380371094,-9.733682632446289,2324.6959297657013
D4:22:CD:00:05:5E,-71.39152526855469,-56.83599853515625,-134.376708984375,-13.600824356079102,-6.384366989135742,-3.5557851791381836,2324.6959297657013
D4:22:CD:00:05:5D,178.28872680664062,-69.7601547241211,-90.64358520507812,3.8705596923828125,-5.309271812438965,-3.496087074279785,2324.7259290218353
D4:22:CD:00:05:6B,39.69742202758789,57.75688552856445,-54.46883010864258,2.65238094329834,0.05778491497039795,-10.003173828125,2324.7259290218353
D4:22:CD:00:49:AA,-159.3728485107422,-79.79712677001953,95.4319076538086,4.059329986572266,1.6190145015716553,-2.4815335273742676,2324.7259290218353
D4:22:CD:00:05:6E,-72.5599136352539,-52.486793518066406,-98.83405303955078,0.6292985677719116,-8.149856567382812,-6.292756080627441,2324.7259290218353
D4:22:CD:00:05:5E,-69.13835144042969,-53.76639938354492,-145.63426208496094,-24.203575134277344,-5.803713798522949,-4.333349227905273,2324.7259290218353
D4:22:CD:00:05:5D,179.9482421875,-69.10658264160156,-89.79519653320312,-0.8469256162643433,-3.839177131652832,2.5465269088745117,2324.7559292316437
D4:22:CD:00:05:6B,13.606948852539062,59.090023040771484,-82.49505615234375,3.5978174209594727,-3.548105239868164,-14.686075210571289,2324.7559292316437
D4:22:CD:00:49:AA,-163.84292602539062,-79.85684967041016,99.13227081298828,4.310262680053711,0.8184850215911865,2.3345556259155273,2324.7559292316437
D4:22:CD:00:05:6E,-74.34353637695312,-52.91342544555664,-97.77671813964844,1.9283316135406494,-8.782426834106445,-3.2911787033081055,2324.7559292316437
D4:22:CD:00:05:5E,-74.49314880371094,-53.9369010925293,-149.98974609375,-21.812274932861328,-1.0940687656402588,-10.001388549804688,2324.7559292316437
D4:22:CD:00:05:5D,179.41453552246094,-68.45494079589844,-88.4127426147461,0.44334685802459717,-2.0108299255371094,1.171828269958496,2324.785947084427
D4:22:CD:00:05:6B,-19.764169692993164,53.52906036376953,-111.9432601928711,1.7761552333831787,-2.7109336853027344,-30.296810150146484,2324.785947084427
D4:22:CD:00:49:AA,-175.36953735351562,-80.6895980834961,106.10967254638672,-0.832545280456543,-2.31280517578125,2.3979759216308594,2324.785947084427
D4:22:CD:00:05:6E,-73.15142822265625,-54.13249588012695,-96.56427001953125,1.8149142265319824,-9.214973449707031,-2.7270936965942383,2324.785947084427
D4:22:CD:00:05:5E,-77.50316619873047,-57.82427978515625,-149.1581573486328,-15.130369186401367,3.6564111709594727,-8.325942993164062,2324.785947084427
D4:22:CD:00:05:5D,177.2508087158203,-68.07794952392578,-85.1239242553711,3.535355567932129,-1.2447285652160645,0.3401355743408203,2324.816470861435
D4:22:CD:00:05:6B,-45.04258346557617,45.6167106628418,-124.98829650878906,-5.463366508483887,5.830300331115723,-9.516977310180664,2324.816470861435
D4:22:CD:00:49:AA,174.7874755859375,-81.64269256591797,111.84104919433594,-5.97227668762207,-1.6563260555267334,1.722188949584961,2324.816470861435
D4:22:CD:00:05:6E,-71.651611328125,-54.95193099975586,-94.08523559570312,3.409252166748047,-9.629627227783203,-5.1230058670043945,2324.816470861435
D4:22:CD:00:05:5E,-85.4559097290039,-60.46390914916992,-140.371337890625,-7.483067512512207,-8.044235229492188,0.30805206298828125,2324.816470861435
D4:22:CD:00:05:5D,175.12828063964844,-68.58605194091797,-80.51654815673828,-2.116757392883301,0.047907762229442596,3.3568248748779297,2324.846471309662
D4:22:CD:00:05:6B,-58.17583084106445,47.05198287963867,-121.07470703125,-16.901016235351562,-0.017139911651611328,2.0550413131713867,2324.846471309662
D4:22:CD:00:49:AA,166.93624877929688,-82.15094757080078,118.30887603759766,-5.849399566650391,-2.1194677352905273,0.030887603759765625,2324.846471309662
D4:22:CD:00:05:6E,-75.67680358886719,-56.619930267333984,-89.39766693115234,5.144235610961914,-10.796300888061523,-6.091047286987305,2324.846471309662
D4:22:CD:00:05:5E,-90.48566436767578,-61.84728240966797,-132.02886962890625,-0.8253264427185059,-19.152565002441406,-4.257571220397949,2324.846471309662
D4:22:CD:00:05:5D,170.4501495361328,-69.24310302734375,-75.81761932373047,-1.5657916069030762,-3.908668041229248,2.451009750366211,2324.906021595001
D4:22:CD:00:05:6B,-48.4999885559082,47.798702239990234,-115.18133544921875,-8.042989730834961,0.18720436096191406,-9.14300537109375,2324.906021595001
D4:22:CD:00:49:AA,164.14105224609375,-81.7782974243164,119.59083557128906,-2.1963443756103516,-1.1337745189666748,1.1671552658081055,2324.906021595001
D4:22:CD:00:05:6E,-86.3996810913086,-59.01586151123047,-83.0933837890625,6.5480852127075195,-8.880355834960938,-2.3195371627807617,2324.906021595001
D4:22:CD:00:05:5E,-99.92918395996094,-63.161170959472656,-123.43362426757812,2.4752211570739746,7.344107627868652,30.075576782226562,2324.906021595001
D4:22:CD:00:05:5D,164.5252227783203,-69.18184661865234,-69.2154541015625,-2.0881643295288086,-1.362123966217041,2.1638002395629883,2324.9360208511353
D4:22:CD:00:05:6B,-35.34161376953125,48.3108024597168,-101.21269989013672,-5.9985857009887695,-1.5783026218414307,-12.741044998168945,2324.9360208511353
D4:22:CD:00:49:AA,159.61416625976562,-81.58326721191406,121.9502944946289,0.8584030866622925,-2.850660800933838,0.20709800720214844,2324.9360208511353
D4:22:CD:00:05:6E,-97.73643493652344,-60.810604095458984,-77.70124053955078,8.09672737121582,-6.992363929748535,1.6388015747070312,2324.9360208511353
D4:22:CD:00:05:5E,-110.72022247314453,-62.219730377197266,-113.67634582519531,-6.545167922973633,1.1240453720092773,0.18829345703125,2324.9360208511353
D4:22:CD:00:05:5D,156.96844482421875,-68.86893463134766,-61.90187454223633,0.3670632243156433,-0.47875380516052246,0.6672544479370117,2324.9661118984222
D4:22:CD:00:05:6B,-23.438623428344727,45.894779205322266,-81.60424041748047,-12.499731063842773,-10.431169509887695,-8.087589263916016,2324.9661118984222
D4:22:CD:00:49:AA,152.40438842773438,-81.53707885742188,126.54315185546875,1.9104642868041992,-1.9581382274627686,0.570037841796875,2324.9661118984222
D4:22:CD:00:05:6E,-108.9648666381836,-62.368316650390625,-73.99472045898438,5.997876167297363,-7.950441360473633,2.166189193725586,2324.9661118984222
D4:22:CD:00:05:5E,-117.08767700195312,-63.17683792114258,-107.06158447265625,-9.504549026489258,0.34532278776168823,-4.319623947143555,2324.9661118984222
D4:22:CD:00:05:5D,148.5852508544922,-68.14041137695312,-55.27248764038086,1.2871463298797607,-1.6465933322906494,1.774174690246582,2324.9957258701324
D4:22:CD:00:05:6B,-12.203393936157227,39.39287185668945,-64.929443359375,-6.777390480041504,-4.674701690673828,-2.980614185333252,2324.9957258701324
D4:22:CD:00:49:AA,151.76718139648438,-81.03619384765625,124.63861846923828,3.888805866241455,0.7598634958267212,0.7093095779418945,2324.9957258701324
D4:22:CD:00:05:6E,-120.38267517089844,-63.98672866821289,-70.93939971923828,0.5769051313400269,-0.6794130802154541,3.4322385787963867,2324.9957258701324
D4:22:CD:00:05:5E,-121.4647216796875,-64.59009552001953,-102.67449188232422,-5.150702476501465,0.31781840324401855,0.4100627899169922,2324.9957258701324
D4:22:CD:00:05:5D,139.40438842773438,-67.5496597290039,-50.82887268066406,2.3230161666870117,-3.589958667755127,4.521572113037109,2325.0257263183594
D4:22:CD:00:05:6B,-5.129995822906494,29.80061149597168,-52.42924880981445,-7.429257392883301,3.2502713203430176,6.552576065063477,2325.0257263183594
D4:22:CD:00:49:AA,154.20669555664062,-81.06145477294922,119.77649688720703,6.246065139770508,3.7325658798217773,-0.9797534942626953,2325.0257263183594
D4:22:CD:00:05:6E,-126.76609802246094,-64.79804229736328,-70.56234741210938,-2.5237889289855957,1.5086307525634766,3.830446243286133,2325.0257263183594
D4:22:CD:00:05:5E,-124.51350402832031,-66.0581283569336,-100.22773742675781,-4.756829261779785,-0.6465845108032227,0.4916505813598633,2325.0257263183594
D4:22:CD:00:05:5D,129.43899536132812,-66.12931060791016,-49.819068908691406,11.463924407958984,5.357781410217285,3.114199638366699,2325.055727005005
D4:22:CD:00:05:6B,-2.448876142501831,17.575088500976562,-40.99744415283203,-2.058802604675293,8.003124237060547,0.7284927368164062,2325.055727005005
D4:22:CD:00:49:AA,164.33322143554688,-79.52617645263672,107.7367172241211,2.3095531463623047,0.919570803642273,0.5178890228271484,2325.055727005005
D4:22:CD:00:05:6E,-124.0666732788086,-64.96574401855469,-74.43846130371094,-7.177751541137695,-1.431290626525879,1.1503610610961914,2325.055727005005
D4:22:CD:00:05:5E,-125.57408142089844,-68.13157653808594,-99.83013916015625,-3.990583896636963,-0.5988930463790894,0.8735160827636719,2325.055727005005
D4:22:CD:00:05:5D,130.23963928222656,-60.55614471435547,-58.92728805541992,14.418855667114258,17.368736267089844,9.933618545532227,2325.0857405662537
D4:22:CD:00:05:6B,-5.644268989562988,3.227276086807251,-28.283687591552734,3.219266891479492,4.268162727355957,0.7115478515625,2325.0857405662537
D4:22:CD:00:49:AA,175.14781188964844,-78.15145874023438,98.6077880859375,-0.6706966161727905,2.888552665710449,5.9433746337890625,2325.0857405662537
D4:22:CD:00:05:6E,-118.46063232421875,-64.67195892333984,-79.22750091552734,-9.79466438293457,-5.664005279541016,2.375178337097168,2325.0857405662537
D4:22:CD:00:05:5E,-122.4011001586914,-71.33027648925781,-102.66712951660156,-3.7885069847106934,-1.5160820484161377,0.4620628356933594,2325.0857405662537
D4:22:CD:00:05:5D,136.07691955566406,-51.79615783691406,-70.83891296386719,11.025384902954102,8.266767501831055,5.384428977966309,2325.116274833679
D4:22:CD:00:05:6B,-17.47120475769043,-10.5335111618042,-15.175365447998047,7.8017377853393555,14.090545654296875,-9.244573593139648,2325.116274833679
D4:22:CD:00:49:AA,-179.33724975585938,-77.72482299804688,95.76276397705078,5.362749099731445,1.2703790664672852,4.894914627075195,2325.116274833679
D4:22:CD:00:05:6E,-114.8697280883789,-64.6634521484375,-81.72396087646484,-5.636237144470215,-5.969076156616211,1.0577468872070312,2325.116274833679
D4:22:CD:00:05:5E,-111.06133270263672,-75.63202667236328,-112.13630676269531,-3.112515926361084,-1.6596221923828125,-1.666152000427246,2325.116274833679
D4:22:CD:00:05:5D,141.91964721679688,-42.389076232910156,-81.62885284423828,4.6525726318359375,0.5830426216125488,-2.626330852508545,2325.1462898254395
D4:22:CD:00:05:6B,-38.06572341918945,-21.365272521972656,-4.217559337615967,3.0155515670776367,-1.8143994808197021,1.5135860443115234,2325.1462898254395
D4:22:CD:00:49:AA,-174.55531311035156,-78.52532958984375,92.58526611328125,8.17180061340332,-0.007355308160185814,3.407790184020996,2325.1462898254395
D4:22:CD:00:05:6E,-111.07727813720703,-65.54712677001953,-81.9248275756836,-2.2969727516174316,-5.4454803466796875,-0.9296140670776367,2325.1462898254395
D4:22:CD:00:05:5E,-99.82575225830078,-78.00370788574219,-121.20958709716797,-3.889523983001709,-2.7150754928588867,-2.8070597648620605,2325.1462898254395
D4:22:CD:00:05:5D,146.4407501220703,-33.667049407958984,-89.53901672363281,-2.392066478729248,-1.85579252243042,-8.75405502319336,2325.205817222595
D4:22:CD:00:05:6B,-45.811676025390625,-29.401714324951172,1.3417959213256836,-2.415536403656006,0.8029649257659912,1.1528511047363281,2325.205817222595
D4:22:CD:00:49:AA,-172.99195861816406,-80.48735809326172,91.30122375488281,1.6592390537261963,1.2005844116210938,-2.77485990524292,2325.205817222595
D4:22:CD:00:05:6E,-105.13262176513672,-67.73206329345703,-81.87821197509766,-0.4557601809501648,-5.556679725646973,-2.724146842956543,2325.205817222595
D4:22:CD:00:05:5E,-96.50917053222656,-78.84334564208984,-122.87991333007812,-3.2444982528686523,-2.6923828125,-2.48300838470459,2325.205817222595
D4:22:CD:00:05:5D,150.99900817871094,-26.6282958984375,-94.54730987548828,-3.8653550148010254,-1.8048210144042969,-11.712244033813477,2325.2358174324036
D4:22:CD:00:05:6B,-46.34772872924805,-37.788795471191406,3.2169320583343506,-1.615464210510254,2.587430953979492,-5.263401031494141,2325.2358174324036
D4:22:CD:00:49:AA,-171.07806396484375,-82.60930633544922,89.82786560058594,-1.3160245418548584,1.882087230682373,-6.8021087646484375,2325.2358174324036
D4:22:CD:00:05:6E,-95.62269592285156,-71.16104125976562,-84.10761260986328,0.6968042850494385,-4.243143081665039,-4.463098526000977,2325.2358174324036
D4:22:CD:00:05:5E,-104.02962493896484,-78.28453063964844,-113.96746063232422,-2.629549980163574,-5.484837532043457,-3.874955654144287,2325.2358174324036
D4:22:CD:00:05:5D,155.67050170898438,-22.515682220458984,-97.88982391357422,-1.0176353454589844,-0.6393957138061523,-12.308980941772461,2325.2658171653748
D4:22:CD:00:05:6B,-47.49404525756836,-48.08576583862305,4.552431106567383,1.9907338619232178,1.1844842433929443,-3.5222363471984863,2325.2658171653748
D4:22:CD:00:49:AA,-167.9545135498047,-83.52425384521484,87.86272430419922,0.4605843424797058,0.20978769659996033,-6.594590187072754,2325.2658171653748
D4:22:CD:00:05:6E,-80.10494995117188,-75.37664031982422,-90.83170318603516,0.6241194009780884,-4.052116394042969,-6.113164901733398,2325.2658171653748
D4:22:CD:00:05:5E,-119.74102020263672,-75.53627014160156,-98.27375793457031,-3.8072667121887207,-3.0978517532348633,-2.4484310150146484,2325.2658171653748
D4:22:CD:00:05:5D,160.73838806152344,-21.6583251953125,-101.22733306884766,-2.8752918243408203,-2.3564810752868652,-9.276939392089844,2325.2963569164276
D4:22:CD:00:05:6B,-48.331024169921875,-59.99329376220703,4.991728782653809,4.656402587890625,1.5443480014801025,3.8891448974609375,2325.2963569164276
D4:22:CD:00:49:AA,-167.2653350830078,-84.0645980834961,88.55010223388672,1.699904203414917,-0.5917280912399292,-5.904746055603027,2325.2963569164276
D4:22:CD:00:05:6E,-55.60982894897461,-79.10541534423828,-106.57807159423828,1.7398338317871094,-5.223073959350586,-5.824767112731934,2325.2963569164276
D4:22:CD:00:05:5E,-131.91903686523438,-70.61046600341797,-86.56290435791016,-5.3103837966918945,-0.10078959167003632,-4.861810684204102,2325.2963569164276
D4:22:CD:00:05:5D,163.0230712890625,-24.865747451782227,-105.33396911621094,-3.23891019821167,-6.7065839767456055,-12.678691864013672,2325.3263692855835
D4:22:CD:00:05:6B,-41.017303466796875,-73.22537994384766,-5.357059955596924,9.00393295288086,-1.0415453910827637,21.344707489013672,2325.3263692855835
D4:22:CD:00:49:AA,-166.72557067871094,-84.45426177978516,89.23273468017578,-0.6486599445343018,-0.6047043800354004,-5.994367599487305,2325.3263692855835
D4:22:CD:00:05:6E,-20.644311904907227,-79.70104217529297,-135.82144165039062,2.3874778747558594,-5.572818756103516,-2.9840550422668457,2325.3263692855835
D4:22:CD:00:05:5E,-139.27163696289062,-65.75218200683594,-80.31256866455078,-5.213963508605957,-2.7784829139709473,0.8273916244506836,2325.3263692855835
D4:22:CD:00:05:5D,161.69505310058594,-30.23703956604004,-110.05535888671875,-1.0314626693725586,2.558016777038574,11.938470840454102,2325.355453014374
D4:22:CD:00:05:6B,-0.8356359004974365,-80.64922332763672,-49.10426330566406,-1.6093740463256836,0.3787696361541748,25.926849365234375,2325.355453014374
D4:22:CD:00:49:AA,-159.63047790527344,-84.88312530517578,83.4897232055664,0.9650788307189941,-0.19166961312294006,-1.661447525024414,2325.355453014374
D4:22:CD:00:05:6E,12.738752365112305,-76.68879699707031,-165.28538513183594,0.4863355755805969,-7.234619140625,-0.16645336151123047,2325.355453014374
D4:22:CD:00:05:5E,-143.46966552734375,-62.086551666259766,-77.19911193847656,-4.789697647094727,-0.8424373865127563,0.45233917236328125,2325.355453014374
D4:22:CD:00:05:5D,155.72894287109375,-30.01165771484375,-112.67913818359375,-13.583911895751953,-16.236465454101562,1.9974908828735352,2325.385464668274
D4:22:CD:00:05:6B,-1.641569972038269,-79.87626647949219,-48.40262222290039,0.3971116542816162,7.315497398376465,4.7955827713012695,2325.385464668274
D4:22:CD:00:49:AA,-145.91041564941406,-85.610107421875,70.09668731689453,6.541186332702637,1.4437153339385986,4.502257347106934,2325.385464668274
D4:22:CD:00:05:6E,41.67909240722656,-69.77381896972656,169.79710388183594,1.352015495300293,-10.719316482543945,6.194934844970703,2325.385464668274
D4:22:CD:00:05:5E,-146.2899627685547,-60.131263732910156,-75.01289367675781,-3.7929110527038574,-0.1172497570514679,1.051483154296875,2325.385464668274
D4:22:CD:00:05:5D,156.00592041015625,-28.662912368774414,-111.05980682373047,-18.88884735107422,-9.699825286865234,14.680595397949219,2325.4159936904907
D4:22:CD:00:05:6B,-37.378509521484375,-71.72748565673828,-16.906709671020508,13.326179504394531,-0.8088870048522949,5.826669692993164,2325.4159936904907
D4:22:CD:00:49:AA,-147.06764221191406,-85.29681396484375,69.40557098388672,2.029470920562744,-0.04891759902238846,4.356016159057617,2325.4159936904907
D4:22:CD:00:05:6E,59.14616775512695,-58.44662094116211,156.79588317871094,6.70853328704834,-14.862913131713867,12.30251693725586,2325.4159936904907
D4:22:CD:00:05:5E,-148.1849822998047,-59.82571029663086,-73.24888610839844,-5.230034828186035,-1.1235833168029785,0.4962186813354492,2325.4159936904907
D4:22:CD:00:05:5D,156.40394592285156,-23.516965866088867,-107.07723999023438,-9.324548721313477,-13.240432739257812,9.451135635375977,2325.445992708206
D4:22:CD:00:05:6B,-56.61962890625,-56.78348159790039,-7.7408447265625,11.01138687133789,-8.712791442871094,19.333881378173828,2325.445992708206
D4:22:CD:00:49:AA,-148.87014770507812,-84.48431396484375,69.86634063720703,-1.1090340614318848,1.3246474266052246,7.22589111328125,2325.445992708206
D4:22:CD:00:05:6E,67.51593780517578,-45.677547454833984,151.36822509765625,16.029582977294922,-19.57015609741211,16.10177230834961,2325.445992708206
D4:22:CD:00:05:5E,-148.77638244628906,-61.032325744628906,-73.19861602783203,-6.037154197692871,-0.598315954208374,1.4074926376342773,2325.445992708206
D4:22:CD:00:05:5D,160.0913848876953,-15.625874519348145,-104.2857666015625,-7.076437950134277,-14.544708251953125,11.858489990234375,2325.505540370941
D4:22:CD:00:05:6B,-54.0949821472168,-42.479679107666016,-9.633580207824707,13.141803741455078,-0.8215188980102539,14.59040641784668,2325.505540370941
D4:22:CD:00:49:AA,-155.2442626953125,-83.63764190673828,75.95110321044922,4.170322418212891,2.263951301574707,9.122060775756836,2325.505540370941
D4:22:CD:00:05:6E,69.93055725097656,-31.066627502441406,144.32261657714844,14.538379669189453,-14.296018600463867,16.137542724609375,2325.505540370941
D4:22:CD:00:05:5E,-147.86627197265625,-64.08430480957031,-75.37822723388672,-5.866495132446289,-0.8393850326538086,3.1422033309936523,2325.505540370941
D4:22:CD:00:05:5D,157.4897918701172,-8.938664436340332,-104.4697265625,-9.132234573364258,-8.258272171020508,6.482608795166016,2325.5365409851074
D4:22:CD:00:05:6B,-52.2313117980957,-31.18852996826172,-13.375351905822754,9.700265884399414,-1.57332181930542,1.5989093780517578,2325.5365409851074
D4:22:CD:00:49:AA,-165.43795776367188,-82.49297332763672,85.1872329711914,5.907523155212402,2.33705472946167,9.040525436401367,2325.5365409851074
D4:22:CD:00:05:6E,66.96320343017578,-16.88357925415039,135.98826599121094,4.311725616455078,-8.564985275268555,8.874174118041992,2325.5365409851074
D4:22:CD:00:05:5E,-143.916748046875,-68.68488311767578,-80.80715942382812,-4.396651268005371,-4.1097412109375,7.791587829589844,2325.5365409851074
D4:22:CD:00:05:5D,152.3872528076172,-5.238704204559326,-106.15533447265625,-4.986706733703613,-2.0664052963256836,-2.3156075477600098,2325.5655403137207
D4:22:CD:00:05:6B,-57.9869270324707,-24.635366439819336,-15.688434600830078,0.3058321475982666,-0.6554906368255615,-7.422215461730957,2325.5655403137207
D4:22:CD:00:49:AA,-173.67236328125,-81.80020141601562,91.8221664428711,5.509638786315918,1.3528470993041992,9.39301872253418,2325.5655403137207
D4:22:CD:00:05:6E,60.50027847290039,-7.928767204284668,128.35215759277344,-1.3168957233428955,-9.804344177246094,2.034982681274414,2325.5655403137207
D4:22:CD:00:05:5E,-132.90806579589844,-74.08369445800781,-90.42068481445312,-0.03649988770484924,-8.603469848632812,7.832603454589844,2325.5655403137207
D4:22:CD:00:05:5D,151.7553253173828,-5.185351371765137,-107.83627319335938,-3.597321033477783,1.3806672096252441,-8.590414047241211,2325.5960869789124
D4:22:CD:00:05:6B,-63.49137496948242,-24.119327545166016,-17.08699607849121,-4.651786804199219,1.9570789337158203,-0.8548707962036133,2325.5960869789124
D4:22:CD:00:49:AA,179.2126922607422,-81.8422622680664,96.8277359008789,3.131845474243164,1.2430379390716553,2.4089250564575195,2325.5960869789124
D4:22:CD:00:05:6E,52.3535270690918,-4.090272426605225,123.1290512084961,-6.477606773376465,-7.937826156616211,0.9846267700195312,2325.5960869789124
D4:22:CD:00:05:5E,-99.18441009521484,-78.82035827636719,-118.94425201416016,7.526325225830078,-2.71970272064209,-3.3700270652770996,2325.5960869789124
D4:22:CD:00:05:5D,153.2555389404297,-8.882631301879883,-108.84782409667969,-5.492026329040527,2.9339213371276855,-11.889276504516602,2325.626083135605
D4:22:CD:00:05:6B,-62.605403900146484,-28.83399200439453,-18.547563552856445,-3.2748193740844727,4.027031898498535,-7.289149284362793,2325.626083135605
D4:22:CD:00:49:AA,176.06417846679688,-81.1749267578125,98.45130920410156,-0.33094078302383423,0.40889638662338257,-3.9265670776367188,2325.626083135605
D4:22:CD:00:05:6E,41.281494140625,-2.4635679721832275,120.617919921875,-6.818699836730957,-6.4647722244262695,-3.0280494689941406,2325.626083135605
D4:22:CD:00:05:5E,-77.58511352539062,-78.4485855102539,-135.772216796875,-8.972875595092773,1.4080626964569092,-11.09176254272461,2325.626083135605
D4:22:CD:00:05:5D,153.43844604492188,-15.765995979309082,-108.88024139404297,-4.790610313415527,2.1322131156921387,-13.058080673217773,2325.656083345413
D4:22:CD:00:05:6B,-63.75310134887695,-35.69905471801758,-19.203752517700195,-0.6510900259017944,2.022139072418213,-10.716327667236328,2325.656083345413
D4:22:CD:00:49:AA,176.34088134765625,-80.06476593017578,98.38037872314453,-2.630436897277832,-1.2329480648040771,-5.845310211181641,2325.656083345413
D4:22:CD:00:05:6E,29.307586669921875,-1.0789587497711182,121.05219268798828,-4.717841148376465,-2.512599468231201,-8.070867538452148,2325.656083345413
D4:22:CD:00:05:5E,-68.36607360839844,-77.15241241455078,-144.16085815429688,1.5849344730377197,-3.249436378479004,-7.603080749511719,2325.656083345413
D4:22:CD:00:05:5D,151.3860626220703,-25.105148315429688,-108.38399505615234,-3.0176243782043457,0.048545561730861664,-11.436918258666992,2325.6860978603363
D4:22:CD:00:05:6B,-67.78916931152344,-42.63090133666992,-18.676319122314453,-1.9439005851745605,1.4276893138885498,-6.243173599243164,2325.6860978603363
D4:22:CD:00:49:AA,176.73989868164062,-79.94359588623047,99.27598571777344,-1.549936056137085,0.25967419147491455,-10.521677017211914,2325.6860978603363
D4:22:CD:00:05:6E,18.696491241455078,0.9144513607025146,124.34664154052734,-4.277939796447754,0.0068671805784106255,-9.352277755737305,2325.6860978603363
D4:22:CD:00:05:5E,-67.17340850830078,-76.08513641357422,-147.94906616210938,-2.468437671661377,-2.0456113815307617,-12.533859252929688,2325.6860978603363
D4:22:CD:00:05:5D,147.87049865722656,-35.93107986450195,-107.43822479248047,-1.6859679222106934,-1.2156987190246582,-9.006065368652344,2325.715632915497
D4:22:CD:00:05:6B,-68.91171264648438,-48.42356872558594,-18.128646850585938,-1.8382861614227295,3.8454360961914062,-3.7195048332214355,2325.715632915497
D4:22:CD:00:49:AA,173.9092559814453,-79.87633514404297,102.1475830078125,0.5247287750244141,0.40105175971984863,-10.193880081176758,2325.715632915497
D4:22:CD:00:05:6E,11.133914947509766,4.561511039733887,130.4535369873047,-3.90261173248291,2.5042123794555664,-9.358041763305664,2325.715632915497
D4:22:CD:00:05:5E,-74.5108642578125,-74.90876007080078,-146.39674377441406,-20.709003448486328,18.37957000732422,-14.720842361450195,2325.715632915497
D4:22:CD:00:05:5D,143.78932189941406,-47.503326416015625,-105.65483093261719,0.02683272957801819,-2.1273789405822754,-6.702035903930664,2325.7456333637238
D4:22:CD:00:05:6B,-68.10698699951172,-52.337066650390625,-17.985492706298828,-0.23432612419128418,2.248138427734375,-7.904807090759277,2325.7456333637238
D4:22:CD:00:49:AA,169.11065673828125,-80.94173431396484,105.72640991210938,0.8139731884002686,-0.9280505180358887,-8.674873352050781,2325.7456333637238
D4:22:CD:00:05:6E,7.564425945281982,10.561591148376465,140.0544891357422,-12.489112854003906,5.151778221130371,-10.959281921386719,2325.7456333637238
D4:22:CD:00:05:5E,-94.41311645507812,-73.65359497070312,-131.4534454345703,-2.74019193649292,-9.921895980834961,-2.9467320442199707,2325.7456333637238
D4:22:CD:00:05:5D,138.89756774902344,-59.596126556396484,-101.89884185791016,0.4857349991798401,-1.2553982734680176,-2.3531126976013184,2325.8061747550964
D4:22:CD:00:05:6B,-70.19134521484375,-54.54709243774414,-17.50271224975586,-1.4523065090179443,2.2183837890625,-6.783230781555176,2325.8061747550964
D4:22:CD:00:49:AA,165.94554138183594,-81.99629211425781,108.41808319091797,0.8295155763626099,-0.16185039281845093,-9.58912467956543,2325.8061747550964
D4:22:CD:00:05:6E,9.113697052001953,19.89773178100586,151.09329223632812,-25.899192810058594,16.159160614013672,-16.58722686767578,2325.8061747550964
D4:22:CD:00:05:5E,-107.8980484008789,-71.29887390136719,-120.10858917236328,-5.176011085510254,-6.20638370513916,0.3836526870727539,2325.8061747550964
D4:22:CD:00:05:5D,130.50404357910156,-71.4603500366211,-90.71215057373047,1.479912281036377,-5.3024139404296875,2.3172788619995117,2325.8361756801605
D4:22:CD:00:05:6B,-71.20339965820312,-55.68904495239258,-17.45218276977539,-2.995082378387451,3.5150609016418457,-5.974063873291016,2325.8361756801605
D4:22:CD:00:49:AA,161.43185424804688,-82.4005126953125,111.21138763427734,4.661382675170898,0.3300022482872009,-3.7456908226013184,2325.8361756801605
D4:22:CD:00:05:6E,29.249103546142578,28.090574264526367,151.210205078125,4.808897018432617,-1.197638750076294,-17.929615020751953,2325.8361756801605
D4:22:CD:00:05:5E,-116.32569122314453,-68.38884735107422,-113.57705688476562,-2.3381662368774414,-3.8881821632385254,5.206182479858398,2325.8361756801605
D4:22:CD:00:05:5D,99.22431945800781,-79.06144714355469,-51.03642654418945,10.499309539794922,5.01837158203125,12.689878463745117,2325.866170167923
D4:22:CD:00:05:6B,-69.8462905883789,-56.43537139892578,-18.816139221191406,-2.865983486175537,5.724824905395508,-4.251770973205566,2325.866170167923
D4:22:CD:00:49:AA,161.86253356933594,-82.24283599853516,108.95731353759766,5.034724235534668,-3.4773521423339844,3.344244956970215,2325.866170167923
D4:22:CD:00:05:6E,56.80385208129883,35.69393539428711,141.16207885742188,0.7997386455535889,-8.49609375,-16.15930938720703,2325.866170167923
D4:22:CD:00:05:5E,-118.64973449707031,-65.65559387207031,-113.50348663330078,-4.549991607666016,-2.151535987854004,7.170291900634766,2325.866170167923
D4:22:CD:00:05:5D,78.69779205322266,-77.09085845947266,-21.75844955444336,14.931272506713867,19.399208068847656,-7.946918487548828,2325.895723581314
D4:22:CD:00:05:6B,-67.91460418701172,-58.83556365966797,-21.346635818481445,-0.3165987730026245,2.2846226692199707,-4.355212211608887,2325.895723581314
D4:22:CD:00:49:AA,173.4952392578125,-82.16704559326172,99.26090240478516,1.3085758686065674,-1.7280564308166504,5.977768898010254,2325.895723581314
D4:22:CD:00:05:6E,72.62059020996094,42.614463806152344,127.47718811035156,-11.936359405517578,-6.438718795776367,-7.2890825271606445,2325.895723581314
D4:22:CD:00:05:5E,-112.75757598876953,-64.74101257324219,-119.46733093261719,-6.089855194091797,-4.607304573059082,7.967569351196289,2325.895723581314
D4:22:CD:00:05:5D,97.79839324951172,-76.69050598144531,-38.34846115112305,24.89084243774414,13.093645095825195,-0.4058961868286133,2325.9257237911224
D4:22:CD:00:05:6B,-70.21265411376953,-64.74347686767578,-21.458396911621094,-1.2693822383880615,-0.6037294864654541,2.3375015258789062,2325.9257237911224
D4:22:CD:00:49:AA,179.6003875732422,-81.05670928955078,94.42545318603516,4.866268157958984,-1.5875062942504883,9.41234016418457,2325.9257237911224
D4:22:CD:00:05:6E,68.3045883178711,46.573974609375,104.80191040039062,-8.495746612548828,7.688973426818848,-7.92393684387207,2325.9257237911224
D4:22:CD:00:05:5E,-93.43547058105469,-65.89176940917969,-133.5931396484375,-0.2880004644393921,-7.920680046081543,3.1769771575927734,2325.9257237911224
D4:22:CD:00:05:5D,121.51029968261719,-75.99694061279297,-64.99085235595703,-6.837890625,-14.602237701416016,4.513883590698242,2325.955724000931
D4:22:CD:00:05:6B,-78.99285125732422,-73.66496276855469,-13.02700138092041,1.5781402587890625,1.1724350452423096,16.038379669189453,2325.955724000931
D4:22:CD:00:49:AA,-175.84278869628906,-80.65170288085938,91.44507598876953,1.981121301651001,-2.6424455642700195,4.536005020141602,2325.955724000931
D4:22:CD:00:05:6E,57.73698425292969,42.761085510253906,82.22508239746094,-8.191448211669922,-0.4493212103843689,-6.976435661315918,2325.955724000931
D4:22:CD:00:05:5E,-76.74333190917969,-64.82685852050781,-140.94459533691406,-12.762323379516602,-4.131059646606445,-7.1147918701171875,2325.955724000931
D4:22:CD:00:05:5D,134.99615478515625,-74.93295288085938,-76.27982330322266,-5.668332099914551,-3.5586390495300293,13.98869514465332,2325.9857420921326
D4:22:CD:00:05:6B,-94.09918212890625,-78.68081665039062,3.9134511947631836,-7.166105270385742,13.996011734008789,26.35356903076172,2325.9857420921326
D4:22:CD:00:49:AA,-171.90185546875,-79.00198364257812,92.03681945800781,-3.0196304321289062,-4.5622968673706055,-0.3557424545288086,2325.9857420921326
D4:22:CD:00:05:6E,51.71796798706055,32.33203125,65.39018249511719,-0.7212264537811279,-4.7664995193481445,-11.004587173461914,2325.9857420921326
D4:22:CD:00:05:5E,-70.27320861816406,-65.48189544677734,-137.23599243164062,-34.44690704345703,3.999232769012451,-7.325438499450684,2325.9857420921326
D4:22:CD:00:05:5D,149.3495330810547,-73.23789978027344,-82.01029968261719,-10.062795639038086,8.811605453491211,4.661734580993652,2326.0162692070007
D4:22:CD:00:05:6B,-79.1554183959961,-76.75789642333984,4.876185417175293,11.060609817504883,-5.430075645446777,3.2735204696655273,2326.0162692070007
D4:22:CD:00:49:AA,-169.4495086669922,-77.18557739257812,94.40463256835938,-3.962702751159668,0.6541628837585449,-4.186761856079102,2326.0162692070007
D4:22:CD:00:05:6E,57.700965881347656,18.394115447998047,54.484100341796875,9.434139251708984,-9.12255859375,-16.849445343017578,2326.0162692070007
D4:22:CD:00:05:5E,-83.36323547363281,-67.33311462402344,-116.4628677368164,-24.39417266845703,-0.0995754599571228,-5.662537574768066,2326.0162692070007
D4:22:CD:00:05:5D,155.25172424316406,-72.70374298095703,-89.29179382324219,4.7576189041137695,-0.4743190407752991,-0.777008056640625,2326.0452692508698
D4:22:CD:00:05:6B,-76.0836181640625,-68.68045806884766,7.596871852874756,7.461092948913574,-4.122041702270508,-3.8614792823791504,2326.0452692508698
D4:22:CD:00:49:AA,-165.33047485351562,-74.87397766113281,94.7648696899414,-0.7767274379730225,8.866804122924805,-5.531415939331055,2326.0452692508698
D4:22:CD:00:05:6E,77.2798843383789,4.337723731994629,47.74476623535156,19.483936309814453,-1.2048892974853516,-19.563621520996094,2326.0452692508698
D4:22:CD:00:05:5E,-104.96400451660156,-66.75265502929688,-88.67326354980469,-10.376802444458008,-1.4066581726074219,-7.440664291381836,2326.0452692508698
D4:22:CD:00:05:5D,163.46888732910156,-71.82949829101562,-97.61674499511719,-0.37107664346694946,0.9745423793792725,1.0469741821289062,2326.1058201789856
D4:22:CD:00:05:6B,-81.54873657226562,-59.97393035888672,10.426109313964844,-1.1521379947662354,-3.956312656402588,-2.1677088737487793,2326.1058201789856
D4:22:CD:00:49:AA,-166.60557556152344,-72.32289123535156,95.89846801757812,5.0019683837890625,1.6307995319366455,3.3752336502075195,2326.1058201789856
D4:22:CD:00:05:6E,104.72821044921875,-9.568506240844727,44.872108459472656,6.804721832275391,11.697488784790039,-1.3398351669311523,2326.1058201789856
D4:22:CD:00:05:5E,-123.33309936523438,-63.13309860229492,-65.7779541015625,-3.692136764526367,-0.11421668529510498,-9.600149154663086,2326.1058201789856
D4:22:CD:00:05:5D,169.89688110351562,-71.30422973632812,-104.42801666259766,0.4148963689804077,1.3694934844970703,0.8620223999023438,2326.135818719864
D4:22:CD:00:05:6B,-83.08638763427734,-54.588836669921875,10.532693862915039,-1.6455368995666504,-3.2372918128967285,-4.392602920532227,2326.135818719864
D4:22:CD:00:49:AA,-169.90023803710938,-70.843017578125,97.27395629882812,-2.579270839691162,1.159398078918457,6.028246879577637,2326.135818719864
D4:22:CD:00:05:6E,121.77623748779297,-20.536487579345703,40.809165954589844,-6.892482757568359,-8.078851699829102,22.268386840820312,2326.135818719864
D4:22:CD:00:05:5E,-135.6502227783203,-59.10001754760742,-50.3771858215332,-0.04931723326444626,-0.5576378107070923,-10.037147521972656,2326.135818719864
D4:22:CD:00:05:5D,173.95838928222656,-71.27918243408203,-109.11073303222656,0.6110193729400635,0.8239076137542725,1.1962614059448242,2326.1659605503082
D4:22:CD:00:05:6B,-85.18748474121094,-53.04167556762695,9.394516944885254,-2.9631710052490234,-4.220456123352051,-5.058333396911621,2326.1659605503082
D4:22:CD:00:49:AA,-172.83920288085938,-69.78297424316406,98.73200988769531,-7.3440141677856445,2.750009059906006,1.9421348571777344,2326.1659605503082
D4:22:CD:00:05:6E,136.76731872558594,-25.850664138793945,34.301570892333984,-5.50905704498291,-7.838805198669434,5.162763595581055,2326.1659605503082
D4:22:CD:00:05:5E,-146.09962463378906,-55.786746978759766,-40.33039093017578,2.689373016357422,-0.3403065800666809,-9.859037399291992,2326.1659605503082
D4:22:CD:00:05:5D,177.79837036132812,-71.88069152832031,-113.23999786376953,-0.8554381132125854,1.361335039138794,0.9826030731201172,2326.1957750320435
D4:22:CD:00:05:6B,-87.31114959716797,-54.82089614868164,7.525383949279785,-4.640583038330078,-1.4634714126586914,1.4528608322143555,2326.1957750320435
D4:22:CD:00:49:AA,-174.99557495117188,-69.26844787597656,100.10973358154297,-3.414027690887451,1.9495460987091064,-0.18717384338378906,2326.1957750320435
D4:22:CD:00:05:6E,152.26487731933594,-27.857677459716797,25.469419479370117,-2.3512325286865234,-18.608760833740234,8.27459716796875,2326.1957750320435
D4:22:CD:00:05:5E,-154.61080932617188,-54.70368194580078,-34.37506103515625,0.6435807943344116,-3.552220344543457,-5.121417999267578,2326.1957750320435
D4:22:CD:00:05:5D,-177.71966552734375,-72.77743530273438,-118.40177917480469,-1.1176438331604004,0.21933728456497192,0.28556251525878906,2326.225854873657
D4:22:CD:00:05:6B,-86.76335144042969,-57.29838943481445,4.4203691482543945,-3.9068870544433594,2.169095516204834,2.8844194412231445,2326.225854873657
D4:22:CD:00:49:AA,-178.45887756347656,-69.56988525390625,103.06639099121094,-1.5843360424041748,1.3151562213897705,-2.5843734741210938,2326.225854873657
D4:22:CD:00:05:6E,159.21897888183594,-29.898921966552734,15.498149871826172,2.343332290649414,-9.111452102661133,-1.468414306640625,2326.225854873657
D4:22:CD:00:05:5E,-161.46774291992188,-56.817562103271484,-30.953981399536133,11.700870513916016,-4.581907272338867,-3.7597947120666504,2326.225854873657
D4:22:CD:00:05:5D,-173.23406982421875,-73.20723724365234,-123.65750122070312,-0.17105847597122192,-1.2409777641296387,-0.49909114837646484,2326.255854845047
D4:22:CD:00:05:6B,-84.96929931640625,-58.3560905456543,-0.5191107392311096,-0.7304071187973022,1.9011914730072021,-1.3321781158447266,2326.255854845047
D4:22:CD:00:49:AA,174.95751953125,-70.1732177734375,108.14938354492188,-0.7586079835891724,0.33888673782348633,-4.7263946533203125,2326.255854845047
D4:22:CD:00:05:6E,164.3480682373047,-34.01660919189453,4.124709606170654,2.7789430618286133,-8.823562622070312,1.3570623397827148,2326.255854845047
D4:22:CD:00:05:5E,-165.5496826171875,-62.2970085144043,-29.47210693359375,-4.90830135345459,5.493729591369629,9.69830322265625,2326.255854845047
D4:22:CD:00:05:5D,-170.30242919921875,-72.69467163085938,-126.20063018798828,0.19729599356651306,-2.049025058746338,-0.8533935546875,2326.285947561264
D4:22:CD:00:05:6B,-81.0609359741211,-57.86410140991211,-8.81015396118164,-1.7523729801177979,5.472169876098633,-3.9171648025512695,2326.285947561264
D4:22:CD:00:49:AA,167.0948028564453,-70.34378814697266,114.31851959228516,-0.7735632658004761,-0.8516972064971924,-4.159305572509766,2326.285947561264
D4:22:CD:00:05:6E,164.07301330566406,-40.12199401855469,-9.94877815246582,3.3158111572265625,-8.904199600219727,3.6511850357055664,2326.285947561264
D4:22:CD:00:05:5E,-170.30093383789062,-63.006004333496094,-29.170392990112305,16.775390625,-16.24695587158203,-3.092411994934082,2326.285947561264
D4:22:CD:00:05:5D,-172.42941284179688,-71.09928131103516,-122.66996765136719,-0.7279518842697144,-2.871530055999756,-1.197183609008789,2326.3154747486115
D4:22:CD:00:05:6B,-77.02581024169922,-56.60549545288086,-19.3106632232666,0.8746569156646729,4.259469985961914,-6.8752546310424805,2326.3154747486115
D4:22:CD:00:49:AA,159.30380249023438,-70.3797607421875,120.86982727050781,-1.111649751663208,-1.5782301425933838,-4.746909141540527,2326.3154747486115
D4:22:CD:00:05:6E,155.79818725585938,-47.81145477294922,-24.96375846862793,5.556775093078613,-12.156623840332031,9.080436706542969,2326.3154747486115
D4:22:CD:00:05:5E,-179.1944122314453,-66.00003051757812,-25.066965103149414,13.996389389038086,3.1771011352539062,9.82111930847168,2326.3154747486115
D4:22:CD:00:05:5D,-178.4936065673828,-68.0512466430664,-112.61087036132812,-0.6625680923461914,-4.683783531188965,-1.789689064025879,2326.346474647522
D4:22:CD:00:05:6B,-74.75065612792969,-54.031558990478516,-29.123929977416992,-2.6778926849365234,1.7524316310882568,-5.507733345031738,2326.346474647522
D4:22:CD:00:49:AA,151.88992309570312,-70.55712890625,128.03318786621094,-1.6640753746032715,0.39208608865737915,-2.954568862915039,2326.346474647522
D4:22:CD:00:05:6E,141.47659301757812,-54.94025802612305,-30.53603172302246,14.441316604614258,-8.862083435058594,6.463848114013672,2326.346474647522
D4:22:CD:00:05:5E,-177.9315185546875,-69.99974060058594,-19.773359298706055,10.314220428466797,2.0434513092041016,8.863031387329102,2326.346474647522
D4:22:CD:00:05:5D,177.2601318359375,-63.96633529663086,-101.96687316894531,0.35340213775634766,1.2416090965270996,-1.5008087158203125,2326.4060249328613
D4:22:CD:00:05:6B,-72.05870056152344,-50.33333206176758,-37.08251190185547,-3.547037124633789,4.054267883300781,-1.714818000793457,2326.4060249328613
D4:22:CD:00:49:AA,145.7628173828125,-70.83013916015625,135.03091430664062,-0.1586754024028778,1.4402461051940918,0.47866249084472656,2326.4060249328613
D4:22:CD:00:05:6E,132.57737731933594,-55.997066497802734,-24.754776000976562,15.265518188476562,-6.11342716217041,2.886625289916992,2326.4060249328613
D4:22:CD:00:05:5E,-172.03274536132812,-68.89903259277344,-20.442712783813477,3.3894543647766113,-9.496061325073242,11.469100952148438,2326.4060249328613
D4:22:CD:00:05:5D,175.71142578125,-59.8123893737793,-97.15187072753906,6.097635269165039,0.4163782000541687,-1.3895416259765625,2326.436023950577
D4:22:CD:00:05:6B,-68.35554504394531,-44.0579719543457,-43.57132339477539,-5.014391899108887,7.349296569824219,13.626791000366211,2326.436023950577
D4:22:CD:00:49:AA,146.22027587890625,-70.5612564086914,136.54173278808594,-1.8127553462982178,-2.4880194664001465,8.323797225952148,2326.436023950577
D4:22:CD:00:05:6E,131.17507934570312,-52.2269172668457,-14.3583984375,18.23025131225586,2.4798622131347656,6.284147262573242,2326.436023950577
D4:22:CD:00:05:5E,-164.0728302001953,-65.92242431640625,-23.77338981628418,8.875930786132812,-10.226640701293945,22.05978775024414,2326.436023950577
D4:22:CD:00:05:5D,176.91717529296875,-56.68414306640625,-96.68002319335938,-1.8831496238708496,1.656625509262085,3.9144229888916016,2326.466023683548
D4:22:CD:00:05:6B,-68.39846801757812,-35.394107818603516,-48.55278778076172,-8.833112716674805,10.110671997070312,15.468832015991211,2326.466023683548
D4:22:CD:00:49:AA,150.55723571777344,-70.1003189086914,134.32131958007812,-3.2846531867980957,-0.6224982738494873,14.442138671875,2326.466023683548
D4:22:CD:00:05:6E,135.86349487304688,-47.52193069458008,-6.466732501983643,13.272445678710938,5.739499092102051,11.464191436767578,2326.466023683548
D4:22:CD:00:05:5E,-158.7324981689453,-60.24999237060547,-26.86872100830078,2.9186010360717773,-11.857784271240234,16.71109390258789,2326.466023683548
