Device,EulerX,EulerY,EulerZ,FreeAccX,FreeAccY,FreeAccZ,Timestamp
D4:22:CD:00:05:5D,175.84544372558594,-56.73339080810547,-130.0146484375,3.3715524673461914,-1.0440149307250977,0.3134012222290039,2274.122603416443
D4:22:CD:00:05:6B,-67.56040954589844,-34.657928466796875,-85.87602233886719,4.9621124267578125,18.771774291992188,23.595199584960938,2274.122603416443
D4:22:CD:00:49:AA,144.31674194335938,-71.72962188720703,122.20143127441406,-1.0054385662078857,-2.3769826889038086,3.5936145782470703,2274.122603416443
D4:22:CD:00:05:6E,87.26080322265625,-54.12510299682617,7.276526927947998,11.330461502075195,4.636202812194824,11.436939239501953,2274.122603416443
D4:22:CD:00:05:5E,-176.49093627929688,-56.28987121582031,-121.83000183105469,-11.592761993408203,-3.090308666229248,14.901556015014648,2274.122603416443
D4:22:CD:00:05:5D,176.06063842773438,-54.792484283447266,-128.6312255859375,2.3620681762695312,-4.840898513793945,2.9338817596435547,2274.1266028881073
D4:22:CD:00:05:6B,-62.506797790527344,-15.313175201416016,-84.90950775146484,13.029827117919922,-0.9374809265136719,30.62051773071289,2274.1266028881073
D4:22:CD:00:49:AA,144.7190399169922,-70.94824981689453,122.69537353515625,-2.7014365196228027,-0.6707234382629395,7.244302749633789,2274.1266028881073
D4:22:CD:00:05:6E,90.5078125,-42.81383514404297,13.542742729187012,6.435886383056641,6.515494346618652,8.986421585083008,2274.1266028881073
D4:22:CD:00:05:5E,-172.19285583496094,-51.343727111816406,-124.4141616821289,-7.155967712402344,-9.629966735839844,8.636043548583984,2274.1266028881073
D4:22:CD:00:05:6B,-49.15660858154297,5.739672660827637,-82.31232452392578,11.790700912475586,-15.204809188842773,18.684223175048828,2274.129603624344
D4:22:CD:00:49:AA,146.2887420654297,-70.55093383789062,121.83008575439453,-1.599454641342163,1.8676915168762207,7.460624694824219,2274.129603624344
D4:22:CD:00:05:6E,90.88484954833984,-35.88576889038086,22.097021102905273,1.047394037246704,3.8311614990234375,0.058653831481933594,2274.129603624344
D4:22:CD:00:05:5E,-168.6708221435547,-49.57033920288086,-126.1920394897461,-1.2178964614868164,-5.319940567016602,3.7853593826293945,2274.129603624344
D4:22:CD:00:05:5D,-174.1595001220703,-64.74382781982422,-119.78230285644531,-0.40131837129592896,-0.4807863235473633,-0.48044300079345703,2274.1316027641296
D4:22:CD:00:49:AA,145.00540161132812,-71.25285339355469,124.39193725585938,-4.057894706726074,4.6148786544799805,8.18461799621582,2274.1316027641296
D4:22:CD:00:05:6E,89.42752838134766,-34.947662353515625,32.08619689941406,-0.9420353174209595,-0.30517226457595825,-4.593202590942383,2274.1316027641296
D4:22:CD:00:05:5E,-167.8585968017578,-51.379310607910156,-127.68544006347656,2.917985439300537,-4.824018478393555,-2.7560057640075684,2274.1316027641296
D4:22:CD:00:05:5D,-174.17904663085938,-67.92455291748047,-121.1877212524414,-0.26731836795806885,-1.098196029663086,-0.6202230453491211,2274.1341392993927
D4:22:CD:00:05:6B,-54.816673278808594,-41.60108947753906,-97.88124084472656,3.549898624420166,-0.48811495304107666,-1.457381248474121,2274.1341392993927
D4:22:CD:00:49:AA,-128.478759765625,-86.83516693115234,54.65241622924805,2.3433914184570312,-1.9722926616668701,-4.796104431152344,2274.1341392993927
D4:22:CD:00:05:5D,-174.92877197265625,-68.51509857177734,-121.20807647705078,0.701715350151062,-2.441952705383301,-1.3720111846923828,2274.2061381340027
D4:22:CD:00:05:6B,-48.415618896484375,-36.56212615966797,-107.97691345214844,0.5071688890457153,-2.3394765853881836,2.7119884490966797,2274.2061381340027
D4:22:CD:00:49:AA,167.8478240966797,-83.37152862548828,116.79975891113281,-1.591963529586792,-2.253739833831787,-3.7032318115234375,2274.2061381340027
D4:22:CD:00:05:6E,32.72140121459961,-43.671207427978516,128.1651611328125,-10.722604751586914,12.805198669433594,5.83223819732666,2274.2061381340027
D4:22:CD:00:05:5E,-93.83123779296875,-54.22705841064453,-101.96734619140625,4.53228759765625,-10.61558723449707,8.713829040527344,2274.2061381340027
D4:22:CD:00:05:5D,-175.89012145996094,-68.36672973632812,-119.29582214355469,0.796256422996521,0.8137048482894897,-0.6515293121337891,2274.235680103302
D4:22:CD:00:05:6B,-51.114898681640625,-28.107894897460938,-112.67473602294922,0.5258356332778931,0.49940747022628784,9.73579216003418,2274.235680103302
D4:22:CD:00:49:AA,-179.78477478027344,-80.18289947509766,105.27660369873047,-3.7027387619018555,-3.302093029022217,1.6272430419921875,2274.235680103302
D4:22:CD:00:05:6E,66.09540557861328,-64.46613311767578,96.68417358398438,-6.992527008056641,6.23561954498291,13.07608413696289,2274.235680103302
D4:22:CD:00:05:5E,-72.52511596679688,-64.41377258300781,-116.60446166992188,-4.143035888671875,-15.03171157836914,6.268838882446289,2274.235680103302
D4:22:CD:00:05:5D,-177.22943115234375,-67.3045425415039,-115.82416534423828,2.7119297981262207,-0.1337742805480957,-0.5133914947509766,2274.2666804790497
D4:22:CD:00:05:6B,-58.06793212890625,-13.661855697631836,-113.26283264160156,6.896353721618652,4.831396102905273,20.464195251464844,2274.2666804790497
D4:22:CD:00:49:AA,-163.5269775390625,-77.5662841796875,91.96015930175781,2.7783946990966797,-3.071943759918213,-0.7526712417602539,2274.2666804790497
D4:22:CD:00:05:6E,95.02650451660156,-63.920318603515625,74.9027099609375,-0.0917740911245346,7.3495330810546875,7.92230224609375,2274.2666804790497
D4:22:CD:00:05:5E,-18.907320022583008,-86.40463256835938,-158.21914672851562,-7.805390357971191,-8.146780014038086,15.833852767944336,2274.2666804790497
D4:22:CD:00:05:5D,-176.94801330566406,-65.92073822021484,-114.39977264404297,1.2933998107910156,0.1741136908531189,-0.0789022445678711,2274.2966797351837
D4:22:CD:00:05:6B,-52.311737060546875,6.285551071166992,-110.46588134765625,1.3055064678192139,-4.479402542114258,28.462677001953125,2274.2966797351837
D4:22:CD:00:49:AA,-161.448486328125,-75.14178466796875,91.25326538085938,5.326078414916992,0.4205474853515625,-0.13936710357666016,2274.2966797351837
D4:22:CD:00:05:6E,99.4703140258789,-65.44930267333984,82.89070892333984,-4.331821441650391,5.036171913146973,-1.2671842575073242,2274.2966797351837
D4:22:CD:00:05:5E,145.57493591308594,-75.78900909423828,39.73265075683594,-0.47382527589797974,-0.47385913133621216,10.481267929077148,2274.2966797351837
D4:22:CD:00:05:5D,-176.59475708007812,-64.64105987548828,-112.94992065429688,1.9763820171356201,-0.2298479676246643,-0.34800148010253906,2274.3266961574554
D4:22:CD:00:05:6B,-25.793537139892578,24.863040924072266,-102.999267578125,-12.634601593017578,-12.571372985839844,13.234983444213867,2274.3266961574554
D4:22:CD:00:49:AA,-164.8686981201172,-73.91289520263672,94.32548522949219,1.3310785293579102,0.8364545106887817,2.6538944244384766,2274.3266961574554
D4:22:CD:00:05:6E,95.92498779296875,-69.50227355957031,98.46959686279297,-3.9214119911193848,-2.514906406402588,-6.435072898864746,2274.3266961574554
D4:22:CD:00:05:5E,148.9611358642578,-67.87651062011719,34.24453353881836,2.2615480422973633,4.848346710205078,-1.1586523056030273,2274.3266961574554
D4:22:CD:00:05:5D,-176.32989501953125,-63.95417022705078,-110.74977111816406,-1.198472499847412,2.928750514984131,1.2317352294921875,2274.356230020523
D4:22:CD:00:05:6B,9.507413864135742,37.055641174316406,-92.38472747802734,0.527664065361023,1.3161146640777588,-4.82310676574707,2274.356230020523
D4:22:CD:00:49:AA,-164.4138946533203,-73.7241439819336,93.91065216064453,-3.336639881134033,2.949596881866455,2.632096290588379,2274.356230020523
D4:22:CD:00:05:6E,72.94325256347656,-74.84400177001953,127.24147033691406,-3.1467509269714355,-8.308225631713867,-8.750909805297852,2274.356230020523
D4:22:CD:00:05:5E,147.1455078125,-68.5312728881836,35.237281799316406,1.7965521812438965,5.889947891235352,-7.298036575317383,2274.356230020523
D4:22:CD:00:05:5D,-177.83432006835938,-63.6290397644043,-107.33058166503906,-0.49187690019607544,2.623229503631592,1.4352035522460938,2274.386398792267
D4:22:CD:00:05:6B,34.024261474609375,41.574241638183594,-80.48291015625,-14.286798477172852,0.917022705078125,1.1790847778320312,2274.386398792267
D4:22:CD:00:49:AA,-156.4812469482422,-74.03498840332031,87.83250427246094,-3.6793112754821777,4.1283159255981445,5.687017440795898,2274.386398792267
D4:22:CD:00:05:6E,17.399520874023438,-76.09278106689453,-178.40965270996094,-2.3366270065307617,-6.728606224060059,-11.275354385375977,2274.386398792267
D4:22:CD:00:05:5E,136.05067443847656,-74.4969253540039,46.79762649536133,1.6781980991363525,5.111879348754883,-7.992700576782227,2274.386398792267
D4:22:CD:00:05:5D,-179.93980407714844,-64.03083038330078,-103.87591552734375,-1.6493606567382812,3.149451732635498,1.5964155197143555,2274.4164068698883
D4:22:CD:00:05:6B,48.06838607788086,42.82595443725586,-73.61087799072266,-21.266693115234375,-3.1910648345947266,-4.233675956726074,2274.4164068698883
D4:22:CD:00:49:AA,-145.7164306640625,-73.85249328613281,80.23519134521484,0.2984939217567444,5.216164588928223,5.157933235168457,2274.4164068698883
D4:22:CD:00:05:6E,-20.219972610473633,-66.31723022460938,-138.03811645507812,1.0993402004241943,-6.957085609436035,-6.231464385986328,2274.4164068698883
D4:22:CD:00:05:5E,93.17330169677734,-79.49132537841797,91.72357940673828,0.1949206292629242,2.706488609313965,-7.159588813781738,2274.4164068698883
D4:22:CD:00:05:5D,178.08216857910156,-65.38516998291016,-101.08097839355469,-2.319455623626709,2.7536563873291016,1.3628921508789062,2274.4759619235992
D4:22:CD:00:05:6B,59.675724029541016,46.65373611450195,-73.00887298583984,-2.074131488800049,1.940412998199463,-5.136076927185059,2274.4759619235992
D4:22:CD:00:49:AA,-137.47425842285156,-73.08531951904297,75.39102935791016,0.9074375629425049,4.281861305236816,2.80377197265625,2274.4759619235992
D4:22:CD:00:05:6E,-26.669044494628906,-52.229209899902344,-121.10311126708984,-1.6700475215911865,-16.21783447265625,-8.684240341186523,2274.4759619235992
D4:22:CD:00:05:5E,44.271949768066406,-74.1001205444336,140.44757080078125,-7.350613594055176,1.7895927429199219,-6.154508590698242,2274.4759619235992
D4:22:CD:00:05:5D,177.29425048828125,-67.65370178222656,-100.1828384399414,-3.128258228302002,2.6752262115478516,1.152522087097168,2274.505961894989
D4:22:CD:00:05:6B,55.38187789916992,52.505897521972656,-81.00433349609375,13.325332641601562,-3.0080676078796387,-0.03260040283203125,2274.505961894989
D4:22:CD:00:49:AA,-133.69419860839844,-72.50215911865234,74.28231811523438,1.0237090587615967,2.439023494720459,1.2778615951538086,2274.505961894989
D4:22:CD:00:05:6E,-25.939416885375977,-39.693363189697266,-109.4043197631836,0.5043283700942993,-14.928848266601562,-8.904205322265625,2274.505961894989
D4:22:CD:00:05:5E,22.605989456176758,-65.49653625488281,156.7295379638672,-14.267480850219727,-1.883634328842163,-6.1845245361328125,2274.505961894989
D4:22:CD:00:05:5D,177.58071899414062,-70.97461700439453,-101.81327056884766,-1.877906084060669,2.0335922241210938,1.3702239990234375,2274.5365166664124
D4:22:CD:00:05:6B,40.128623962402344,60.3901481628418,-102.24330139160156,8.818397521972656,-4.45069694519043,-4.264688491821289,2274.5365166664124
D4:22:CD:00:49:AA,-133.45008850097656,-72.60187530517578,75.36904907226562,0.9895988702774048,1.2030901908874512,-1.6718788146972656,2274.5365166664124
D4:22:CD:00:05:6E,-15.721620559692383,-30.80540657043457,-99.80968475341797,2.774327278137207,-14.761999130249023,-10.054948806762695,2274.5365166664124
D4:22:CD:00:05:5E,7.8555731773376465,-58.706451416015625,162.44334411621094,-20.61510467529297,-1.3381974697113037,-8.254480361938477,2274.5365166664124
D4:22:CD:00:05:5D,178.5150146484375,-74.91352844238281,-105.14180755615234,0.5247688293457031,-0.20907333493232727,1.9935302734375,2274.5665180683136
D4:22:CD:00:05:6B,1.3269438743591309,61.76738739013672,-149.5867919921875,5.492398262023926,-12.716743469238281,-18.914871215820312,2274.5665180683136
D4:22:CD:00:49:AA,-133.3583984375,-73.61799621582031,74.89483642578125,1.5864157676696777,0.36590856313705444,-4.343581199645996,2274.5665180683136
D4:22:CD:00:05:6E,-6.348748207092285,-25.597759246826172,-91.08940124511719,16.242496490478516,-13.724788665771484,-13.999309539794922,2274.5665180683136
D4:22:CD:00:05:5E,-2.994661569595337,-55.63977813720703,165.86331176757812,-16.435436248779297,3.3200125694274902,-11.850435256958008,2274.5665180683136
D4:22:CD:00:05:5D,179.07138061523438,-78.90377807617188,-108.65766143798828,1.6129791736602783,0.05694875121116638,0.2560596466064453,2274.595603466034
D4:22:CD:00:05:6B,-34.79827880859375,45.52542495727539,176.4648895263672,-25.672271728515625,0.24334239959716797,-54.46697998046875,2274.595603466034
D4:22:CD:00:49:AA,-132.5846710205078,-74.8842544555664,72.23084259033203,1.6102831363677979,0.8344779014587402,-4.099767684936523,2274.595603466034
D4:22:CD:00:05:6E,-11.522818565368652,-23.62610626220703,-83.61628723144531,10.547853469848633,-6.336430549621582,-13.973199844360352,2274.595603466034
D4:22:CD:00:05:5E,-6.791067123413086,-55.422428131103516,167.22357177734375,-11.819372177124023,-2.579899311065674,-15.489770889282227,2274.595603466034
D4:22:CD:00:05:5D,178.0143280029297,-82.81610870361328,-112.07987213134766,1.1189899444580078,0.6600770950317383,-2.6382198333740234,2274.6256177425385
D4:22:CD:00:05:6B,-56.095882415771484,39.34343338012695,173.67640686035156,24.189014434814453,4.792361259460449,-10.874282836914062,2274.6256177425385
D4:22:CD:00:49:AA,-133.4041290283203,-76.4754409790039,70.21178436279297,-0.5871379375457764,0.5686664581298828,-6.235915184020996,2274.6256177425385
D4:22:CD:00:05:6E,-21.853771209716797,-24.817455291748047,-78.66081237792969,6.578841209411621,-5.209224700927734,-11.158098220825195,2274.6256177425385
D4:22:CD:00:05:5E,-8.758768081665039,-58.19352722167969,166.42652893066406,-11.407318115234375,-2.1256351470947266,-14.721002578735352,2274.6256177425385
D4:22:CD:00:05:5D,174.4487762451172,-86.13578033447266,-113.07270050048828,0.6465520858764648,-1.081981897354126,-3.4106411933898926,2274.6563103199005
D4:22:CD:00:05:6B,-66.51099395751953,45.47783660888672,-179.3524627685547,-10.70322036743164,3.5352554321289062,-9.068641662597656,2274.6563103199005
D4:22:CD:00:49:AA,-137.37258911132812,-78.26628112792969,71.43042755126953,-2.4716296195983887,-1.358989953994751,-7.4899492263793945,2274.6563103199005
D4:22:CD:00:05:6E,-29.06220245361328,-27.62990379333496,-76.25344848632812,7.123575210571289,-6.508003234863281,-8.259496688842773,2274.6563103199005
D4:22:CD:00:05:5E,-15.014880180358887,-64.51871490478516,167.6914520263672,-18.512771606445312,7.380782127380371,-15.712589263916016,2274.6563103199005
D4:22:CD:00:05:5D,146.6675567626953,-87.384765625,-87.47892761230469,0.0011902065016329288,-3.5780797004699707,-6.458353042602539,2274.686302423477
D4:22:CD:00:05:6B,-57.892478942871094,48.932044982910156,-172.38565063476562,-7.535865783691406,4.29754638671875,-6.110651016235352,2274.686302423477
D4:22:CD:00:49:AA,-143.21241760253906,-79.46730041503906,74.71070861816406,-1.3893225193023682,-2.6321702003479004,-5.026882171630859,2274.686302423477
D4:22:CD:00:05:6E,-33.85909652709961,-29.633346557617188,-74.87068939208984,7.936382293701172,-6.884119987487793,-7.75827693939209,2274.686302423477
D4:22:CD:00:05:5E,-19.921674728393555,-70.2713851928711,170.09381103515625,-0.5287365913391113,-6.116798400878906,3.7829971313476562,2274.686302423477
D4:22:CD:00:05:5D,128.04116821289062,-86.34484100341797,-68.9403305053711,0.984049916267395,-1.0553016662597656,-2.685873508453369,2274.7163105010986
D4:22:CD:00:05:6B,-43.07038879394531,51.798274993896484,-156.4147186279297,-6.138866424560547,2.632716655731201,-18.348270416259766,2274.7163105010986
D4:22:CD:00:49:AA,-150.23582458496094,-79.93221282958984,79.21057891845703,-1.2333102226257324,-1.2260775566101074,-3.381284236907959,2274.7163105010986
D4:22:CD:00:05:6E,-38.40098190307617,-30.995193481445312,-73.1119613647461,8.588888168334961,-6.614151954650879,-6.717424392700195,2274.7163105010986
D4:22:CD:00:05:5E,-15.451452255249023,-73.75237274169922,168.95372009277344,-3.1119680404663086,-11.585670471191406,8.093057632446289,2274.7163105010986
D4:22:CD:00:05:5D,119.68096923828125,-84.91858673095703,-59.022281646728516,-0.33807408809661865,-0.6864008903503418,8.078058242797852,2274.7758576869965
D4:22:CD:00:05:6B,-29.607006072998047,49.89419174194336,-135.08876037597656,-12.526786804199219,2.809713840484619,-8.802837371826172,2274.7758576869965
D4:22:CD:00:49:AA,-156.58602905273438,-80.90413665771484,82.944091796875,-4.3337507247924805,-0.5047471523284912,5.095926284790039,2274.7758576869965
D4:22:CD:00:05:6E,-46.10091018676758,-31.84183692932129,-70.54048156738281,14.676673889160156,-9.749156951904297,-4.6854753494262695,2274.7758576869965
D4:22:CD:00:05:5E,-14.87547779083252,-77.59172058105469,168.19924926757812,0.15887293219566345,10.415273666381836,11.667579650878906,2274.7758576869965
D4:22:CD:00:05:5D,108.84613037109375,-83.03030395507812,-47.142906188964844,-3.0395078659057617,-0.6746805906295776,-1.4390621185302734,2274.805857896805
D4:22:CD:00:05:6B,-17.602495193481445,43.30035400390625,-118.34403991699219,-5.651145935058594,-0.6745443344116211,-4.235939979553223,2274.805857896805
D4:22:CD:00:49:AA,-162.83639526367188,-82.33210754394531,86.91072845458984,-3.3565449714660645,-3.0005531311035156,9.147117614746094,2274.805857896805
D4:22:CD:00:05:6E,-59.963993072509766,-33.41554260253906,-69.21620178222656,12.054746627807617,-10.517169952392578,-1.2148637771606445,2274.805857896805
D4:22:CD:00:05:5E,-10.9330472946167,-80.59577178955078,161.1671142578125,-5.214130401611328,7.062470436096191,-2.6215033531188965,2274.805857896805
D4:22:CD:00:05:5D,99.28829956054688,-79.85254669189453,-37.60806655883789,-1.4920377731323242,-2.6448731422424316,1.1718101501464844,2274.836494207382
D4:22:CD:00:05:6B,-12.499367713928223,34.32688903808594,-106.51579284667969,-3.329057216644287,3.6483588218688965,5.6128129959106445,2274.836494207382
D4:22:CD:00:49:AA,-165.7803955078125,-82.00861358642578,88.36750793457031,4.270796775817871,-2.8961963653564453,-3.625603199005127,2274.836494207382
D4:22:CD:00:05:6E,-70.93693542480469,-35.44831466674805,-71.04918670654297,-1.755051851272583,-1.3659136295318604,10.11294174194336,2274.836494207382
D4:22:CD:00:05:5E,6.628152847290039,-80.37395477294922,144.36668395996094,-8.114717483520508,-4.572449684143066,1.300405502319336,2274.836494207382
D4:22:CD:00:05:5D,91.09034729003906,-76.391845703125,-33.63711166381836,4.835598945617676,-2.9425601959228516,3.3948917388916016,2274.8665013313293
D4:22:CD:00:05:6B,-10.3280668258667,23.655805587768555,-97.18635559082031,3.0276923179626465,6.287041664123535,3.459092140197754,2274.8665013313293
D4:22:CD:00:49:AA,-165.17526245117188,-80.39324188232422,84.26802062988281,12.568124771118164,2.764087677001953,-4.4833173751831055,2274.8665013313293
D4:22:CD:00:05:6E,-67.92273712158203,-35.91222381591797,-74.97644805908203,-4.874401092529297,-2.4964823722839355,4.367636680603027,2274.8665013313293
D4:22:CD:00:05:5E,11.34623908996582,-80.529541015625,138.8024139404297,-7.808015823364258,0.519044041633606,-1.6289491653442383,2274.8665013313293
D4:22:CD:00:05:5D,91.9967041015625,-73.1627426147461,-39.75349044799805,14.746620178222656,1.633913278579712,3.676176071166992,2274.896494626999
D4:22:CD:00:05:6B,-11.668793678283691,11.760661125183105,-87.38961791992188,9.25459098815918,2.482910633087158,4.227436065673828,2274.896494626999
D4:22:CD:00:49:AA,-166.7917022705078,-78.16043090820312,80.8655776977539,9.2806396484375,2.5473036766052246,1.2349433898925781,2274.896494626999
D4:22:CD:00:05:6E,-58.744232177734375,-35.785491943359375,-79.8604736328125,-3.484100341796875,-12.699773788452148,-7.093361854553223,2274.896494626999
D4:22:CD:00:05:5E,9.668497085571289,-80.23259735107422,138.89111328125,-3.656576633453369,5.197943687438965,0.5726938247680664,2274.896494626999
D4:22:CD:00:05:5D,107.64575958251953,-68.23726654052734,-58.362361907958984,17.93729019165039,13.864456176757812,8.770923614501953,2274.9265093803406
D4:22:CD:00:05:6B,-20.989837646484375,-0.5544868111610413,-77.4049301147461,24.23684310913086,2.571025848388672,-6.282022476196289,2274.9265093803406
D4:22:CD:00:49:AA,-165.8054656982422,-76.50772857666016,77.75359344482422,-6.833657264709473,-2.0645523071289062,8.54527473449707,2274.9265093803406
D4:22:CD:00:05:6E,-54.123538970947266,-36.33694839477539,-84.13510131835938,-6.399157524108887,-13.863075256347656,-2.8533830642700195,2274.9265093803406
D4:22:CD:00:05:5E,11.29135799407959,-79.06080627441406,136.2046661376953,-3.59268856048584,3.7579565048217773,-0.020505905151367188,2274.9265093803406
D4:22:CD:00:05:5D,125.06263732910156,-59.004051208496094,-75.9988021850586,14.139984130859375,10.604597091674805,6.8917388916015625,2274.957046031952
D4:22:CD:00:05:6B,-42.52759552001953,-11.861186981201172,-68.9822006225586,3.2339906692504883,-5.92808723449707,-5.5587310791015625,2274.957046031952
D4:22:CD:00:49:AA,-164.37123107910156,-76.13805389404297,77.42606353759766,1.499617099761963,3.3664674758911133,2.775240898132324,2274.957046031952
D4:22:CD:00:05:6E,-50.49241256713867,-37.35636520385742,-86.82600402832031,-7.064489364624023,-11.55436897277832,-3.8742241859436035,2274.957046031952
D4:22:CD:00:05:5E,14.394427299499512,-77.15572357177734,132.2841339111328,-5.592185020446777,1.5821073055267334,-1.3504791259765625,2274.957046031952
D4:22:CD:00:05:5D,137.2190399169922,-49.17146301269531,-90.59687042236328,8.301145553588867,1.8103065490722656,0.2962646484375,2274.986046075821
D4:22:CD:00:05:6B,-52.55012893676758,-20.682233810424805,-64.08490753173828,-0.7448610067367554,-0.6043739318847656,12.063032150268555,2274.986046075821
D4:22:CD:00:49:AA,-163.72633361816406,-75.83373260498047,77.71440887451172,6.886604309082031,1.9241926670074463,3.5966711044311523,2274.986046075821
D4:22:CD:00:05:6E,-45.19361877441406,-38.74466323852539,-88.39612579345703,-4.249704360961914,-11.191509246826172,-4.3382768630981445,2274.986046075821
D4:22:CD:00:05:5E,13.585454940795898,-75.5943374633789,130.556396484375,-5.216646194458008,0.7600637674331665,-1.6051740646362305,2274.986046075821
D4:22:CD:00:05:5D,144.4491424560547,-40.02478790283203,-102.3487548828125,-0.9299525022506714,-2.826760768890381,-4.384367942810059,2275.0160455703735
D4:22:CD:00:05:6B,-52.09935760498047,-26.03068733215332,-63.37643814086914,6.538097381591797,1.7069361209869385,-5.034696578979492,2275.0160455703735
D4:22:CD:00:49:AA,-164.2399444580078,-76.37757110595703,79.29655456542969,1.2245469093322754,1.4972574710845947,0.39734840393066406,2275.0160455703735
D4:22:CD:00:05:6E,-38.71416091918945,-40.46584701538086,-89.96212005615234,-1.1703517436981201,-9.649665832519531,-6.865011215209961,2275.0160455703735
D4:22:CD:00:05:5E,10.561604499816895,-74.88706970214844,129.73928833007812,-3.5774097442626953,0.48375922441482544,-1.5804510116577148,2275.0160455703735
D4:22:CD:00:05:5D,150.058349609375,-32.301658630371094,-111.10778045654297,-3.3477377891540527,-2.745838165283203,-10.024166107177734,2275.076588153839
D4:22:CD:00:05:6B,-60.037322998046875,-30.493534088134766,-64.19970703125,-0.8637230396270752,-1.0731332302093506,-3.826946258544922,2275.076588153839
D4:22:CD:00:49:AA,-167.1250762939453,-77.03169250488281,83.19281768798828,0.2680664658546448,2.84635066986084,-2.638546943664551,2275.076588153839
D4:22:CD:00:05:6E,-33.8065185546875,-42.810462951660156,-91.52168273925781,0.8663628101348877,-7.9944305419921875,-7.589349746704102,2275.076588153839
D4:22:CD:00:05:5E,9.087739944458008,-74.85997009277344,128.42189025878906,-2.0806264877319336,1.1291706562042236,-1.405888557434082,2275.076588153839
D4:22:CD:00:05:5D,156.90292358398438,-26.34318733215332,-118.16561889648438,-4.65826416015625,-1.265667200088501,-13.748823165893555,2275.106589078903
D4:22:CD:00:05:6B,-65.99687957763672,-36.70945739746094,-65.87757110595703,-2.907224178314209,-0.23404204845428467,3.3870325088500977,2275.106589078903
D4:22:CD:00:49:AA,-170.31207275390625,-77.18513488769531,86.95809173583984,1.866842269897461,1.4155282974243164,-3.2259116172790527,2275.106589078903
D4:22:CD:00:05:6E,-30.854799270629883,-45.91793441772461,-93.5060043334961,3.0141735076904297,-8.094831466674805,-6.035367965698242,2275.106589078903
D4:22:CD:00:05:5E,10.933506965637207,-75.64142608642578,126.40733337402344,-1.287292242050171,-1.245650053024292,-1.3958778381347656,2275.106589078903
D4:22:CD:00:05:5D,162.7110595703125,-23.824426651000977,-123.93759155273438,-12.406547546386719,2.8624062538146973,-11.45208740234375,2275.1361286640167
D4:22:CD:00:05:6B,-62.454280853271484,-45.65359878540039,-69.74195861816406,-3.7953882217407227,-4.740137100219727,3.903923988342285,2275.1361286640167
D4:22:CD:00:49:AA,-171.9566650390625,-77.08509063720703,88.60794830322266,1.0993902683258057,0.8679406642913818,-5.873715400695801,2275.1361286640167
D4:22:CD:00:05:6E,-28.123018264770508,-49.50679016113281,-96.90187072753906,3.825258255004883,-6.069089889526367,-5.347077369689941,2275.1361286640167
D4:22:CD:00:05:5E,15.65499210357666,-77.40262603759766,123.59449005126953,-3.2038631439208984,-0.2875690460205078,-1.6624956130981445,2275.1361286640167
D4:22:CD:00:05:5D,161.70062255859375,-25.801288604736328,-128.81626892089844,-9.71060562133789,0.7916187047958374,-11.424844741821289,2275.166136741638
D4:22:CD:00:05:6B,-46.323970794677734,-58.20370864868164,-77.67647552490234,-6.888584136962891,-7.513880729675293,10.746408462524414,2275.166136741638
D4:22:CD:00:49:AA,-172.2476806640625,-76.84455871582031,89.94868469238281,-1.9156270027160645,-0.31092458963394165,-5.283352851867676,2275.166136741638
D4:22:CD:00:05:6E,-24.14881134033203,-52.88422393798828,-102.35790252685547,5.728921890258789,-6.054737091064453,-5.079863548278809,2275.166136741638
D4:22:CD:00:05:5E,22.822057723999023,-79.77284240722656,119.17333221435547,-3.5578017234802246,0.46098941564559937,-0.8905105590820312,2275.166136741638
D4:22:CD:00:05:5D,159.09823608398438,-31.88199806213379,-132.5159912109375,-10.105567932128906,-2.916780948638916,-10.63795280456543,2275.1961443424225
D4:22:CD:00:05:6B,-1.7863389253616333,-65.6767578125,-103.0078125,6.828226089477539,-6.694706916809082,19.95138168334961,2275.1961443424225
D4:22:CD:00:49:AA,-171.07073974609375,-77.12077331542969,91.552001953125,-2.2932991981506348,-0.8823316097259521,-3.3297715187072754,2275.1961443424225
D4:22:CD:00:05:6E,-17.90529441833496,-55.750640869140625,-111.4483413696289,6.136658668518066,-4.9474687576293945,-4.190884590148926,2275.1961443424225
D4:22:CD:00:05:5E,31.971206665039062,-81.82567596435547,112.90747833251953,-4.9627790451049805,0.8118239641189575,-0.4083108901977539,2275.1961443424225
D4:22:CD:00:05:5D,157.89720153808594,-34.38935089111328,-135.14456176757812,4.331036567687988,8.017459869384766,39.83948516845703,2275.226151704788
D4:22:CD:00:05:6B,17.49590492248535,-64.57796478271484,-110.32215118408203,13.253786087036133,-5.708255767822266,-3.1971864700317383,2275.226151704788
D4:22:CD:00:49:AA,-168.9586639404297,-77.95581817626953,91.74488067626953,2.4047813415527344,0.9296219348907471,-2.2235889434814453,2275.226151704788
D4:22:CD:00:05:6E,-9.109108924865723,-57.45166015625,-125.58588409423828,9.87751579284668,-11.90576171875,-2.385221481323242,2275.226151704788
D4:22:CD:00:05:5E,41.50845718383789,-83.86518859863281,105.14452362060547,-4.940584182739258,3.0102243423461914,-0.7841348648071289,2275.226151704788
D4:22:CD:00:05:5D,160.197998046875,-34.49136734008789,-133.80606079101562,-13.299417495727539,-3.551288604736328,4.031927108764648,2275.2556812763214
D4:22:CD:00:05:6B,-8.034985542297363,-61.40345001220703,-89.82255554199219,0.2291092872619629,-6.716628074645996,3.3947277069091797,2275.2556812763214
D4:22:CD:00:49:AA,-165.22579956054688,-78.3533935546875,88.41600799560547,9.655420303344727,2.9454660415649414,1.81781005859375,2275.2556812763214
D4:22:CD:00:05:6E,0.7617712020874023,-56.61130142211914,-144.01747131347656,15.416236877441406,-13.885225296020508,5.369021415710449,2275.2556812763214
D4:22:CD:00:05:5E,56.124088287353516,-85.15633392333984,91.36395263671875,-4.92718505859375,3.321293830871582,-0.12154865264892578,2275.2556812763214
D4:22:CD:00:05:5D,161.7854766845703,-32.96651840209961,-129.8038330078125,-13.370407104492188,-10.397724151611328,10.231260299682617,2275.285680770874
D4:22:CD:00:05:6B,-23.384380340576172,-51.41329574584961,-74.5998764038086,-0.4135456085205078,-12.016475677490234,13.958761215209961,2275.285680770874
D4:22:CD:00:49:AA,-166.73016357421875,-77.53601837158203,88.15672302246094,4.139636993408203,-1.53605055809021,3.1056289672851562,2275.285680770874
D4:22:CD:00:05:6E,13.91934871673584,-51.84490966796875,-163.7457733154297,19.98796844482422,-19.236400604248047,8.313594818115234,2275.285680770874
D4:22:CD:00:05:5E,68.23368072509766,-85.34747314453125,79.8379898071289,-5.177573204040527,2.843796730041504,-0.537165641784668,2275.285680770874
D4:22:CD:00:05:5D,161.1539764404297,-27.560501098632812,-125.36469268798828,-8.367853164672852,-9.337570190429688,16.569931030273438,2275.3156819343567
D4:22:CD:00:05:6B,-25.45772933959961,-40.60551834106445,-69.50996398925781,7.102910041809082,-11.594039916992188,3.311809539794922,2275.3156819343567
D4:22:CD:00:49:AA,-168.7232208251953,-77.32410430908203,87.647705078125,-0.69891357421875,-1.7591547966003418,4.196206092834473,2275.3156819343567
D4:22:CD:00:05:6E,22.680219650268555,-43.01013946533203,176.27830505371094,14.022052764892578,-20.068729400634766,9.668310165405273,2275.3156819343567
D4:22:CD:00:05:5E,68.07785034179688,-85.04520416259766,79.80400848388672,-6.2729597091674805,2.319889545440674,-0.7516107559204102,2275.3156819343567
D4:22:CD:00:05:5D,161.81373596191406,-18.64362335205078,-122.81744384765625,-3.469296455383301,-12.872735977172852,14.601287841796875,2275.376228570938
D4:22:CD:00:05:6B,-30.81123924255371,-32.1247444152832,-67.46475219726562,4.412528991699219,-8.115062713623047,-2.5986199378967285,2275.376228570938
D4:22:CD:00:49:AA,-166.98458862304688,-78.18009948730469,85.16438293457031,-0.4098780155181885,1.2337689399719238,6.61700439453125,2275.376228570938
D4:22:CD:00:05:6E,22.765981674194336,-31.649871826171875,157.40550231933594,2.3069515228271484,-15.392976760864258,6.958194732666016,2275.376228570938
D4:22:CD:00:05:5E,56.13531494140625,-84.69145965576172,90.22463989257812,-6.0245771408081055,2.299736976623535,-1.0855369567871094,2275.376228570938
D4:22:CD:00:05:5D,159.6282501220703,-9.52375602722168,-123.44557189941406,-7.517729759216309,-8.113445281982422,8.627788543701172,2275.4062283039093
D4:22:CD:00:05:6B,-35.99741744995117,-25.935731887817383,-67.88774871826172,1.6235930919647217,-5.770107269287109,-0.13201618194580078,2275.4062283039093
D4:22:CD:00:49:AA,-167.3179931640625,-78.91863250732422,85.09925842285156,4.380898475646973,3.75405216217041,4.548553466796875,2275.4062283039093
D4:22:CD:00:05:6E,15.06053638458252,-20.27564239501953,142.2649688720703,-2.6349143981933594,-9.639699935913086,5.927374839782715,2275.4062283039093
D4:22:CD:00:05:5E,41.89503479003906,-84.3037109375,102.06163787841797,-4.3231706619262695,2.3682894706726074,0.01722240447998047,2275.4062283039093
D4:22:CD:00:05:5D,157.4620361328125,-2.2744109630584717,-126.09325408935547,-4.855454444885254,-3.3529272079467773,-4.137310981750488,2275.436773300171
D4:22:CD:00:05:6B,-39.1293830871582,-22.71147918701172,-70.64189147949219,4.627506256103516,-4.784377098083496,-0.9118766784667969,2275.436773300171
D4:22:CD:00:49:AA,-170.126220703125,-79.04305267333984,86.88451385498047,3.873962879180908,3.9530820846557617,5.027956008911133,2275.436773300171
D4:22:CD:00:05:6E,0.7590509653091431,-9.268229484558105,132.39654541015625,-9.463748931884766,-10.343015670776367,-2.6871118545532227,2275.436773300171
D4:22:CD:00:05:5E,29.10747718811035,-82.16409301757812,112.87271881103516,-4.628805160522461,2.1602492332458496,1.1258306503295898,2275.436773300171
D4:22:CD:00:05:5D,158.2364501953125,1.1263169050216675,-129.15191650390625,-4.4254865646362305,3.893249034881592,-12.726547241210938,2275.4658739566803
D4:22:CD:00:05:6B,-45.582435607910156,-23.023160934448242,-74.21227264404297,1.9052238464355469,-3.747661590576172,0.8445892333984375,2275.4658739566803
D4:22:CD:00:49:AA,-175.79835510253906,-78.84002685546875,90.98048400878906,2.2166786193847656,3.199812889099121,6.480808258056641,2275.4658739566803
D4:22:CD:00:05:6E,-17.32593536376953,-0.012951747514307499,126.83123016357422,-4.530788421630859,-5.728285789489746,-7.3404130935668945,2275.4658739566803
D4:22:CD:00:05:5E,21.298612594604492,-78.18305206298828,119.16482543945312,-4.789894104003906,4.230107307434082,3.8168277740478516,2275.4658739566803
D4:22:CD:00:05:5D,159.9679718017578,-0.8669361472129822,-131.3521270751953,-6.8745527267456055,8.02271842956543,-18.59014892578125,2275.495874643326
D4:22:CD:00:05:6B,-49.95519256591797,-26.70696258544922,-78.84111785888672,2.503032684326172,-0.5136357545852661,4.519987106323242,2275.495874643326
D4:22:CD:00:49:AA,177.1353759765625,-78.63126373291016,96.49315643310547,1.1307542324066162,2.046306610107422,3.9125404357910156,2275.495874643326
D4:22:CD:00:05:6E,-26.173139572143555,7.289988994598389,123.11283874511719,-0.602097749710083,-4.087632179260254,-6.820141792297363,2275.495874643326
D4:22:CD:00:05:5E,18.687484741210938,-73.7861557006836,122.63640594482422,-2.21771240234375,-0.43479233980178833,6.913963317871094,2275.495874643326
D4:22:CD:00:05:5D,158.8004913330078,-8.40123462677002,-132.5220489501953,-9.293790817260742,6.899422645568848,-18.899837493896484,2275.525889635086
D4:22:CD:00:05:6B,-52.60048294067383,-32.205474853515625,-84.11279296875,3.4453015327453613,0.6046481132507324,1.7159576416015625,2275.525889635086
D4:22:CD:00:49:AA,169.4483642578125,-78.79724884033203,102.95230102539062,-0.07038958370685577,1.038952112197876,-1.5836820602416992,2275.525889635086
D4:22:CD:00:05:6E,-26.19577980041504,12.27575397491455,120.17938995361328,-2.7942147254943848,-5.388144493103027,-9.489763259887695,2275.525889635086
D4:22:CD:00:05:5E,19.635896682739258,-69.76499938964844,124.82673645019531,-0.5980480909347534,1.3896763324737549,-1.1473712921142578,2275.525889635086
D4:22:CD:00:05:5D,153.94113159179688,-19.88988494873047,-132.50640869140625,-9.989883422851562,2.3654685020446777,-14.523809432983398,2275.5564289093018
D4:22:CD:00:05:6B,-55.25798797607422,-38.119632720947266,-89.81539154052734,1.744511604309082,0.3527817726135254,-2.1771535873413086,2275.5564289093018
D4:22:CD:00:49:AA,164.36888122558594,-78.29839324951172,106.57645416259766,0.12737834453582764,0.33799904584884644,-4.645988464355469,2275.5564289093018
D4:22:CD:00:05:6E,-25.82884979248047,15.343219757080078,119.26263427734375,2.081099510192871,-3.7744832038879395,-9.468721389770508,2275.5564289093018
D4:22:CD:00:05:5E,20.023265838623047,-66.18800354003906,128.19085693359375,-3.4331016540527344,1.0895648002624512,-5.261477470397949,2275.5564289093018
D4:22:CD:00:05:5D,150.15045166015625,-33.892662048339844,-130.15594482421875,-7.894675254821777,-3.208548069000244,-9.658882141113281,2275.586617708206
D4:22:CD:00:05:6B,-56.72637939453125,-44.03847122192383,-97.30411529541016,1.1372849941253662,1.7573659420013428,-3.2397541999816895,2275.586617708206
D4:22:CD:00:49:AA,164.77638244628906,-77.4986572265625,105.30087280273438,1.2675321102142334,-0.4250854253768921,-4.026066780090332,2275.586617708206
D4:22:CD:00:05:6E,-24.54920196533203,16.89585304260254,121.71318054199219,4.810399055480957,-2.1181488037109375,-8.603693008422852,2275.586617708206
D4:22:CD:00:05:5E,17.472152709960938,-63.965145111083984,131.94834899902344,-5.351313591003418,-0.5052627325057983,-8.133995056152344,2275.586617708206
D4:22:CD:00:05:5D,147.18690490722656,-49.94319534301758,-125.0079574584961,-3.757513999938965,-4.133084297180176,0.8773479461669922,2275.616617679596
D4:22:CD:00:05:6B,-56.87370300292969,-49.83293151855469,-103.35478210449219,1.6053271293640137,3.437729835510254,-4.087084770202637,2275.616617679596
D4:22:CD:00:49:AA,165.95635986328125,-77.55895233154297,104.35498046875,2.7117409706115723,-0.24223721027374268,-5.682538986206055,2275.616617679596
D4:22:CD:00:05:6E,-20.39744758605957,18.199316024780273,128.26597595214844,3.841339111328125,0.35119736194610596,-8.415306091308594,2275.616617679596
D4:22:CD:00:05:5E,13.812417030334473,-63.619483947753906,134.9006805419922,-6.741359710693359,-1.0858197212219238,-10.652843475341797,2275.616617679596
D4:22:CD:00:05:5D,138.1544647216797,-68.0035629272461,-112.82495880126953,1.0624992847442627,-7.632179260253906,11.36247444152832,2275.676248073578
D4:22:CD:00:05:6B,-56.18864822387695,-54.89724349975586,-108.9312515258789,2.4888296127319336,4.702881813049316,-4.481019020080566,2275.676248073578
D4:22:CD:00:49:AA,165.24632263183594,-78.17911529541016,104.96058654785156,2.0488333702087402,-0.04622161388397217,-7.860640525817871,2275.676248073578
D4:22:CD:00:05:6E,-13.360798835754395,19.523963928222656,138.87741088867188,-8.304187774658203,-0.293331503868103,-12.849895477294922,2275.676248073578
D4:22:CD:00:05:5E,11.97392749786377,-65.00228118896484,136.76016235351562,-5.31292724609375,-3.631135940551758,-8.115224838256836,2275.676248073578
D4:22:CD:00:05:5D,87.79510498046875,-81.07148742675781,-53.254493713378906,17.289852142333984,-2.189478874206543,22.301219940185547,2275.706345796585
D4:22:CD:00:05:6B,-54.135929107666016,-58.89556884765625,-113.12230682373047,1.878659963607788,3.9063162803649902,-6.665622711181641,2275.706345796585
D4:22:CD:00:49:AA,164.08370971679688,-79.21624755859375,105.79386138916016,-0.82073974609375,-0.5332247018814087,-7.508256912231445,2275.706345796585
D4:22:CD:00:05:6E,-4.825146675109863,19.650516510009766,151.4403839111328,-20.67690658569336,6.8087158203125,-14.886295318603516,2275.706345796585
D4:22:CD:00:05:5E,8.826390266418457,-67.90394592285156,139.30210876464844,-2.948415756225586,0.8183419704437256,-2.125232219696045,2275.706345796585
D4:22:CD:00:05:5D,36.781524658203125,-76.1642837524414,7.08322811126709,6.611618995666504,34.72150421142578,-4.125144004821777,2275.7358944416046
D4:22:CD:00:05:6B,-51.56476974487305,-61.763343811035156,-115.42059326171875,3.0236473083496094,4.398392677307129,-5.748456001281738,2275.7358944416046
D4:22:CD:00:49:AA,166.44778442382812,-80.85457611083984,104.34943389892578,-1.1130857467651367,-2.005314826965332,-8.175138473510742,2275.7358944416046
D4:22:CD:00:05:6E,-2.5902762413024902,22.14280128479004,158.138427734375,-5.151511192321777,3.2576708793640137,-15.574146270751953,2275.7358944416046
D4:22:CD:00:05:5E,0.5248925089836121,-71.32158660888672,145.8141326904297,-1.328242540359497,2.28751277923584,1.7379045486450195,2275.7358944416046
D4:22:CD:00:05:5D,30.900325775146484,-74.63951110839844,5.8438496589660645,17.680465698242188,7.031947135925293,-12.935539245605469,2275.7668948173523
D4:22:CD:00:05:6B,-47.6898078918457,-63.85301971435547,-116.4950942993164,3.4148430824279785,4.504663467407227,-4.8285675048828125,2275.7668948173523
D4:22:CD:00:49:AA,174.00807189941406,-80.26851654052734,98.2888412475586,5.025529861450195,-4.027608871459961,-3.3066282272338867,2275.7668948173523
D4:22:CD:00:05:6E,4.981405258178711,23.162067413330078,152.8686981201172,3.563998222351074,-0.005434856750071049,-3.4568729400634766,2275.7668948173523
D4:22:CD:00:05:5E,-11.81608772277832,-73.72892761230469,156.1554412841797,-6.509366989135742,1.1224853992462158,7.068674087524414,2275.7668948173523
D4:22:CD:00:05:5D,57.34566116333008,-76.42662811279297,-20.696504592895508,11.28367805480957,2.980205535888672,-3.9195432662963867,2275.7958936691284
D4:22:CD:00:05:6B,-41.39899826049805,-65.40109252929688,-117.64987182617188,1.9464836120605469,3.069347858428955,-4.866758346557617,2275.7958936691284
D4:22:CD:00:49:AA,175.77978515625,-78.57215881347656,95.47038269042969,8.064136505126953,-0.06846284866333008,2.589963912963867,2275.7958936691284
D4:22:CD:00:05:6E,14.342591285705566,21.852584838867188,137.36288452148438,-13.911949157714844,-1.7336609363555908,-11.321613311767578,2275.7958936691284
D4:22:CD:00:05:5E,-21.530860900878906,-73.19960021972656,165.1273193359375,-6.064518928527832,4.180411338806152,2.571122169494629,2275.7958936691284
D4:22:CD:00:05:5D,97.67425537109375,-74.21805572509766,-56.7969970703125,-1.7442779541015625,-16.797466278076172,3.015711784362793,2275.825911998749
D4:22:CD:00:05:6B,-35.975074768066406,-66.74054718017578,-118.50753784179688,-0.05923914909362793,0.9029388427734375,-2.337094783782959,2275.825911998749
D4:22:CD:00:49:AA,176.70428466796875,-77.68330383300781,92.54031372070312,2.946589946746826,-0.855559229850769,0.5658988952636719,2275.825911998749
D4:22:CD:00:05:6E,23.73162078857422,17.723114013671875,119.93405151367188,-10.828533172607422,2.329230785369873,-15.537679672241211,2275.825911998749
D4:22:CD:00:05:5E,-26.96575164794922,-70.66141510009766,170.5017852783203,-4.378870964050293,-0.6645032167434692,5.101088523864746,2275.825911998749
D4:22:CD:00:05:5D,118.44444274902344,-71.04291534423828,-75.60344696044922,0.417025089263916,-14.035476684570312,1.2259883880615234,2275.85644197464
D4:22:CD:00:05:6B,-35.71853256225586,-69.00997924804688,-116.72826385498047,-2.0494751930236816,1.0926520824432373,2.5154600143432617,2275.85644197464
D4:22:CD:00:49:AA,-177.73355102539062,-74.46463012695312,88.29388427734375,-1.7509570121765137,-1.8759119510650635,6.11723518371582,2275.85644197464
D4:22:CD:00:05:6E,32.624568939208984,12.073840141296387,106.9752197265625,-1.4583487510681152,-4.571316719055176,-13.298028945922852,2275.85644197464
D4:22:CD:00:05:5E,-28.241945266723633,-68.61050415039062,174.7928924560547,-5.659303665161133,-5.468930244445801,4.505580902099609,2275.85644197464
D4:22:CD:00:05:5D,134.9001922607422,-69.06998443603516,-89.12588500976562,0.3284844756126404,7.986366271972656,5.572124481201172,2275.8864414691925
D4:22:CD:00:05:6B,-40.76275634765625,-72.93418884277344,-110.11040496826172,-1.3041043281555176,2.118436813354492,7.501424789428711,2275.8864414691925
D4:22:CD:00:49:AA,-175.07131958007812,-71.93265533447266,89.47361755371094,-1.722076177597046,-3.644824504852295,3.2817745208740234,2275.8864414691925
D4:22:CD:00:05:6E,41.3829231262207,5.150923728942871,98.26480102539062,1.4319016933441162,-12.262845993041992,-14.15676498413086,2275.8864414691925
D4:22:CD:00:05:5E,-23.32326316833496,-68.10026550292969,177.86318969726562,-20.117454528808594,1.2516686916351318,-6.161751747131348,2275.8864414691925
D4:22:CD:00:05:5D,142.53892517089844,-68.00321197509766,-97.61510467529297,-6.55926513671875,-2.1492514610290527,5.570499420166016,2275.9164340496063
D4:22:CD:00:05:6B,-51.05373001098633,-76.32704162597656,-95.85902404785156,-2.1639790534973145,-0.15310603380203247,6.822837829589844,2275.9164340496063
D4:22:CD:00:49:AA,-173.39578247070312,-69.68688201904297,93.05690002441406,-5.582034111022949,-2.922150135040283,0.5611162185668945,2275.9164340496063
D4:22:CD:00:05:6E,50.313621520996094,-3.323657751083374,89.94002532958984,7.4521074295043945,-11.132513046264648,-10.534500122070312,2275.9164340496063
D4:22:CD:00:05:5E,-23.5145320892334,-72.85093688964844,-173.90631103515625,-35.13409423828125,-1.4113500118255615,-9.517974853515625,2275.9164340496063
D4:22:CD:00:05:5D,153.141845703125,-65.95832061767578,-101.28828430175781,0.8008888959884644,0.7724355459213257,1.8973159790039062,2275.975992679596
D4:22:CD:00:05:6B,-67.24527740478516,-75.24871063232422,-75.59912872314453,-2.2660908699035645,-2.792344093322754,3.066082000732422,2275.975992679596
D4:22:CD:00:49:AA,-172.75474548339844,-67.4653091430664,97.41082763671875,-5.264211654663086,6.503017425537109,-2.9642438888549805,2275.975992679596
D4:22:CD:00:05:6E,64.88206481933594,-8.861794471740723,80.33631134033203,20.83826446533203,-12.065849304199219,4.387162208557129,2275.975992679596
D4:22:CD:00:05:5E,-51.640472412109375,-81.54708099365234,-143.41494750976562,-16.410655975341797,-1.883012056350708,-1.8508033752441406,2275.975992679596
D4:22:CD:00:05:5D,160.13438415527344,-64.17138671875,-105.61334228515625,0.8077455759048462,0.9179641008377075,0.49155616760253906,2276.005991458893
D4:22:CD:00:05:6B,-75.7974624633789,-71.13592529296875,-63.449459075927734,-1.215010404586792,-0.7016245126724243,4.329970359802246,2276.005991458893
D4:22:CD:00:49:AA,-173.9033203125,-65.92019653320312,100.38984680175781,2.5556936264038086,1.3031697273254395,3.4303693771362305,2276.005991458893
D4:22:CD:00:05:6E,86.47156524658203,-11.681838035583496,76.69876098632812,23.73438262939453,-7.709165573120117,-20.292327880859375,2276.005991458893
D4:22:CD:00:05:5E,-131.7191162109375,-82.38877868652344,-58.599281311035156,-5.953859329223633,-3.265773296356201,-3.455812931060791,2276.005991458893
D4:22:CD:00:05:5D,165.25416564941406,-62.7392578125,-109.06327056884766,2.9027066230773926,-1.415203332901001,0.2252349853515625,2276.036518096924
D4:22:CD:00:05:6B,-73.48715209960938,-68.91870880126953,-60.180511474609375,2.829108715057373,-0.27673566341400146,3.837411880493164,2276.036518096924
D4:22:CD:00:49:AA,-174.06695556640625,-66.15451049804688,102.99929809570312,-0.3224142789840698,2.61724853515625,5.689692497253418,2276.036518096924
D4:22:CD:00:05:6E,103.5756607055664,-17.589548110961914,78.1313705444336,-5.700491905212402,-17.7347412109375,23.02157211303711,2276.036518096924
D4:22:CD:00:05:5E,-162.12271118164062,-74.8313980102539,-23.092689514160156,-0.6351803541183472,-2.966610908508301,-6.363531112670898,2276.036518096924
D4:22:CD:00:05:5D,168.1849365234375,-61.880496978759766,-109.17742919921875,2.833906650543213,0.256816565990448,1.2132225036621094,2276.066526889801
D4:22:CD:00:05:6B,-70.14493560791016,-68.36479949951172,-61.35948181152344,1.5732836723327637,-1.5233311653137207,3.0576791763305664,2276.066526889801
D4:22:CD:00:49:AA,-176.1449737548828,-66.94432830810547,105.8661117553711,-4.30611515045166,3.2428150177001953,4.776816368103027,2276.066526889801
D4:22:CD:00:05:6E,102.92129516601562,-24.538103103637695,76.97254180908203,9.602516174316406,-2.1448049545288086,-9.447656631469727,2276.066526889801
D4:22:CD:00:05:5E,-172.88783264160156,-67.0344467163086,-9.71468448638916,0.7632068395614624,-2.9529972076416016,-8.848058700561523,2276.066526889801
D4:22:CD:00:05:5D,169.60723876953125,-61.78565979003906,-107.77183532714844,-0.8547736406326294,2.01070499420166,1.8717641830444336,2276.0965180397034
D4:22:CD:00:05:6B,-71.30767059326172,-67.75952911376953,-63.77385330200195,1.1348624229431152,0.09952297806739807,3.3034372329711914,2276.0965180397034
D4:22:CD:00:49:AA,-177.80325317382812,-67.94606018066406,108.08113861083984,-5.931600570678711,1.6952433586120605,5.121063232421875,2276.0965180397034
D4:22:CD:00:05:6E,113.97634887695312,-30.64584732055664,74.62580108642578,-0.7960748672485352,-15.26120376586914,6.281911849975586,2276.0965180397034
D4:22:CD:00:05:5E,177.97010803222656,-60.89260482788086,-0.6557897925376892,1.4627635478973389,-1.6041040420532227,-6.898308753967285,2276.0965180397034
D4:22:CD:00:05:5D,171.07632446289062,-62.607303619384766,-107.91503143310547,-2.7078585624694824,2.724921226501465,1.3440303802490234,2276.1265325546265
D4:22:CD:00:05:6B,-70.73185729980469,-67.16778564453125,-66.88488006591797,-3.207455635070801,3.8208975791931152,5.404374122619629,2276.1265325546265
D4:22:CD:00:49:AA,-179.58522033691406,-69.202880859375,110.84044647216797,-2.8283891677856445,2.513882637023926,1.5915145874023438,2276.1265325546265
D4:22:CD:00:05:6E,119.80878448486328,-35.64004135131836,70.45735168457031,2.940734386444092,-10.697654724121094,-0.473388671875,2276.1265325546265
D4:22:CD:00:05:5E,167.97731018066406,-56.62613296508789,7.340774059295654,1.7996852397918701,-0.7321460247039795,-5.566587448120117,2276.1265325546265
D4:22:CD:00:05:5D,173.61488342285156,-64.10527038574219,-110.75321197509766,-1.8632607460021973,1.826420545578003,1.1277427673339844,2276.1560666561127
D4:22:CD:00:05:6B,-65.89891052246094,-66.74097442626953,-71.05953979492188,-2.0350465774536133,-0.2950877547264099,1.0194282531738281,2276.1560666561127
D4:22:CD:00:49:AA,177.3381805419922,-69.93240356445312,114.0997085571289,-0.3927028775215149,2.664271354675293,-0.742915153503418,2276.1560666561127
D4:22:CD:00:05:6E,124.369140625,-41.87005615234375,64.85264587402344,2.9053568840026855,-2.8386354446411133,-6.646477699279785,2276.1560666561127
D4:22:CD:00:05:5E,155.86427307128906,-54.32633590698242,15.44748592376709,3.589385509490967,3.238473415374756,-4.846357345581055,2276.1560666561127
D4:22:CD:00:05:5D,176.81253051757812,-66.1615982055664,-115.4925308227539,-1.0272388458251953,0.7693696022033691,0.3820323944091797,2276.1860678195953
D4:22:CD:00:05:6B,-65.46165466308594,-65.74113464355469,-73.69091033935547,0.13059794902801514,1.9406545162200928,-1.6135406494140625,2276.1860678195953
D4:22:CD:00:49:AA,172.3372802734375,-70.45977783203125,118.26753997802734,-0.5176995992660522,2.0857367515563965,-0.9247941970825195,2276.1860678195953
D4:22:CD:00:05:6E,132.116455078125,-50.77818298339844,55.07735824584961,2.071136474609375,-0.5426729917526245,-4.749883651733398,2276.1860678195953
D4:22:CD:00:05:5E,145.6992645263672,-55.629276275634766,27.029172897338867,10.878820419311523,5.294515609741211,-6.779862403869629,2276.1860678195953
D4:22:CD:00:05:5D,-179.68450927734375,-68.04573059082031,-120.56979370117188,0.18410739302635193,-0.8357795476913452,-0.4323596954345703,2276.216066837311
D4:22:CD:00:05:6B,-65.73027801513672,-64.32640838623047,-76.58882141113281,2.985539436340332,3.085157871246338,-3.3707022666931152,2276.216066837311
D4:22:CD:00:49:AA,165.97059631347656,-71.17459869384766,123.05828857421875,-1.6506097316741943,0.3984413146972656,-2.5944790840148926,2276.216066837311
D4:22:CD:00:05:6E,145.61802673339844,-62.203086853027344,35.1373176574707,7.062953948974609,-4.25692081451416,3.769181251525879,2276.216066837311
D4:22:CD:00:05:5E,140.68960571289062,-60.701358795166016,45.7625732421875,10.913938522338867,10.785394668579102,-1.2887248992919922,2276.216066837311
D4:22:CD:00:05:5D,-177.12217712402344,-69.03406524658203,-124.7784194946289,1.1764917373657227,-3.3701443672180176,-1.198472023010254,2276.2766103744507
D4:22:CD:00:05:6B,-62.57737350463867,-62.55913162231445,-82.81512451171875,4.054183006286621,2.8201956748962402,-4.150611877441406,2276.2766103744507
D4:22:CD:00:49:AA,160.1029052734375,-71.94770812988281,128.19483947753906,-2.649758815765381,0.4824249744415283,-6.950605392456055,2276.2766103744507
D4:22:CD:00:05:6E,170.83641052246094,-69.65878295898438,-4.186443328857422,9.673206329345703,-9.133346557617188,14.965457916259766,2276.2766103744507
D4:22:CD:00:05:5E,132.22589111328125,-64.01372528076172,67.1596908569336,-22.085220336914062,-0.803017258644104,18.81399917602539,2276.2766103744507
D4:22:CD:00:05:5D,-176.70204162597656,-68.6907730102539,-126.78712463378906,-0.07178029417991638,-2.3667654991149902,-0.4082155227661133,2276.306610107422
D4:22:CD:00:05:6B,-58.47575759887695,-59.543006896972656,-89.76285552978516,2.6121225357055664,3.1122336387634277,-6.151686668395996,2276.306610107422
D4:22:CD:00:49:AA,154.4777069091797,-71.91969299316406,133.98294067382812,-1.8449313640594482,-0.26092106103897095,-7.271237373352051,2276.306610107422
D4:22:CD:00:05:6E,-175.37184143066406,-70.45860290527344,-33.10405349731445,9.666175842285156,-2.7052645683288574,6.048205375671387,2276.306610107422
D4:22:CD:00:05:5E,123.62985229492188,-63.53862762451172,76.02556610107422,4.818304061889648,8.213251113891602,0.8158102035522461,2276.306610107422
D4:22:CD:00:05:5D,-179.2272186279297,-66.4298095703125,-125.75434112548828,0.5353680849075317,-4.216716766357422,-2.170045852661133,2276.336154460907
D4:22:CD:00:05:6B,-56.1769905090332,-54.52850341796875,-95.14732360839844,0.27375340461730957,5.144225120544434,-2.7703332901000977,2276.336154460907
D4:22:CD:00:49:AA,148.18614196777344,-71.70152282714844,141.14389038085938,0.49900227785110474,-2.2479066848754883,-5.16175651550293,2276.336154460907
D4:22:CD:00:05:6E,176.51083374023438,-69.65795135498047,-27.56060791015625,8.82077407836914,-4.189665794372559,-3.0558066368103027,2276.336154460907
D4:22:CD:00:05:5E,115.6555404663086,-63.86441421508789,80.70587921142578,1.6198303699493408,16.564289093017578,1.916346549987793,2276.336154460907
D4:22:CD:00:05:5D,178.2691192626953,-62.98999786376953,-122.3473892211914,-1.8756999969482422,0.381366491317749,-2.6155529022216797,2276.3661494255066
D4:22:CD:00:05:6B,-51.81111526489258,-46.6749382019043,-99.8780746459961,0.09132540225982666,4.421231269836426,3.5118942260742188,2276.3661494255066
D4:22:CD:00:49:AA,142.66128540039062,-71.85199737548828,147.31240844726562,-1.71394681930542,-0.217835932970047,-0.8638248443603516,2276.3661494255066
D4:22:CD:00:05:6E,159.32284545898438,-67.5792007446289,-7.441841125488281,6.784793853759766,-2.76413631439209,10.827964782714844,2276.3661494255066
D4:22:CD:00:05:5E,118.681396484375,-64.51605224609375,72.38926696777344,1.2308018207550049,5.20189094543457,8.306390762329102,2276.3661494255066
D4:22:CD:00:05:5D,176.20388793945312,-59.55857467651367,-116.9643783569336,1.3078057765960693,2.0624442100524902,0.10825061798095703,2276.396149635315
D4:22:CD:00:05:6B,-49.019065856933594,-34.27439498901367,-103.4284439086914,-1.558642864227295,2.870311737060547,12.93375015258789,2276.396149635315
D4:22:CD:00:49:AA,139.6192169189453,-71.93658447265625,151.50599670410156,-0.4689525365829468,-1.263481616973877,0.59844970703125,2276.396149635315
D4:22:CD:00:05:6E,145.7000732421875,-65.81941986083984,13.678114891052246,8.774883270263672,8.92387580871582,8.672582626342773,2276.396149635315
D4:22:CD:00:05:5E,130.84390258789062,-64.11579132080078,55.16896057128906,7.636922836303711,3.5241198539733887,14.395536422729492,2276.396149635315
D4:22:CD:00:05:5D,174.7989044189453,-56.648094177246094,-112.50469970703125,3.511669635772705,-1.6217916011810303,1.0175132751464844,2276.4261639118195
D4:22:CD:00:05:6B,-44.88167953491211,-18.241573333740234,-106.97994995117188,2.05454683303833,2.8661060333251953,9.064352035522461,2276.4261639118195
D4:22:CD:00:49:AA,140.9687957763672,-71.31481170654297,151.75901794433594,2.1335997581481934,-1.805905818939209,3.5262393951416016,2276.4261639118195
D4:22:CD:00:05:6E,140.36338806152344,-66.6750259399414,34.180442810058594,-0.5755549669265747,3.071761131286621,8.065563201904297,2276.4261639118195
D4:22:CD:00:05:5E,146.9456329345703,-61.613040924072266,37.99180603027344,5.075972557067871,1.3148019313812256,17.11481475830078,2276.4261639118195
D4:22:CD:00:05:5D,174.05294799804688,-54.67143249511719,-110.08026885986328,0.6013522148132324,0.37463462352752686,0.702967643737793,2276.4557666778564
D4:22:CD:00:05:6B,-42.38139724731445,-0.29923367500305176,-108.29566955566406,8.963991165161133,1.215045690536499,7.271581649780273,2276.4557666778564
D4:22:CD:00:49:AA,143.66993713378906,-71.25696563720703,149.59591674804688,-2.4124865531921387,-1.402895212173462,8.509172439575195,2276.4557666778564
D4:22:CD:00:05:6E,136.3402862548828,-70.734375,50.13097381591797,-3.1418051719665527,-4.230320930480957,2.2080001831054688,2276.4557666778564
D4:22:CD:00:05:5E,158.3811798095703,-57.680667877197266,25.667797088623047,6.743990898132324,4.868247032165527,11.785013198852539,2276.4557666778564
D4:22:CD:00:05:5D,174.7803497314453,-53.83038330078125,-107.79823303222656,1.506455421447754,0.5182828903198242,1.8387880325317383,2276.485767841339
D4:22:CD:00:05:6B,-38.78704071044922,18.056171417236328,-105.82917022705078,9.470855712890625,-0.2513251304626465,11.040178298950195,2276.485767841339
D4:22:CD:00:49:AA,143.5659942626953,-71.85205078125,149.8323516845703,-1.822354793548584,0.2907959222793579,5.469351768493652,2276.485767841339
D4:22:CD:00:05:6E,138.29324340820312,-78.489990234375,54.74520492553711,-1.626279592514038,-7.95068359375,-3.808032989501953,2276.485767841339
D4:22:CD:00:05:5E,165.14837646484375,-55.56629180908203,18.46059226989746,2.71994686126709,6.2713422775268555,2.7948684692382812,2276.485767841339
D4:22:CD:00:05:5D,175.47093200683594,-54.13252639770508,-105.62431335449219,0.29236501455307007,0.9396238327026367,1.7796669006347656,2276.515767097473
D4:22:CD:00:05:6B,-26.837440490722656,34.059749603271484,-98.24600219726562,4.856368064880371,-2.882829189300537,12.306900024414062,2276.515767097473
D4:22:CD:00:49:AA,142.68634033203125,-73.1043930053711,150.730712890625,-3.5270867347717285,1.9769001007080078,4.444986343383789,2276.515767097473
D4:22:CD:00:05:6E,-137.0168914794922,-86.96868896484375,-23.95427131652832,1.6207084655761719,-8.088050842285156,-2.5964012145996094,2276.515767097473
D4:22:CD:00:05:5E,168.36517333984375,-57.07924270629883,13.926285743713379,1.2873950004577637,7.8726959228515625,-5.654041290283203,2276.515767097473
D4:22:CD:00:05:5D,175.55186462402344,-55.5543327331543,-104.10123443603516,-2.129481792449951,2.0630812644958496,2.2872190475463867,2276.575865507126
D4:22:CD:00:05:6B,-6.653055191040039,45.082515716552734,-87.448486328125,-2.092954158782959,-2.3864197731018066,10.722043991088867,2276.575865507126
D4:22:CD:00:49:AA,145.9891357421875,-74.45865631103516,148.21731567382812,-6.815264701843262,-0.08957728743553162,6.356122970581055,2276.575865507126
D4:22:CD:00:05:6E,-64.95916748046875,-76.09928131103516,-88.1775894165039,3.844358444213867,-16.966552734375,-1.4678735733032227,2276.575865507126
D4:22:CD:00:05:5E,169.3669891357422,-62.55506134033203,9.983918190002441,0.45414870977401733,4.597028732299805,-8.89974594116211,2276.575865507126
D4:22:CD:00:05:5D,175.14190673828125,-58.12099075317383,-102.93402862548828,-1.7757349014282227,1.4672365188598633,2.7136049270629883,2276.605865955353
D4:22:CD:00:05:6B,15.226105690002441,51.40547180175781,-76.74789428710938,-5.409819602966309,-2.6114144325256348,6.834897994995117,2276.605865955353
D4:22:CD:00:49:AA,153.016845703125,-75.64768981933594,143.4398956298828,-3.3583273887634277,0.1802573800086975,4.403362274169922,2276.605865955353
D4:22:CD:00:05:6E,-56.07570266723633,-64.18304443359375,-90.17859649658203,5.0628509521484375,-14.415557861328125,-4.4881439208984375,2276.605865955353
D4:22:CD:00:05:5E,169.87744140625,-70.8753433227539,6.836119651794434,-0.008616378530859947,4.1761932373046875,-9.178083419799805,2276.605865955353
D4:22:CD:00:05:5D,174.08810424804688,-61.72673416137695,-100.24828338623047,-3.3714189529418945,0.3352711796760559,4.283979415893555,2276.63640666008
D4:22:CD:00:05:6B,30.955507278442383,54.62242889404297,-68.87757110595703,-4.284003257751465,-1.584754228591919,2.0004262924194336,2276.63640666008
D4:22:CD:00:49:AA,163.87261962890625,-76.58042907714844,134.8559112548828,0.10803543031215668,1.2075402736663818,0.9775800704956055,2276.63640666008
D4:22:CD:00:05:6E,-50.20815658569336,-54.13859176635742,-88.78723907470703,6.292004585266113,-11.671669006347656,-7.818707466125488,2276.63640666008
D4:22:CD:00:05:5E,169.55453491210938,-81.18429565429688,6.869690895080566,-0.05331689119338989,2.169569492340088,-7.602876663208008,2276.63640666008
D4:22:CD:00:05:5D,171.93833923339844,-65.27725982666016,-96.09813690185547,-1.430387258529663,-4.38934326171875,4.645313262939453,2276.666414499283
D4:22:CD:00:05:6B,38.38124465942383,56.54397964477539,-66.94242858886719,-2.5732226371765137,1.1215617656707764,-2.2361297607421875,2276.666414499283
D4:22:CD:00:49:AA,174.15599060058594,-76.65589904785156,126.13087463378906,-0.2768120765686035,2.550490379333496,-2.4451189041137695,2276.666414499283
D4:22:CD:00:05:6E,-45.88292694091797,-46.072208404541016,-86.4972915649414,5.444751739501953,-8.70952033996582,-8.962982177734375,2276.666414499283
D4:22:CD:00:05:5E,21.361764907836914,-87.85890197753906,154.6211700439453,-4.723454475402832,-0.8262386322021484,-6.2888593673706055,2276.666414499283
