Device,EulerX,EulerY,EulerZ,FreeAccX,FreeAccY,FreeAccZ,Timestamp
D4:22:CD:00:05:5D,-175.8743133544922,-64.46906280517578,-92.59429168701172,-0.134008526802063,-3.9075284004211426,0.26448726654052734,604.1591448783875
D4:22:CD:00:05:6B,-47.327510833740234,-77.8164291381836,-75.25916290283203,-6.175989151000977,8.213445663452148,-3.911252498626709,604.1591448783875
D4:22:CD:00:49:AA,135.71287536621094,-72.34973907470703,147.7613067626953,-1.503678321838379,-1.4718959331512451,-4.755175590515137,604.1591448783875
D4:22:CD:00:05:6E,57.783203125,-13.958356857299805,59.0776481628418,16.183124542236328,20.625728607177734,3.9634313583374023,604.1591448783875
D4:22:CD:00:05:5E,-179.2493896484375,-44.92595291137695,2.2080655097961426,11.073593139648438,8.618949890136719,6.459360122680664,604.1591448783875
D4:22:CD:00:05:5D,-179.3974609375,-61.41561508178711,-87.56290435791016,0.7598658800125122,0.32763755321502686,-5.248923301696777,604.1691446304321
D4:22:CD:00:05:6B,-60.98606872558594,-69.71520233154297,-65.76335144042969,-2.625429153442383,5.646838188171387,-2.874488353729248,604.1691446304321
D4:22:CD:00:49:AA,131.39535522460938,-72.05915069580078,152.92337036132812,-1.492706537246704,3.3070530891418457,-0.9587535858154297,604.1691446304321
D4:22:CD:00:05:6E,43.7801628112793,-17.93458366394043,56.13700866699219,12.021736145019531,-1.1166651248931885,-13.34982681274414,604.1691446304321
D4:22:CD:00:05:5E,178.88343811035156,-46.36573791503906,0.8616368174552917,10.853935241699219,1.0480692386627197,4.478847503662109,604.1691446304321
D4:22:CD:00:05:6B,-75.77192687988281,-58.206851959228516,-61.793731689453125,-6.398838043212891,12.810531616210938,1.9066896438598633,604.1793732643127
D4:22:CD:00:49:AA,129.11398315429688,-71.4893798828125,154.5119171142578,2.344801425933838,0.6772472858428955,3.314208984375,604.1793732643127
D4:22:CD:00:05:6E,49.47536849975586,-15.955888748168945,50.007057189941406,22.228893280029297,6.305263519287109,-17.21780776977539,604.1793732643127
D4:22:CD:00:05:5E,-179.22955322265625,-47.37934875488281,1.4852871894836426,12.300956726074219,-3.6265058517456055,7.589771270751953,604.1793732643127
D4:22:CD:00:05:5D,178.1011505126953,-66.42679595947266,-121.4925537109375,1.7817020416259766,0.3335719704627991,-0.5532341003417969,604.1827142238617
D4:22:CD:00:49:AA,129.13418579101562,-70.4616928100586,152.94422912597656,4.383052825927734,0.5849624872207642,4.861566543579102,604.1827142238617
D4:22:CD:00:05:6E,66.79930877685547,-11.662199974060059,46.830387115478516,8.321346282958984,16.773128509521484,-3.089376449584961,604.1827142238617
D4:22:CD:00:05:5E,-172.74774169921875,-44.725379943847656,-0.3368983268737793,15.114578247070312,-4.854996681213379,10.407121658325195,604.1827142238617
D4:22:CD:00:05:5D,179.32289123535156,-49.32295608520508,-120.00530242919922,1.5949244499206543,-0.8869155645370483,1.1189346313476562,604.186351776123
D4:22:CD:00:05:6B,-29.269960403442383,23.639951705932617,-37.590354919433594,9.403783798217773,-14.575035095214844,16.19680404663086,604.186351776123
D4:22:CD:00:49:AA,136.31260681152344,-80.42963409423828,143.75616455078125,-1.6586894989013672,-2.617389678955078,4.650522232055664,604.186351776123
D4:22:CD:00:05:6E,-172.4011993408203,-76.18460083007812,-61.42137908935547,-3.7118868827819824,-3.4595441818237305,11.253217697143555,604.186351776123
D4:22:CD:00:05:5D,-179.4525909423828,-50.96287155151367,-119.96980285644531,-0.9135329723358154,0.3099671006202698,1.074540138244629,604.2243447303772
D4:22:CD:00:05:6B,-14.750372886657715,27.04639434814453,-26.845794677734375,6.141758918762207,-13.447126388549805,7.087930679321289,604.2243447303772
D4:22:CD:00:49:AA,146.0702362060547,-79.73184204101562,136.006591796875,-4.716858863830566,-0.966385006904602,6.759138107299805,604.2243447303772
D4:22:CD:00:05:6E,171.12246704101562,-77.12586212158203,-38.212833404541016,-2.1605749130249023,-3.3842244148254395,8.097028732299805,604.2243447303772
D4:22:CD:00:05:5E,-177.86476135253906,-37.658077239990234,-47.44698715209961,2.6245269775390625,5.748318672180176,-0.07249259948730469,604.2243447303772
D4:22:CD:00:05:5D,-178.1720428466797,-53.5198860168457,-120.8847885131836,-1.7319726943969727,0.7117859125137329,1.944727897644043,604.2539887428284
D4:22:CD:00:05:6B,-1.4657024145126343,29.330612182617188,-18.79009246826172,3.6428637504577637,-9.660125732421875,0.9518423080444336,604.2539887428284
D4:22:CD:00:49:AA,168.02078247070312,-81.62867736816406,118.20441436767578,-2.2967910766601562,-0.5869995355606079,5.351785659790039,604.2539887428284
D4:22:CD:00:05:6E,174.21633911132812,-79.09782409667969,-29.35062026977539,-7.407740592956543,-5.406887054443359,6.586189270019531,604.2539887428284
D4:22:CD:00:05:5E,-159.181884765625,-32.629058837890625,-55.978878021240234,1.691528558731079,7.023588180541992,-3.4265503883361816,604.2539887428284
D4:22:CD:00:05:5D,-176.8248291015625,-57.27959060668945,-122.01492309570312,-0.40765810012817383,0.048768289387226105,4.152106285095215,604.3135104179382
D4:22:CD:00:05:6B,8.649836540222168,31.025611877441406,-14.094503402709961,-0.6361660957336426,-6.963793754577637,-2.4863414764404297,604.3135104179382
D4:22:CD:00:49:AA,-163.99008178710938,-82.42801666259766,94.77384185791016,2.129807949066162,1.2187492847442627,2.7051172256469727,604.3135104179382
D4:22:CD:00:05:6E,173.69613647460938,-78.37954711914062,-17.104333877563477,-8.330938339233398,-7.4219970703125,2.311635971069336,604.3135104179382
D4:22:CD:00:05:5E,-144.32852172851562,-28.38677406311035,-63.80514907836914,2.956580638885498,7.666068077087402,-8.658767700195312,604.3135104179382
D4:22:CD:00:05:5D,-176.6664276123047,-61.9882698059082,-121.8861312866211,-6.700503349304199,-2.2218761444091797,7.811279296875,604.3434309959412
D4:22:CD:00:05:6B,11.70500659942627,31.631845474243164,-11.330493927001953,-4.469693183898926,-3.915111541748047,-5.975922584533691,604.3434309959412
D4:22:CD:00:49:AA,-144.87998962402344,-82.00048828125,79.76395416259766,1.7163095474243164,1.0828287601470947,-0.8746156692504883,604.3434309959412
D4:22:CD:00:05:6E,175.76927185058594,-75.69979095458984,-7.682888984680176,-5.522283554077148,-7.940441131591797,-2.4204964637756348,604.3434309959412
D4:22:CD:00:05:5E,-133.10333251953125,-25.923988342285156,-72.0863037109375,2.117117404937744,7.075777053833008,-10.169103622436523,604.3434309959412
D4:22:CD:00:05:5D,178.87289428710938,-68.41712188720703,-120.70001983642578,-6.172143936157227,-10.872871398925781,2.2823266983032227,604.3736479282379
D4:22:CD:00:05:6B,5.179781436920166,31.27766990661621,-10.496365547180176,-4.210095405578613,0.239416241645813,-8.713361740112305,604.3736479282379
D4:22:CD:00:49:AA,-138.5153350830078,-81.19459533691406,76.70379638671875,-0.1655517816543579,0.5253586769104004,-5.3516693115234375,604.3736479282379
D4:22:CD:00:05:6E,-179.45851135253906,-72.4144287109375,-1.2905102968215942,-2.4605865478515625,-7.945669174194336,-5.7573394775390625,604.3736479282379
D4:22:CD:00:05:5E,-124.91813659667969,-24.447309494018555,-80.37617492675781,-0.8140208721160889,6.162091255187988,-11.236568450927734,604.3736479282379
D4:22:CD:00:05:5D,171.23046875,-70.62138366699219,-114.07365417480469,5.967083930969238,-3.114315986633301,-9.677785873413086,604.4028172492981
D4:22:CD:00:05:6B,-5.173419952392578,31.2248592376709,-12.953210830688477,-0.9101933240890503,-3.6899142265319824,-9.710678100585938,604.4028172492981
D4:22:CD:00:49:AA,-139.58663940429688,-81.2393569946289,79.6390151977539,1.3795547485351562,3.343073844909668,-9.305011749267578,604.4028172492981
D4:22:CD:00:05:6E,-176.89707946777344,-68.99756622314453,4.759244918823242,-0.6031805276870728,-8.539506912231445,-9.473489761352539,604.4028172492981
D4:22:CD:00:05:5E,-119.15153503417969,-24.13649559020996,-88.53189849853516,-2.4462203979492188,3.034146785736084,-10.77012825012207,604.4028172492981
D4:22:CD:00:05:5D,172.5521240234375,-73.32256317138672,-108.9844970703125,4.903324127197266,-7.416756629943848,-11.9151611328125,604.433739900589
D4:22:CD:00:05:6B,-10.645818710327148,31.04843521118164,-20.514442443847656,0.1303110122680664,-1.906714916229248,-10.058526992797852,604.433739900589
D4:22:CD:00:49:AA,-140.87750244140625,-82.79251861572266,81.64311981201172,0.12826484441757202,2.1987762451171875,-8.681230545043945,604.433739900589
D4:22:CD:00:05:6E,-179.4807586669922,-65.4580078125,10.984163284301758,1.0822043418884277,-7.972481727600098,-10.67872428894043,604.433739900589
D4:22:CD:00:05:5E,-116.00624084472656,-25.01649284362793,-96.65133666992188,-4.686704635620117,-1.2353358268737793,-10.069583892822266,604.433739900589
D4:22:CD:00:05:5D,172.35997009277344,-79.04351806640625,-108.06592559814453,-1.9600849151611328,3.972754955291748,-7.304503440856934,604.4637393951416
D4:22:CD:00:05:6B,-10.685932159423828,29.026962280273438,-33.38056945800781,0.4813101291656494,3.443484306335449,-11.626821517944336,604.4637393951416
D4:22:CD:00:49:AA,-130.58639526367188,-85.42910766601562,72.68869018554688,-1.3365354537963867,-0.7419549226760864,-8.583932876586914,604.4637393951416
D4:22:CD:00:05:6E,173.726318359375,-61.74158477783203,17.118412017822266,2.196990966796875,-7.032735824584961,-10.404502868652344,604.4637393951416
D4:22:CD:00:05:5E,-117.36064147949219,-27.20180320739746,-104.12391662597656,-12.794300079345703,-4.378763198852539,-9.412498474121094,604.4637393951416
D4:22:CD:00:05:5D,173.67562866210938,-79.58638763427734,-107.92111206054688,-0.5481960773468018,16.728134155273438,0.14928913116455078,604.4937515258789
D4:22:CD:00:05:6B,-5.538851261138916,23.41058349609375,-50.78763961791992,-1.457495927810669,-6.010516166687012,-11.552007675170898,604.4937515258789
D4:22:CD:00:49:AA,-100.03910064697266,-86.49927520751953,44.59531784057617,-1.5309135913848877,-0.9774481058120728,-7.595572471618652,604.4937515258789
D4:22:CD:00:05:6E,164.4910430908203,-58.06610107421875,23.101444244384766,4.079448699951172,-5.497224807739258,-8.407798767089844,604.4937515258789
D4:22:CD:00:05:5E,-122.49433898925781,-31.301565170288086,-109.29068756103516,-20.40389633178711,-6.128029823303223,-2.9312005043029785,604.4937515258789
D4:22:CD:00:05:5D,170.76756286621094,-78.1334228515625,-100.63177490234375,-0.23974624276161194,1.070551872253418,-1.3645391464233398,604.5238547325134
D4:22:CD:00:05:6B,2.02120041847229,14.788790702819824,-66.94169616699219,2.0378661155700684,-19.140724182128906,-9.570419311523438,604.5238547325134
D4:22:CD:00:49:AA,-73.55713653564453,-86.62995147705078,20.886377334594727,-0.9311560392379761,-0.040739260613918304,-1.7042303085327148,604.5238547325134
D4:22:CD:00:05:6E,154.93890380859375,-55.45883560180664,28.778596878051758,6.369418144226074,-3.4505434036254883,-4.82216739654541,604.5238547325134
D4:22:CD:00:05:5E,-128.9082489013672,-35.55492401123047,-109.95132446289062,-19.113784790039062,-0.14704781770706177,0.23145580291748047,604.5238547325134
D4:22:CD:00:05:5D,169.6782989501953,-76.97441864013672,-95.79483032226562,1.3155803680419922,-0.6638805866241455,1.9293527603149414,604.5541853904724
D4:22:CD:00:05:6B,17.691312789916992,10.3707857131958,-80.42096710205078,-3.8033790588378906,-20.11194610595703,-12.067291259765625,604.5541853904724
D4:22:CD:00:49:AA,-63.743621826171875,-87.33332824707031,10.98253059387207,0.554050087928772,1.4674303531646729,1.399256706237793,604.5541853904724
D4:22:CD:00:05:6E,148.0767059326172,-54.94044494628906,34.06964111328125,7.106668472290039,2.128490924835205,-0.8879690170288086,604.5541853904724
D4:22:CD:00:05:5E,-134.08872985839844,-36.615509033203125,-105.28665924072266,-14.753637313842773,-7.312990188598633,6.691350936889648,604.5541853904724
D4:22:CD:00:05:5D,166.62159729003906,-76.65982818603516,-91.2939682006836,-0.3066534996032715,-2.2518539428710938,3.13002872467041,604.6137387752533
D4:22:CD:00:05:6B,10.212389945983887,11.716538429260254,-76.13285064697266,22.462627410888672,11.305887222290039,-10.91427230834961,604.6137387752533
D4:22:CD:00:49:AA,-108.91810607910156,-88.5696029663086,54.85282897949219,-1.4771642684936523,-4.994026184082031,1.7439661026000977,604.6137387752533
D4:22:CD:00:05:6E,151.034912109375,-55.58625793457031,35.741477966308594,7.247655868530273,4.529090881347656,2.0614852905273438,604.6137387752533
D4:22:CD:00:05:5E,-140.0325927734375,-36.594058990478516,-99.26976776123047,1.866847276687622,-26.116901397705078,-16.334938049316406,604.6137387752533
D4:22:CD:00:05:5D,161.3478546142578,-76.60830688476562,-84.35569763183594,-1.486572027206421,-1.9514594078063965,6.170681953430176,604.6437454223633
D4:22:CD:00:05:6B,-8.767446517944336,16.854585647583008,-61.23130798339844,-6.871350288391113,-20.92162322998047,1.7744760513305664,604.6437454223633
D4:22:CD:00:49:AA,-172.6074676513672,-88.25740051269531,117.87506103515625,-3.215604782104492,-5.866523742675781,3.682313919067383,604.6437454223633
D4:22:CD:00:05:6E,160.8363037109375,-54.441490173339844,32.74586486816406,15.160249710083008,-7.534612655639648,1.626917839050293,604.6437454223633
D4:22:CD:00:05:5E,-151.28692626953125,-36.448753356933594,-94.39447784423828,2.2142858505249023,-12.401224136352539,10.611726760864258,604.6437454223633
D4:22:CD:00:05:5D,151.97586059570312,-76.80451202392578,-74.7566909790039,-2.2025418281555176,-0.6466144323348999,3.3312482833862305,604.6737372875214
D4:22:CD:00:05:6B,-8.147127151489258,23.410545349121094,-43.9379997253418,7.368284225463867,-13.942770004272461,-12.504451751708984,604.6737372875214
D4:22:CD:00:49:AA,172.41629028320312,-87.1736068725586,132.4845428466797,0.9627319574356079,-3.2943806648254395,6.557277679443359,604.6737372875214
D4:22:CD:00:05:6E,155.48561096191406,-51.220401763916016,30.686626434326172,21.143028259277344,-4.412328720092773,1.4748048782348633,604.6737372875214
D4:22:CD:00:05:5E,-157.5175018310547,-36.884498596191406,-91.03740692138672,5.250516891479492,-6.578558921813965,0.3267049789428711,604.6737372875214
D4:22:CD:00:05:5D,137.44393920898438,-77.11244201660156,-61.732730865478516,0.5602123737335205,-2.3166208267211914,2.480670928955078,604.733719587326
D4:22:CD:00:05:6B,-9.02419376373291,26.52725601196289,-25.08468246459961,3.1178274154663086,0.8777501583099365,-5.907649040222168,604.733719587326
D4:22:CD:00:49:AA,-179.60577392578125,-86.25372314453125,122.15486145019531,6.593327522277832,1.1167573928833008,-0.18353271484375,604.733719587326
D4:22:CD:00:05:6E,136.14984130859375,-49.525291442871094,29.480175018310547,11.010713577270508,20.366519927978516,-11.139684677124023,604.733719587326
D4:22:CD:00:05:5E,-161.08761596679688,-38.299617767333984,-87.0438461303711,-4.763710021972656,-7.138270378112793,-2.251063823699951,604.733719587326
D4:22:CD:00:05:5D,123.74480438232422,-75.32244110107422,-54.23823928833008,7.91336727142334,-0.5989317893981934,1.5850582122802734,604.7387194633484
D4:22:CD:00:05:6B,-18.753067016601562,25.935787200927734,-9.262127876281738,-10.873605728149414,10.907960891723633,-6.376604080200195,604.7387194633484
D4:22:CD:00:49:AA,-173.6980438232422,-84.19522094726562,112.76504516601562,10.060646057128906,5.393519401550293,-6.610040664672852,604.7387194633484
D4:22:CD:00:05:6E,131.51734924316406,-51.393470764160156,30.468603134155273,6.338244438171387,16.515125274658203,-9.39181900024414,604.7387194633484
D4:22:CD:00:05:5E,-161.2364501953125,-39.22813415527344,-84.00540161132812,-1.4562249183654785,-6.234767913818359,-2.1431169509887695,604.7387194633484
D4:22:CD:00:05:5D,125.21385955810547,-70.46428680419922,-66.1282730102539,19.510379791259766,25.490131378173828,10.107044219970703,604.7638490200043
D4:22:CD:00:05:6B,-34.910545349121094,23.39591407775879,3.8804593086242676,-11.917228698730469,2.132474899291992,-3.0143094062805176,604.7638490200043
D4:22:CD:00:49:AA,-175.5835723876953,-81.76746368408203,112.45052337646484,5.9462127685546875,-0.04898906499147415,0.47223854064941406,604.7638490200043
D4:22:CD:00:05:6E,142.09280395507812,-55.31291580200195,32.812644958496094,1.8248307704925537,15.072010040283203,-2.176468849182129,604.7638490200043
D4:22:CD:00:05:5E,-160.9654083251953,-39.51679229736328,-82.11017608642578,-3.2013373374938965,-5.643167495727539,-2.839627742767334,604.7638490200043
D4:22:CD:00:05:5D,134.58929443359375,-59.372642517089844,-84.16480255126953,19.021137237548828,11.91867446899414,11.033498764038086,604.793865442276
D4:22:CD:00:05:6B,-52.91305923461914,20.14627456665039,14.141292572021484,-11.835098266601562,11.132219314575195,-4.153593063354492,604.793865442276
D4:22:CD:00:49:AA,-174.13246154785156,-80.62164306640625,111.06004333496094,-6.224199295043945,-0.6763899326324463,2.021714210510254,604.793865442276
D4:22:CD:00:05:6E,155.31813049316406,-60.44734573364258,37.79916763305664,-7.093932151794434,-3.2495880126953125,7.816595077514648,604.793865442276
D4:22:CD:00:05:5E,-160.8997039794922,-38.63093566894531,-81.17817687988281,-1.717613697052002,-7.0035552978515625,-2.482239246368408,604.793865442276
D4:22:CD:00:05:5D,141.02316284179688,-45.51823043823242,-96.782958984375,9.65435791015625,-0.18013277649879456,0.0664663314819336,604.8236570358276
D4:22:CD:00:05:6B,-74.2779541015625,15.954095840454102,20.55715560913086,-4.398841857910156,2.735884189605713,-4.100225448608398,604.8236570358276
D4:22:CD:00:49:AA,-173.9639892578125,-79.99968719482422,110.69324493408203,1.0812335014343262,2.087249279022217,-0.5458774566650391,604.8236570358276
D4:22:CD:00:05:6E,157.5781707763672,-63.948883056640625,41.65604782104492,-3.4843850135803223,-2.4655404090881348,1.6038227081298828,604.8236570358276
D4:22:CD:00:05:5E,-161.19053649902344,-36.78776168823242,-80.49932861328125,-0.9891918897628784,-4.320732116699219,-1.5385732650756836,604.8236570358276
D4:22:CD:00:05:5D,148.23846435546875,-32.00328826904297,-106.27204895019531,1.8302650451660156,-3.893397808074951,-10.476993560791016,604.8536334037781
D4:22:CD:00:05:6B,-87.8414077758789,9.870678901672363,25.839828491210938,0.24394261837005615,2.9702181816101074,9.479072570800781,604.8536334037781
D4:22:CD:00:49:AA,-173.32644653320312,-79.85022735595703,110.12618255615234,5.448995590209961,1.8451223373413086,-0.8313302993774414,604.8536334037781
D4:22:CD:00:05:6E,157.67269897460938,-65.63442993164062,44.17299270629883,0.6873552799224854,0.8128697872161865,-2.778813362121582,604.8536334037781
D4:22:CD:00:05:5E,-161.0802001953125,-34.21412658691406,-80.0968246459961,0.3256843090057373,-8.47397232055664,-1.6642951965332031,604.8536334037781
D4:22:CD:00:05:5D,156.36561584472656,-20.889440536499023,-112.86173248291016,-2.6366710662841797,-1.3852260112762451,-16.376052856445312,604.914154291153
D4:22:CD:00:05:6B,-92.82563018798828,4.088749408721924,31.81133270263672,-3.35331392288208,2.8439064025878906,1.8133964538574219,604.914154291153
D4:22:CD:00:49:AA,-174.17857360839844,-79.41934967041016,111.31543731689453,1.3633296489715576,1.738417387008667,-3.7006759643554688,604.914154291153
D4:22:CD:00:05:6E,159.70001220703125,-66.62474060058594,46.70711135864258,1.4797840118408203,0.653355598449707,-4.200139999389648,604.914154291153
D4:22:CD:00:05:5E,-160.79409790039062,-31.162532806396484,-79.28716278076172,-3.588526725769043,-5.336246490478516,-3.9616193771362305,604.914154291153
D4:22:CD:00:05:5D,164.9033203125,-14.389152526855469,-117.77057647705078,-3.2743067741394043,-2.165891647338867,-16.832565307617188,604.9431622028351
D4:22:CD:00:05:6B,-93.69718170166016,-1.6177266836166382,39.19605255126953,-2.836028575897217,1.7464392185211182,1.1594982147216797,604.9431622028351
D4:22:CD:00:49:AA,-174.1795654296875,-79.13985443115234,111.82164001464844,1.152388095855713,-0.4662308096885681,-3.5240607261657715,604.9431622028351
D4:22:CD:00:05:6E,162.03208923339844,-67.15027618408203,49.57796859741211,-0.45054805278778076,-1.5597915649414062,-4.465839385986328,604.9431622028351
D4:22:CD:00:05:5E,-160.0056915283203,-29.128786087036133,-77.7926025390625,-0.26048409938812256,-3.9421253204345703,-2.398312568664551,604.9431622028351
D4:22:CD:00:05:5D,167.3162384033203,-14.31713581085205,-122.93936157226562,-9.126420974731445,-2.49044132232666,-15.73985481262207,604.9736387729645
D4:22:CD:00:05:6B,-89.11874389648438,-9.434847831726074,46.79655838012695,-0.9564124345779419,2.7448134422302246,-4.811740875244141,604.9736387729645
D4:22:CD:00:49:AA,-171.428466796875,-79.4245834350586,109.2193374633789,3.3994040489196777,1.3992853164672852,-2.7301087379455566,604.9736387729645
D4:22:CD:00:05:6E,167.7270050048828,-65.81635284423828,54.62350082397461,-0.8633652925491333,-2.807448387145996,-2.239628791809082,604.9736387729645
D4:22:CD:00:05:5E,-160.54879760742188,-26.226247787475586,-76.69996643066406,-4.002077102661133,-8.109418869018555,-3.4690985679626465,604.9736387729645
D4:22:CD:00:05:5D,163.1494598388672,-20.092336654663086,-127.7659683227539,-12.242551803588867,-8.441543579101562,-9.635810852050781,605.0037372112274
D4:22:CD:00:05:6B,-83.38742065429688,-20.92808723449707,53.84465026855469,2.859862804412842,5.3137006759643555,-4.225500106811523,605.0037372112274
D4:22:CD:00:49:AA,-166.99839782714844,-79.97198486328125,104.01004791259766,8.488710403442383,1.7018945217132568,-0.4972991943359375,605.0037372112274
D4:22:CD:00:05:6E,175.2632598876953,-62.73268508911133,63.085472106933594,2.494987964630127,-9.825874328613281,6.470945358276367,605.0037372112274
D4:22:CD:00:05:5E,-162.0679931640625,-23.28953742980957,-76.7221450805664,-4.788908004760742,-3.2382426261901855,-2.2437801361083984,605.0037372112274
D4:22:CD:00:05:5D,160.68910217285156,-23.27910804748535,-131.29188537597656,-7.0675048828125,-6.164311408996582,31.53955078125,605.0332639217377
D4:22:CD:00:05:6B,-75.33072662353516,-37.855770111083984,59.34520721435547,6.74445915222168,13.609832763671875,8.289205551147461,605.0332639217377
D4:22:CD:00:49:AA,-164.76907348632812,-79.70868682861328,99.63885498046875,2.5623393058776855,-2.274501323699951,1.483473777770996,605.0332639217377
D4:22:CD:00:05:6E,173.87583923339844,-56.288021087646484,73.25032806396484,13.89177131652832,-13.885059356689453,13.471250534057617,605.0332639217377
D4:22:CD:00:05:5E,-163.4733428955078,-21.859336853027344,-77.44278717041016,-1.3326153755187988,-6.873394966125488,-0.7405796051025391,605.0332639217377
D4:22:CD:00:05:5D,163.3755645751953,-21.91912841796875,-128.8119659423828,-16.389816284179688,-10.186140060424805,12.595449447631836,605.0640118122101
D4:22:CD:00:05:6B,-54.433170318603516,-56.39566421508789,54.715389251708984,16.608448028564453,27.233104705810547,32.50267791748047,605.0640118122101
D4:22:CD:00:49:AA,-163.77281188964844,-78.01154327392578,96.19845581054688,-8.103275299072266,-2.7146053314208984,5.0055999755859375,605.0640118122101
D4:22:CD:00:05:6E,167.68756103515625,-45.80324172973633,84.18037414550781,16.767650604248047,4.2881059646606445,15.671894073486328,605.0640118122101
D4:22:CD:00:05:5E,-164.64883422851562,-21.856578826904297,-77.27979278564453,1.5300397872924805,-7.624309539794922,0.9136924743652344,605.0640118122101
D4:22:CD:00:05:5D,169.00543212890625,-17.215595245361328,-126.3716049194336,-14.308004379272461,-12.48291015625,9.400850296020508,605.093493938446
D4:22:CD:00:05:6B,-37.601707458496094,-59.386898040771484,43.737892150878906,23.53549575805664,21.791179656982422,-4.608904838562012,605.093493938446
D4:22:CD:00:49:AA,-164.13272094726562,-77.50355529785156,96.92237854003906,-0.5904054641723633,-1.5142278671264648,9.196878433227539,605.093493938446
D4:22:CD:00:05:6E,164.01918029785156,-30.639183044433594,93.68891143798828,26.183124542236328,3.9981579780578613,20.30463409423828,605.093493938446
D4:22:CD:00:05:5E,-165.33387756347656,-23.513837814331055,-75.69475555419922,-1.117828369140625,-6.560866355895996,0.11110973358154297,605.093493938446
D4:22:CD:00:05:5D,170.16920471191406,-11.078588485717773,-125.93122863769531,-19.065101623535156,-10.178363800048828,11.487546920776367,605.123046875
D4:22:CD:00:05:6B,-49.98124694824219,-52.166019439697266,47.08213424682617,19.90654754638672,23.169078826904297,3.2357254028320312,605.123046875
D4:22:CD:00:49:AA,-165.45420837402344,-76.75909423828125,97.58018493652344,4.865289688110352,1.8209030628204346,7.253274917602539,605.123046875
D4:22:CD:00:05:6E,152.460205078125,-10.950458526611328,99.13569641113281,23.377002716064453,9.650299072265625,21.497230529785156,605.123046875
D4:22:CD:00:05:5E,-165.63963317871094,-26.770885467529297,-74.25279998779297,-2.972020149230957,-6.741842269897461,0.18982887268066406,605.123046875
D4:22:CD:00:05:5D,165.7359619140625,-5.505754470825195,-126.36690521240234,-11.647281646728516,-6.676977157592773,4.457612037658691,605.1532094478607
D4:22:CD:00:05:6B,-66.98316955566406,-44.29185104370117,46.125003814697266,13.879842758178711,-3.2434940338134766,19.0040283203125,605.1532094478607
D4:22:CD:00:49:AA,-168.79188537597656,-77.32734680175781,100.46629333496094,3.341303825378418,4.483707427978516,7.969448089599609,605.1532094478607
D4:22:CD:00:05:6E,138.395751953125,12.329453468322754,99.42363739013672,6.672699928283691,25.322444915771484,4.480621337890625,605.1532094478607
D4:22:CD:00:05:5E,-166.3268585205078,-31.38389015197754,-74.22802734375,-2.9651989936828613,-8.128889083862305,1.2196836471557617,605.1532094478607
D4:22:CD:00:05:5D,165.39015197753906,-1.8936175107955933,-127.0220947265625,-6.183521270751953,-0.9590169191360474,-1.9691839218139648,605.2139480113983
D4:22:CD:00:05:6B,-71.56583404541016,-43.48904037475586,41.00768280029297,3.26340913772583,-3.3959975242614746,9.63142204284668,605.2139480113983
D4:22:CD:00:49:AA,-173.65020751953125,-78.08787536621094,104.35523986816406,1.1965572834014893,2.4742188453674316,8.31491470336914,605.2139480113983
D4:22:CD:00:05:6E,122.01170349121094,31.418067932128906,97.03770446777344,8.243890762329102,23.053085327148438,-12.451984405517578,605.2139480113983
D4:22:CD:00:05:5E,-166.60055541992188,-37.950233459472656,-75.08662414550781,2.418621063232422,-15.170295715332031,2.5591554641723633,605.2139480113983
D4:22:CD:00:05:5D,167.99331665039062,-1.9591411352157593,-127.66343688964844,-3.4754104614257812,2.093132495880127,-8.482633590698242,605.2439444065094
D4:22:CD:00:05:6B,-72.1850357055664,-49.32479476928711,35.64781951904297,1.634702444076538,-0.7002636194229126,-1.777461051940918,605.2439444065094
D4:22:CD:00:49:AA,-177.7149658203125,-78.62263488769531,107.08525085449219,2.8367114067077637,2.1628217697143555,4.4896745681762695,605.2439444065094
D4:22:CD:00:05:6E,102.6339340209961,41.53800582885742,95.95901489257812,10.818511962890625,6.8032732009887695,-14.338945388793945,605.2439444065094
D4:22:CD:00:05:5E,-160.86007690429688,-45.94929504394531,-77.05834197998047,-2.635535717010498,-3.526000499725342,1.9405241012573242,605.2439444065094
D4:22:CD:00:05:5D,170.36111450195312,-6.645290851593018,-128.02896118164062,-3.4834375381469727,2.616046905517578,-13.268180847167969,605.2733836174011
D4:22:CD:00:05:6B,-80.90753936767578,-58.407318115234375,32.111080169677734,0.6949754953384399,-3.6676411628723145,0.7407016754150391,605.2733836174011
D4:22:CD:00:49:AA,175.39266967773438,-79.41995239257812,112.36277770996094,4.765024185180664,1.749490737915039,-0.6265878677368164,605.2733836174011
D4:22:CD:00:05:6E,84.80780792236328,45.392967224121094,104.45204162597656,3.015357494354248,10.034690856933594,-6.284751892089844,605.2733836174011
D4:22:CD:00:05:5E,-159.62545776367188,-46.84475326538086,-79.28218078613281,-8.305557250976562,6.699317932128906,0.5615425109863281,605.2733836174011
D4:22:CD:00:05:5D,169.46690368652344,-15.75917911529541,-128.245361328125,-5.598252296447754,-1.3810005187988281,-19.123992919921875,605.3033990859985
D4:22:CD:00:05:6B,-91.10125732421875,-69.37102508544922,32.334598541259766,-6.117759704589844,-6.000347137451172,0.34744834899902344,605.3033990859985
D4:22:CD:00:49:AA,167.15037536621094,-79.45291900634766,117.6888427734375,1.9084177017211914,0.7262073755264282,-7.013059616088867,605.3033990859985
D4:22:CD:00:05:6E,68.49154663085938,48.49475860595703,119.71544647216797,-5.454968452453613,-0.17793461680412292,-3.390162944793701,605.3033990859985
D4:22:CD:00:05:5E,-159.3953857421875,-42.8459358215332,-80.43021392822266,-2.8016395568847656,0.48748117685317993,-7.569958686828613,605.3033990859985
D4:22:CD:00:05:5D,165.9525146484375,-28.44277000427246,-128.61782836914062,-6.741194725036621,-4.070795059204102,-17.899459838867188,605.3335063457489
D4:22:CD:00:05:6B,-112.45951080322266,-79.61354064941406,52.20799255371094,-8.315446853637695,1.0650737285614014,-4.174605369567871,605.3335063457489
D4:22:CD:00:49:AA,163.9889373779297,-79.42337036132812,117.64363098144531,-1.2678730487823486,0.13245221972465515,-11.139589309692383,605.3335063457489
D4:22:CD:00:05:6E,59.43206024169922,51.09477615356445,134.98475646972656,9.380817413330078,-2.4168272018432617,-8.065326690673828,605.3335063457489
D4:22:CD:00:05:5E,-162.80935668945312,-41.319602966308594,-82.48049926757812,2.0500917434692383,-8.904308319091797,-20.684886932373047,605.3335063457489
D4:22:CD:00:05:5D,161.94784545898438,-44.083072662353516,-129.54981994628906,-6.172615051269531,-3.7361273765563965,-10.80345344543457,605.3638150691986
D4:22:CD:00:05:6B,-177.22276306152344,-81.9906005859375,119.27137756347656,-5.884309768676758,3.9926280975341797,-7.386716842651367,605.3638150691986
D4:22:CD:00:49:AA,162.1009979248047,-80.22984313964844,116.52174377441406,-0.19294503331184387,1.9287769794464111,-8.177509307861328,605.3638150691986
D4:22:CD:00:05:6E,65.41082763671875,50.174720764160156,149.14303588867188,3.72365665435791,-3.543219566345215,-5.8469085693359375,605.3638150691986
D4:22:CD:00:05:5E,-171.7518310546875,-40.32701110839844,-82.9000015258789,1.0681979656219482,-5.2365217208862305,3.191136360168457,605.3638150691986
D4:22:CD:00:05:5D,158.88369750976562,-62.3117561340332,-132.1651153564453,-5.399247169494629,-1.259446620941162,0.17368030548095703,605.3938174247742
D4:22:CD:00:05:6B,148.44631958007812,-75.51483154296875,155.0037078857422,-3.7726216316223145,3.3767037391662598,-5.924778938293457,605.3938174247742
D4:22:CD:00:49:AA,155.3544464111328,-82.05720520019531,119.2313232421875,1.630998134613037,3.1147704124450684,-10.452077865600586,605.3938174247742
D4:22:CD:00:05:6E,75.19744873046875,44.85251998901367,159.53424072265625,-5.000615119934082,-3.0304160118103027,-4.464414596557617,605.3938174247742
D4:22:CD:00:05:5E,-176.63584899902344,-38.639522552490234,-83.05216979980469,-1.363250494003296,-4.984433174133301,-6.590886116027832,605.3938174247742
D4:22:CD:00:05:5D,162.01483154296875,-82.2923812866211,-139.6837615966797,-1.323392391204834,-0.8950401544570923,17.332538604736328,605.4234228134155
D4:22:CD:00:05:6B,136.3961639404297,-68.17742919921875,167.8440704345703,-4.900888442993164,4.265751838684082,-5.076712608337402,605.4234228134155
D4:22:CD:00:49:AA,148.33383178710938,-81.71800231933594,121.45648956298828,3.164487361907959,-3.01558780670166,-6.534314155578613,605.4234228134155
D4:22:CD:00:05:6E,80.79148864746094,35.18517303466797,167.36036682128906,-12.806657791137695,-0.9869470596313477,-7.111442565917969,605.4234228134155
D4:22:CD:00:05:5E,-179.704345703125,-36.09021759033203,-83.84814453125,-3.712576389312744,-5.137775421142578,-5.631418228149414,605.4234228134155
D4:22:CD:00:05:5D,-18.505308151245117,-78.23804473876953,45.926734924316406,18.145652770996094,8.774906158447266,25.05223846435547,605.4554431438446
D4:22:CD:00:05:6B,126.01901245117188,-61.44868469238281,173.95164489746094,-4.15750789642334,4.430488586425781,-3.316962718963623,605.4554431438446
D4:22:CD:00:49:AA,143.5181121826172,-82.98591613769531,124.18594360351562,-4.339341163635254,-0.612720251083374,-0.28069305419921875,605.4554431438446
D4:22:CD:00:05:6E,81.60684204101562,22.13016700744629,173.6444091796875,-33.49302673339844,3.978916645050049,-12.57196044921875,605.4554431438446
D4:22:CD:00:05:5E,178.17889404296875,-33.734161376953125,-84.56328582763672,-4.347169876098633,-10.483022689819336,-2.170461654663086,605.4554431438446
D4:22:CD:00:05:5D,-6.213388919830322,-66.18558502197266,38.09972381591797,16.837261199951172,22.260406494140625,-25.118549346923828,605.5138790607452
D4:22:CD:00:05:6B,113.41474914550781,-55.90190887451172,177.69573974609375,-6.75826358795166,2.681635856628418,-5.056939125061035,605.5138790607452
D4:22:CD:00:49:AA,146.578369140625,-85.13554382324219,122.01836395263672,-4.911018371582031,-2.5808072090148926,-3.0602264404296875,605.5138790607452
D4:22:CD:00:05:6E,82.4134292602539,15.585627555847168,177.99612426757812,-11.567146301269531,-3.0328798294067383,2.1235790252685547,605.5138790607452
D4:22:CD:00:05:5E,177.4278564453125,-32.413551330566406,-85.46548461914062,0.15929678082466125,-9.143877029418945,0.28578662872314453,605.5138790607452
D4:22:CD:00:05:5D,-14.417293548583984,-64.82296752929688,36.04636764526367,18.97692108154297,4.808689117431641,-8.110980987548828,605.5433123111725
D4:22:CD:00:05:6B,102.3724136352539,-52.296875,179.74520874023438,-7.58574104309082,2.4878382682800293,-7.934316635131836,605.5433123111725
D4:22:CD:00:49:AA,164.43020629882812,-86.176025390625,105.42686462402344,8.350753784179688,0.3643777370452881,3.2399730682373047,605.5433123111725
D4:22:CD:00:05:6E,82.39974212646484,21.170825958251953,176.6243133544922,17.74789047241211,-3.891921043395996,-12.825698852539062,605.5433123111725
D4:22:CD:00:05:5E,178.16383361816406,-32.290008544921875,-86.79498291015625,-1.7940924167633057,-12.798349380493164,0.9523286819458008,605.5433123111725
D4:22:CD:00:05:5D,-3.4404733180999756,-71.55689239501953,27.174909591674805,14.278127670288086,-0.6507521867752075,-1.9360580444335938,605.603346824646
D4:22:CD:00:05:6B,93.73403930664062,-51.10581970214844,-179.5294952392578,-8.421058654785156,0.9663166999816895,-5.953836441040039,605.603346824646
D4:22:CD:00:49:AA,178.35205078125,-86.72010040283203,92.4314193725586,8.132551193237305,1.5930602550506592,8.319124221801758,605.603346824646
D4:22:CD:00:05:6E,93.40158081054688,29.856918334960938,174.35177612304688,-2.0412650108337402,-6.526236534118652,-6.323397636413574,605.603346824646
D4:22:CD:00:05:5E,-179.6225128173828,-33.214447021484375,-88.61561584472656,-1.835479736328125,-10.458747863769531,2.298765182495117,605.603346824646
D4:22:CD:00:05:5D,32.029029846191406,-80.54339599609375,0.9348925948143005,15.02515983581543,4.940656661987305,3.63143253326416,605.6073400974274
D4:22:CD:00:05:6B,88.67902374267578,-52.67454147338867,178.42752075195312,-12.011451721191406,3.0194854736328125,-1.567178726196289,605.6073400974274
D4:22:CD:00:49:AA,-172.80535888671875,-86.275634765625,83.84203338623047,0.2320837676525116,2.6794657707214355,3.7471628189086914,605.6073400974274
D4:22:CD:00:05:6E,93.56211853027344,43.021751403808594,169.34864807128906,-15.927047729492188,4.3978681564331055,-4.955565452575684,605.6073400974274
D4:22:CD:00:05:5E,-175.982666015625,-36.162384033203125,-90.58757019042969,-2.639528751373291,-10.812973022460938,0.4266166687011719,605.6073400974274
D4:22:CD:00:05:5D,105.50301361083984,-80.99442291259766,-65.62661743164062,-6.242166519165039,2.8413496017456055,9.351430892944336,605.6330926418304
D4:22:CD:00:05:6B,91.0357666015625,-55.89646911621094,174.408447265625,-11.707624435424805,6.308428764343262,2.491443634033203,605.6330926418304
D4:22:CD:00:49:AA,-165.72042846679688,-84.85726928710938,79.02316284179688,0.5944064855575562,0.08381667733192444,4.373688697814941,605.6330926418304
D4:22:CD:00:05:6E,84.80305480957031,57.62491226196289,158.63729858398438,-6.651668548583984,8.216856002807617,-15.54054069519043,605.6330926418304
D4:22:CD:00:05:5E,-167.90185546875,-41.601524353027344,-93.5158462524414,-3.610872745513916,-3.3271422386169434,-6.168983459472656,605.6330926418304
D4:22:CD:00:05:5D,125.9156723022461,-79.12123107910156,-88.97274017333984,-14.766546249389648,-30.257293701171875,0.16409683227539062,605.6631598472595
D4:22:CD:00:05:6B,99.35440826416016,-60.41699981689453,169.35874938964844,-6.371420860290527,4.047432899475098,4.404499053955078,605.6631598472595
D4:22:CD:00:49:AA,-163.5023956298828,-83.12448120117188,81.29637908935547,-1.138643741607666,-0.8198962211608887,-0.337890625,605.6631598472595
D4:22:CD:00:05:6E,72.52483367919922,69.89688873291016,137.42953491210938,4.3391008377075195,7.14674186706543,-5.3886518478393555,605.6631598472595
D4:22:CD:00:05:5E,-157.50706481933594,-42.942344665527344,-97.15949249267578,-9.11819076538086,-8.140220642089844,-6.067533493041992,605.6631598472595
D4:22:CD:00:05:5D,137.01661682128906,-79.43435668945312,-95.75511932373047,0.4847732186317444,8.655092239379883,6.524940490722656,605.693502664566
D4:22:CD:00:05:6B,108.97669219970703,-65.41709899902344,162.49156188964844,1.948134422302246,4.985780715942383,2.525618553161621,605.693502664566
D4:22:CD:00:49:AA,-163.30990600585938,-79.59380340576172,87.18478393554688,-2.901012420654297,-5.298520088195801,-5.520720481872559,605.693502664566
D4:22:CD:00:05:6E,42.40768814086914,75.03117370605469,95.20923614501953,8.225656509399414,-4.895880699157715,1.9646501541137695,605.693502664566
D4:22:CD:00:05:5E,-142.49940490722656,-42.89552688598633,-99.35466003417969,-17.687179565429688,6.136146545410156,11.287679672241211,605.693502664566
D4:22:CD:00:05:5D,149.87615966796875,-80.0262451171875,-103.82506561279297,1.4695301055908203,0.9701611995697021,-1.0300779342651367,605.7232766151428
D4:22:CD:00:05:6B,115.88143157958984,-68.89875030517578,155.69583129882812,5.395937919616699,7.807928085327148,-0.2295970916748047,605.7232766151428
D4:22:CD:00:49:AA,-166.01853942871094,-73.95948791503906,96.0174331665039,-2.5417490005493164,-2.978391170501709,-4.695435523986816,605.7232766151428
D4:22:CD:00:05:6E,22.565019607543945,69.31724548339844,55.769744873046875,5.732967376708984,-14.304380416870117,-0.9636983871459961,605.7232766151428
D4:22:CD:00:05:5E,-130.600830078125,-38.55501937866211,-96.33084106445312,-24.842918395996094,3.9282212257385254,7.177839279174805,605.7232766151428
D4:22:CD:00:05:5D,162.89785766601562,-80.54682922363281,-113.93482971191406,1.4746677875518799,-1.437154769897461,1.1792793273925781,605.7533271312714
D4:22:CD:00:05:6B,118.09954833984375,-71.22259521484375,152.04380798339844,3.5013723373413086,5.985599517822266,-6.849143981933594,605.7533271312714
D4:22:CD:00:49:AA,-169.25123596191406,-68.80690002441406,105.3486099243164,-0.5753006935119629,1.9309821128845215,-1.9029512405395508,605.7533271312714
D4:22:CD:00:05:6E,26.096834182739258,58.95492172241211,35.798583984375,9.089452743530273,-7.038023948669434,-5.874300003051758,605.7533271312714
D4:22:CD:00:05:5E,-128.8701629638672,-30.586061477661133,-88.73674774169922,-13.013957977294922,-0.4958701729774475,-1.863481044769287,605.7533271312714
D4:22:CD:00:05:5D,173.1732635498047,-80.4078598022461,-122.83413696289062,-0.6418102979660034,-0.7203103303909302,-0.020528793334960938,605.8133265972137
D4:22:CD:00:05:6B,123.1096420288086,-72.72232818603516,150.69943237304688,-0.8663899898529053,2.245319366455078,-2.4944252967834473,605.8133265972137
D4:22:CD:00:49:AA,-174.06637573242188,-66.3991470336914,111.49272918701172,3.102633476257324,2.0094733238220215,4.400280952453613,605.8133265972137
D4:22:CD:00:05:6E,47.05594253540039,51.659305572509766,29.58643341064453,3.434070587158203,-13.576284408569336,-10.524948120117188,605.8133265972137
D4:22:CD:00:05:5E,-132.42507934570312,-22.086029052734375,-79.95127868652344,-5.276994705200195,-0.24247288703918457,-7.444457054138184,605.8133265972137
D4:22:CD:00:05:5D,178.81178283691406,-79.865234375,-126.95600891113281,2.91508150100708,-1.524991750717163,0.5896415710449219,605.8434944152832
D4:22:CD:00:05:6B,128.7776336669922,-74.138916015625,150.85011291503906,3.3935279846191406,-3.930665969848633,4.740950584411621,605.8434944152832
D4:22:CD:00:49:AA,-177.52503967285156,-65.84722900390625,114.57072448730469,-2.858767032623291,2.2157821655273438,2.661349296569824,605.8434944152832
D4:22:CD:00:05:6E,72.58988189697266,44.722755432128906,30.12240219116211,-2.2665963172912598,29.28569793701172,3.736823081970215,605.8434944152832
D4:22:CD:00:05:5E,-137.10671997070312,-14.980121612548828,-71.6184310913086,0.16483524441719055,-0.49136883020401,-9.752769470214844,605.8434944152832
D4:22:CD:00:05:5D,-178.5352325439453,-79.47127532958984,-126.57804870605469,0.47828686237335205,0.7075338363647461,-0.12853050231933594,605.8734958171844
D4:22:CD:00:05:6B,132.5109405517578,-75.79279327392578,147.20706176757812,0.6310533285140991,-4.185885429382324,4.873934745788574,605.8734958171844
D4:22:CD:00:49:AA,-178.64047241210938,-65.07783508300781,117.64662170410156,-6.030722618103027,2.757016181945801,0.4687623977661133,605.8734958171844
D4:22:CD:00:05:6E,72.27397155761719,38.90785217285156,24.984722137451172,4.529828071594238,11.886978149414062,11.396440505981445,605.8734958171844
D4:22:CD:00:05:5E,-141.02932739257812,-10.703438758850098,-64.53622436523438,1.9125630855560303,-0.7900511026382446,-9.80855941772461,605.8734958171844
D4:22:CD:00:05:5D,-176.8036346435547,-79.04718780517578,-126.69109344482422,-1.3645203113555908,1.0582773685455322,0.5451536178588867,605.9334287643433
D4:22:CD:00:05:6B,139.41604614257812,-77.78731536865234,138.8826446533203,-2.471101760864258,-3.344137191772461,3.4555702209472656,605.9334287643433
D4:22:CD:00:49:AA,-178.53335571289062,-64.69457244873047,119.25099182128906,-2.611783981323242,2.0100889205932617,-0.007287025451660156,605.9334287643433
D4:22:CD:00:05:6E,74.190185546875,33.49843215942383,21.068370819091797,4.3106489181518555,-8.390329360961914,-7.881543159484863,605.9334287643433
D4:22:CD:00:05:5E,-145.3417205810547,-9.715995788574219,-59.17529296875,0.004432038404047489,-5.103273391723633,-8.878288269042969,605.9334287643433
D4:22:CD:00:05:5D,-174.95089721679688,-78.4715576171875,-127.99949645996094,-0.6249574422836304,-0.4692302346229553,-0.22583580017089844,605.9395725727081
D4:22:CD:00:05:6B,152.8330535888672,-79.76068878173828,124.91242980957031,-0.16986370086669922,-2.9186697006225586,2.2384796142578125,605.9395725727081
D4:22:CD:00:49:AA,-179.7672119140625,-63.98369598388672,120.55412292480469,0.9659429788589478,1.6309547424316406,0.9549160003662109,605.9395725727081
D4:22:CD:00:05:6E,87.84017944335938,26.95477867126465,18.759780883789062,4.779736518859863,5.6966447830200195,-0.05999946594238281,605.9395725727081
D4:22:CD:00:05:5E,-150.939453125,-11.566516876220703,-55.10353469848633,7.333091735839844,-9.656465530395508,-9.169242858886719,605.9395725727081
D4:22:CD:00:05:5D,-175.2734832763672,-77.17430877685547,-127.29631042480469,-0.4794330596923828,-1.637467622756958,-1.1208114624023438,605.9636385440826
D4:22:CD:00:05:6B,169.63369750976562,-81.14778137207031,106.72712707519531,-1.0223491191864014,1.6964330673217773,-2.12600040435791,605.9636385440826
D4:22:CD:00:49:AA,177.6171112060547,-63.803619384765625,122.20996856689453,0.977806806564331,-0.3822892904281616,-3.3103723526000977,605.9636385440826
D4:22:CD:00:05:6E,93.86937713623047,17.713008880615234,17.727794647216797,9.239784240722656,3.5972766876220703,2.4381103515625,605.9636385440826
D4:22:CD:00:05:5E,-156.06451416015625,-15.70615005493164,-53.768470764160156,14.982498168945312,-8.845762252807617,-18.054054260253906,605.9636385440826
D4:22:CD:00:05:5D,-178.6466827392578,-74.84637451171875,-124.80928039550781,-1.2628014087677002,-2.3683533668518066,-0.991424560546875,605.9937312602997
D4:22:CD:00:05:6B,-174.01235961914062,-82.11009216308594,88.74462890625,-0.9336866140365601,3.2975125312805176,-4.745835304260254,605.9937312602997
D4:22:CD:00:49:AA,174.91468811035156,-63.947872161865234,124.62667846679688,-2.2251763343811035,-1.396759271621704,-6.258925437927246,605.9937312602997
D4:22:CD:00:05:6E,87.95228576660156,5.171863079071045,19.437503814697266,10.300397872924805,3.2402591705322266,-2.751401424407959,605.9937312602997
D4:22:CD:00:05:5E,-155.19387817382812,-18.893598556518555,-53.589351654052734,-10.801664352416992,-13.838970184326172,35.458526611328125,605.9937312602997
D4:22:CD:00:05:5D,178.46995544433594,-71.71620178222656,-122.46363830566406,-0.8956038951873779,0.6921951770782471,0.9252309799194336,606.0232379436493
D4:22:CD:00:05:6B,-157.8388214111328,-82.76025390625,70.34597778320312,-0.22986865043640137,3.669126510620117,-6.841353416442871,606.0232379436493
D4:22:CD:00:49:AA,171.15609741210938,-64.15778350830078,128.66128540039062,-2.711428165435791,0.2511538863182068,-7.122933387756348,606.0232379436493
D4:22:CD:00:05:6E,76.37317657470703,-9.706896781921387,23.996967315673828,17.60595703125,5.9335222244262695,-1.7120532989501953,606.0232379436493
D4:22:CD:00:05:5E,-157.29736328125,-17.81806755065918,-52.584835052490234,1.5164613723754883,-0.6756324768066406,-9.508895874023438,606.0232379436493
D4:22:CD:00:05:5D,175.52984619140625,-67.7723617553711,-118.20791625976562,-0.00418483279645443,-0.12377052009105682,-0.39870548248291016,606.0532462596893
D4:22:CD:00:05:6B,-139.38023376464844,-82.69782257080078,48.095890045166016,-1.8659167289733887,4.093648910522461,-6.50495719909668,606.0532462596893
D4:22:CD:00:49:AA,166.54034423828125,-63.97483825683594,133.6334686279297,1.8328914642333984,-0.38183581829071045,-2.6306309700012207,606.0532462596893
D4:22:CD:00:05:6E,62.30215835571289,-21.103269577026367,30.1597900390625,29.202342987060547,10.680086135864258,9.665475845336914,606.0532462596893
D4:22:CD:00:05:5E,-154.23782348632812,-20.26318359375,-51.752655029296875,9.288034439086914,-15.389732360839844,-6.256870269775391,606.0532462596893
D4:22:CD:00:05:5D,174.3646697998047,-63.14432144165039,-115.20793151855469,0.3822978734970093,-0.3650973439216614,-0.5986299514770508,606.1135349273682
D4:22:CD:00:05:6B,-120.57257843017578,-81.66365814208984,26.30758285522461,-5.961912155151367,5.405550003051758,-3.775092601776123,606.1135349273682
D4:22:CD:00:49:AA,161.41102600097656,-64.01001739501953,138.8335723876953,3.199230670928955,4.100419044494629,-0.12092018127441406,606.1135349273682
D4:22:CD:00:05:6E,53.43625259399414,-22.161046981811523,30.768688201904297,11.879842758178711,3.809112071990967,-7.497933387756348,606.1135349273682
D4:22:CD:00:05:5E,-151.66665649414062,-22.076196670532227,-51.99993133544922,10.116527557373047,-17.57162094116211,1.8057289123535156,606.1135349273682
D4:22:CD:00:05:5D,174.04478454589844,-58.13369369506836,-113.56851959228516,0.05629240721464157,-0.27432358264923096,-0.41862964630126953,606.1430609226227
D4:22:CD:00:05:6B,-101.73609161376953,-78.65617370605469,6.67659854888916,-11.794622421264648,9.273323059082031,3.5637340545654297,606.1430609226227
D4:22:CD:00:49:AA,156.50550842285156,-63.72127914428711,142.43905639648438,-2.81313419342041,0.6198760271072388,3.308094024658203,606.1430609226227
D4:22:CD:00:05:6E,57.042152404785156,-18.089975357055664,28.40209197998047,25.833049774169922,-2.5510058403015137,-11.775638580322266,606.1430609226227
D4:22:CD:00:05:5E,-150.7671356201172,-19.780624389648438,-52.13420104980469,4.063132286071777,-20.203998565673828,2.614230155944824,606.1430609226227
D4:22:CD:00:05:5D,174.831298828125,-54.04111099243164,-113.58495330810547,4.025463104248047,0.1629200279712677,0.3062725067138672,606.1734554767609
D4:22:CD:00:05:6B,-74.6369857788086,-71.65127563476562,-13.072781562805176,-12.685586929321289,16.59723663330078,25.515026092529297,606.1734554767609
D4:22:CD:00:49:AA,156.5936737060547,-62.89997863769531,142.54127502441406,-6.515320777893066,-1.620856523513794,9.259244918823242,606.1734554767609
D4:22:CD:00:05:6E,70.71355438232422,-12.243600845336914,29.995141983032227,15.110349655151367,13.152864456176758,-3.458038330078125,606.1734554767609
D4:22:CD:00:05:5E,-148.52932739257812,-15.3333158493042,-51.66169738769531,9.430994033813477,-27.25702667236328,4.35113525390625,606.1734554767609
D4:22:CD:00:05:5D,176.3050079345703,-52.060916900634766,-114.07392883300781,1.0744481086730957,1.2210805416107178,2.046548843383789,606.2034571170807
D4:22:CD:00:05:6B,-63.01158142089844,-57.34950637817383,-22.1769962310791,-14.228157043457031,15.135791778564453,18.045040130615234,606.2034571170807
D4:22:CD:00:49:AA,157.9521026611328,-62.026615142822266,141.9391632080078,-0.9848271608352661,1.9935262203216553,11.53199577331543,606.2034571170807
D4:22:CD:00:05:6E,74.95423889160156,-7.971770763397217,32.20439910888672,16.245994567871094,21.23033905029297,-1.9441957473754883,606.2034571170807
D4:22:CD:00:05:5E,-141.79127502441406,-10.929980278015137,-51.696075439453125,10.779962539672852,-15.841781616210938,-0.41849517822265625,606.2034571170807
D4:22:CD:00:05:5D,177.7276611328125,-51.93906021118164,-114.52008819580078,1.0590107440948486,1.3389978408813477,1.8917903900146484,606.2339038848877
D4:22:CD:00:05:6B,-56.70981979370117,-37.971317291259766,-23.37294578552246,-2.8598899841308594,19.930984497070312,17.78170394897461,606.2339038848877
D4:22:CD:00:49:AA,156.905517578125,-62.22514724731445,141.5237274169922,1.3514811992645264,0.9270123243331909,9.206024169921875,606.2339038848877
D4:22:CD:00:05:6E,76.0858383178711,-7.011346340179443,34.59614562988281,15.167232513427734,14.466392517089844,-6.389152526855469,606.2339038848877
D4:22:CD:00:05:5E,-145.94288635253906,-3.1918084621429443,-50.38853454589844,-0.12572693824768066,-21.53119659423828,-4.219568252563477,606.2339038848877
D4:22:CD:00:05:5D,178.93603515625,-53.24021911621094,-114.6697769165039,-0.6667028665542603,1.4584462642669678,1.4798355102539062,606.2639088630676
D4:22:CD:00:05:6B,-45.74972915649414,-15.799202919006348,-22.50984764099121,9.664054870605469,11.692205429077148,11.265207290649414,606.2639088630676
D4:22:CD:00:49:AA,155.51083374023438,-62.744667053222656,141.5972137451172,-2.6897053718566895,-0.682903528213501,5.393827438354492,606.2639088630676
D4:22:CD:00:05:6E,82.70884704589844,-10.656088829040527,38.868770599365234,5.501317977905273,14.223697662353516,2.3953733444213867,606.2639088630676
D4:22:CD:00:05:5E,-150.11402893066406,0.8248250484466553,-49.78702926635742,8.360633850097656,-5.573446273803711,-1.8503613471984863,606.2639088630676
D4:22:CD:00:05:5D,-179.57223510742188,-55.26952362060547,-115.80318450927734,-1.0446827411651611,1.132317304611206,1.219721794128418,606.2939116954803
D4:22:CD:00:05:6B,-32.38539123535156,3.9488816261291504,-19.84894371032715,7.178408622741699,6.8152008056640625,6.325492858886719,606.2939116954803
D4:22:CD:00:49:AA,154.9735870361328,-63.79574966430664,142.0852508544922,-6.75691032409668,-2.0793304443359375,7.451314926147461,606.2939116954803
D4:22:CD:00:05:6E,87.02452087402344,-18.640750885009766,43.37379837036133,0.3103637099266052,9.168081283569336,4.5678510665893555,606.2939116954803
D4:22:CD:00:05:5E,-149.6861572265625,0.4053657352924347,-51.650848388671875,5.284863471984863,0.4005472660064697,-4.313996315002441,606.2939116954803
D4:22:CD:00:05:5D,-177.86643981933594,-58.080116271972656,-117.82207489013672,0.6851614713668823,1.158388614654541,2.4822311401367188,606.3266935348511
D4:22:CD:00:05:6B,-17.263532638549805,17.686771392822266,-17.8660888671875,3.9389681816101074,-2.1403822898864746,8.051044464111328,606.3266935348511
D4:22:CD:00:49:AA,155.68431091308594,-65.77742004394531,143.21861267089844,-6.081855773925781,-0.3949437737464905,4.232383728027344,606.3266935348511
D4:22:CD:00:05:6E,92.9774398803711,-29.31012725830078,47.58939743041992,2.9242329597473145,8.959482192993164,4.685754776000977,606.3266935348511
D4:22:CD:00:05:5E,-148.65869140625,-3.8924903869628906,-55.62275695800781,5.067593574523926,3.0789451599121094,-5.72808837890625,606.3266935348511
D4:22:CD:00:05:5D,-176.8131561279297,-62.23387145996094,-118.6822280883789,1.0511982440948486,0.6177144050598145,3.8870038986206055,606.3537180423737
D4:22:CD:00:05:6B,-4.957848072052002,26.916868209838867,-17.434642791748047,1.152085781097412,-7.766161918640137,3.7100582122802734,606.3537180423737
D4:22:CD:00:49:AA,157.76065063476562,-68.32667541503906,144.4759063720703,-2.500296115875244,0.7279528379440308,2.8353452682495117,606.3537180423737
D4:22:CD:00:05:6E,103.11474609375,-40.15580368041992,49.59098815917969,3.5413870811462402,2.0535120964050293,13.898458480834961,606.3537180423737
D4:22:CD:00:05:5E,-146.2048797607422,-11.247559547424316,-61.541255950927734,4.5054121017456055,2.7069091796875,-6.745616912841797,606.3537180423737
