Device,EulerX,EulerY,EulerZ,FreeAccX,FreeAccY,FreeAccZ,Timestamp
D4:22:CD:00:05:5D,174.97438049316406,-59.52220916748047,-123.43438720703125,-0.8041186332702637,1.8482820987701416,1.645390510559082,453.79840064048767
D4:22:CD:00:05:6B,-63.285972595214844,-36.54786682128906,-113.4341812133789,6.314227104187012,12.381464004516602,16.90755844116211,453.79840064048767
D4:22:CD:00:49:AA,130.6923065185547,-73.2927474975586,135.38287353515625,-3.378986358642578,1.3848590850830078,6.422761917114258,453.79840064048767
D4:22:CD:00:05:6E,146.31207275390625,-39.174415588378906,14.992019653320312,7.452627182006836,10.149232864379883,1.922536849975586,453.79840064048767
D4:22:CD:00:05:5E,-166.73057556152344,-45.144046783447266,-27.96031951904297,5.51351261138916,-1.9652464389801025,4.602443695068359,453.79840064048767
D4:22:CD:00:05:6B,-62.393245697021484,-23.530582427978516,-107.67314147949219,4.062607765197754,7.991239547729492,15.503532409667969,453.81139755249023
D4:22:CD:00:49:AA,133.55831909179688,-73.38119506835938,132.9676055908203,-1.747347354888916,0.06622084975242615,6.629827499389648,453.81139755249023
D4:22:CD:00:05:6E,152.58697509765625,-41.432838439941406,19.887605667114258,5.146617889404297,7.844327926635742,5.411502838134766,453.81139755249023
D4:22:CD:00:05:5E,-167.43905639648438,-42.69314193725586,-29.053241729736328,5.85504150390625,-2.915215015411377,-0.5475921630859375,453.81139755249023
D4:22:CD:00:05:6B,-58.887630462646484,-9.017088890075684,-99.41541290283203,3.656221389770508,-0.9607466459274292,15.527364730834961,453.81739377975464
D4:22:CD:00:49:AA,135.96893310546875,-74.0541000366211,131.75347900390625,-0.9209120273590088,1.0247619152069092,3.8317794799804688,453.81739377975464
D4:22:CD:00:05:6E,159.5500030517578,-47.228599548339844,23.8697452545166,3.0547847747802734,4.271274566650391,7.684106826782227,453.81739377975464
D4:22:CD:00:05:5E,-162.7735595703125,-44.970359802246094,-30.424129486083984,6.421932220458984,3.484307289123535,-1.1498088836669922,453.81739377975464
D4:22:CD:00:05:5D,-171.8271484375,-73.98509979248047,-135.943603515625,0.6775121688842773,-0.15131938457489014,-0.0680246353149414,453.82139110565186
D4:22:CD:00:05:6E,170.84185791015625,-55.64720153808594,24.822664260864258,0.3778586983680725,-2.126528739929199,8.402803421020508,453.82139110565186
D4:22:CD:00:05:5E,-157.1820831298828,-50.41604995727539,-33.54340362548828,4.540842056274414,3.6965103149414062,-1.8944849967956543,453.82139110565186
D4:22:CD:00:05:5D,175.06378173828125,-63.72866439819336,-117.8355712890625,3.820756435394287,0.10776135325431824,0.5476226806640625,453.82339239120483
D4:22:CD:00:05:6B,-57.46637725830078,-32.38478088378906,-68.79405975341797,-2.3089513778686523,-3.499131679534912,9.017324447631836,453.82339239120483
D4:22:CD:00:49:AA,160.63095092773438,-73.13582611083984,111.10668182373047,-0.45612597465515137,0.6107974052429199,8.32382583618164,453.82339239120483
D4:22:CD:00:05:6E,63.748104095458984,-82.45488739013672,77.861328125,-2.5639090538024902,2.018573760986328,17.24646759033203,453.82339239120483
D4:22:CD:00:05:5D,177.53652954101562,-60.73379135131836,-119.3812026977539,-1.0224714279174805,2.761319637298584,1.6399240493774414,453.8643877506256
D4:22:CD:00:05:6B,-63.43018341064453,-26.412370681762695,-65.85643005371094,-2.3126282691955566,-4.808563232421875,14.191230773925781,453.8643877506256
D4:22:CD:00:49:AA,152.59304809570312,-73.91999816894531,117.39207458496094,-3.7804222106933594,0.7614768743515015,10.173099517822266,453.8643877506256
D4:22:CD:00:05:6E,87.86514282226562,-78.89562225341797,58.64764404296875,-1.9323477745056152,5.47084903717041,13.221446990966797,453.8643877506256
D4:22:CD:00:05:5E,151.7891082763672,-67.6129150390625,3.4860482215881348,7.486650466918945,3.6572909355163574,15.171432495117188,453.8643877506256
D4:22:CD:00:05:5D,178.89547729492188,-59.003082275390625,-119.6754379272461,0.7940140962600708,1.6497795581817627,1.906743049621582,453.8938956260681
D4:22:CD:00:05:6B,-71.00411224365234,-18.320152282714844,-61.312286376953125,-0.19783973693847656,-1.257086992263794,24.801807403564453,453.8938956260681
D4:22:CD:00:49:AA,159.567626953125,-76.09862518310547,109.97600555419922,-2.202660083770752,-0.39863312244415283,8.916070938110352,453.8938956260681
D4:22:CD:00:05:6E,122.7981948852539,-79.26811981201172,36.189388275146484,-7.590752601623535,3.8214058876037598,7.313850402832031,453.8938956260681
D4:22:CD:00:05:5E,-155.45330810546875,-80.65087890625,-42.7513542175293,-1.0163953304290771,3.0276527404785156,7.508554458618164,453.8938956260681
D4:22:CD:00:05:5D,179.72962951660156,-59.03123474121094,-119.08978271484375,2.1445250511169434,0.4459987282752991,1.4591951370239258,453.9238955974579
D4:22:CD:00:05:6B,-71.9718246459961,-7.098780632019043,-56.22060012817383,9.41800308227539,-3.1235876083374023,23.648120880126953,453.9238955974579
D4:22:CD:00:49:AA,167.84002685546875,-77.61139678955078,102.42822265625,0.14185047149658203,-0.6196274757385254,5.1195878982543945,453.9238955974579
D4:22:CD:00:05:6E,172.8732452392578,-78.47954559326172,-4.6802215576171875,-8.277894973754883,-4.756579399108887,2.558424949645996,453.9238955974579
D4:22:CD:00:05:5E,-128.68417358398438,-78.27318572998047,-71.82978057861328,-2.3053555488586426,0.7922402620315552,2.1117734909057617,453.9238955974579
D4:22:CD:00:05:5D,179.89515686035156,-60.36425018310547,-117.40442657470703,1.100400447845459,0.3507809042930603,0.726165771484375,453.9838984012604
D4:22:CD:00:05:6B,-62.21623611450195,3.8887205123901367,-51.39330291748047,10.666439056396484,-9.932641983032227,18.407634735107422,453.9838984012604
D4:22:CD:00:49:AA,173.1024932861328,-79.2782974243164,98.88988494873047,-1.0991337299346924,-0.25085949897766113,1.5757255554199219,453.9838984012604
D4:22:CD:00:05:6E,-156.81787109375,-74.473876953125,-30.79854965209961,-2.0855512619018555,-6.529061317443848,1.6361303329467773,453.9838984012604
D4:22:CD:00:05:5E,-103.55964660644531,-77.86587524414062,-90.63458251953125,-0.6408631801605225,5.703302383422852,0.40885162353515625,453.9838984012604
D4:22:CD:00:05:5D,-179.89541625976562,-62.43361282348633,-115.57584381103516,-1.646650791168213,1.4672935009002686,0.7910518646240234,454.014404296875
D4:22:CD:00:05:6B,-43.468536376953125,12.246919631958008,-47.99931335449219,9.45555305480957,-9.569784164428711,5.629605293273926,454.014404296875
D4:22:CD:00:49:AA,-176.36715698242188,-81.01920318603516,91.03388214111328,-1.6595332622528076,-0.229812890291214,0.3500843048095703,454.014404296875
D4:22:CD:00:05:6E,-131.886474609375,-70.37602996826172,-49.7617073059082,-4.101583480834961,-9.398000717163086,0.20368385314941406,454.014404296875
D4:22:CD:00:05:5E,-74.25071716308594,-75.27044677734375,-113.44690704345703,-3.67415714263916,2.9336137771606445,-4.414658546447754,454.014404296875
D4:22:CD:00:05:5D,-179.33189392089844,-64.99748992919922,-114.58042907714844,-3.2050976753234863,2.3361988067626953,0.9613485336303711,454.04440665245056
D4:22:CD:00:05:6B,-23.89585304260254,18.406064987182617,-45.84052276611328,1.3428373336791992,-6.378544807434082,-2.3172202110290527,454.04440665245056
D4:22:CD:00:49:AA,-160.43455505371094,-82.08592224121094,78.0433578491211,0.36512917280197144,-0.13605591654777527,-1.6523075103759766,454.04440665245056
D4:22:CD:00:05:6E,-116.51165008544922,-64.71604919433594,-61.01740646362305,-3.328212261199951,-14.456382751464844,-4.935539245605469,454.04440665245056
D4:22:CD:00:05:5E,-52.41572570800781,-71.822265625,-131.18296813964844,-2.661255359649658,2.0452194213867188,-6.061873435974121,454.04440665245056
D4:22:CD:00:05:5D,-178.20645141601562,-67.83589172363281,-115.55718231201172,-1.963501214981079,1.7713935375213623,1.3233709335327148,454.0754086971283
D4:22:CD:00:05:6B,-4.546727657318115,21.560964584350586,-45.324317932128906,-7.06070613861084,-3.067324638366699,-5.161496162414551,454.0754086971283
D4:22:CD:00:49:AA,-147.21434020996094,-82.52215576171875,67.0402603149414,2.7139620780944824,0.3365541696548462,-4.5404157638549805,454.0754086971283
D4:22:CD:00:05:6E,-109.27181243896484,-58.937034606933594,-66.47509765625,-1.5771706104278564,-10.513885498046875,-6.823734283447266,454.0754086971283
D4:22:CD:00:05:5E,-37.57000732421875,-66.70636749267578,-145.2749481201172,-3.285371780395508,2.030485153198242,-4.022339820861816,454.0754086971283
D4:22:CD:00:05:5D,-176.79225158691406,-70.66547393798828,-119.04927062988281,-0.7280322313308716,-0.30327308177948,0.9233846664428711,454.1042470932007
D4:22:CD:00:05:6B,12.673911094665527,22.67250633239746,-46.71251678466797,-11.507177352905273,-0.5603327751159668,-9.45438003540039,454.1042470932007
D4:22:CD:00:49:AA,-142.28335571289062,-82.64379119873047,63.1302490234375,1.2519075870513916,-0.3537778854370117,-4.682918548583984,454.1042470932007
D4:22:CD:00:05:6E,-101.60356140136719,-53.33993148803711,-68.5588607788086,1.6051585674285889,-8.831008911132812,-5.864625930786133,454.1042470932007
D4:22:CD:00:05:5E,-30.378366470336914,-59.78690719604492,-154.80966186523438,-6.070742607116699,3.048337459564209,-3.390202045440674,454.1042470932007
D4:22:CD:00:05:5D,-175.6339111328125,-73.24183654785156,-122.35623168945312,0.0764673501253128,0.3059757947921753,-1.0644464492797852,454.13434982299805
D4:22:CD:00:05:6B,19.77750587463379,23.74335289001465,-48.47705841064453,-3.0892887115478516,4.544730186462402,-9.827632904052734,454.13434982299805
D4:22:CD:00:49:AA,-140.39111328125,-83.09587097167969,61.48282241821289,-1.0049920082092285,-0.6074633598327637,-3.3499107360839844,454.13434982299805
D4:22:CD:00:05:6E,-90.33023834228516,-49.441986083984375,-68.72246551513672,2.1984667778015137,-7.974640846252441,-5.621518135070801,454.13434982299805
D4:22:CD:00:05:5E,-29.771207809448242,-51.5501823425293,-160.50885009765625,-8.343666076660156,-0.24873292446136475,-5.43891716003418,454.13434982299805
D4:22:CD:00:05:5D,-175.9639434814453,-75.57998657226562,-124.2344741821289,0.4494818449020386,0.13480165600776672,-1.8026199340820312,454.1643521785736
D4:22:CD:00:05:6B,17.193727493286133,25.89066505432129,-52.072391510009766,2.9403281211853027,0.4938974380493164,-6.3610687255859375,454.1643521785736
D4:22:CD:00:49:AA,-136.00888061523438,-83.80533599853516,57.067203521728516,-1.992802619934082,-1.417888879776001,-3.764582633972168,454.1643521785736
D4:22:CD:00:05:6E,-76.52486419677734,-47.96791458129883,-67.76720428466797,1.990652322769165,-7.722275733947754,-7.834814071655273,454.1643521785736
D4:22:CD:00:05:5E,-34.87633514404297,-43.27234649658203,-164.3317108154297,-16.10772705078125,-6.4011335372924805,-10.769342422485352,454.1643521785736
D4:22:CD:00:05:5D,-178.97279357910156,-77.39695739746094,-124.17205810546875,-0.27283596992492676,-0.29780811071395874,-1.4943981170654297,454.19385719299316
D4:22:CD:00:05:6B,13.514901161193848,30.107152938842773,-59.76657485961914,4.063730239868164,-2.0468716621398926,-7.337121963500977,454.19385719299316
D4:22:CD:00:49:AA,-129.40635681152344,-84.42455291748047,50.17512893676758,-0.848413348197937,-1.0443289279937744,-5.421089172363281,454.19385719299316
D4:22:CD:00:05:6E,-64.74407196044922,-48.87257385253906,-66.49080657958984,4.521757125854492,-7.7152814865112305,-9.202709197998047,454.19385719299316
D4:22:CD:00:05:5E,-48.59286117553711,-38.18643569946289,-166.0537109375,-21.363040924072266,-5.098869323730469,-18.76921844482422,454.19385719299316
D4:22:CD:00:05:5D,174.1952362060547,-77.90131378173828,-119.6593017578125,1.5155231952667236,-4.68998908996582,-2.9090576171875,454.22485995292664
D4:22:CD:00:05:6B,7.86977481842041,35.71726608276367,-72.63223266601562,6.019194602966309,-0.05473923683166504,-10.363292694091797,454.22485995292664
D4:22:CD:00:49:AA,-127.42365264892578,-84.91492462158203,47.26938247680664,0.5562201738357544,-1.2955577373504639,-5.444196701049805,454.22485995292664
D4:22:CD:00:05:6E,-56.38985824584961,-51.70272445678711,-65.79721069335938,5.749452590942383,-6.170707702636719,-8.921131134033203,454.22485995292664
D4:22:CD:00:05:5E,-63.86498260498047,-38.75743103027344,-165.63787841796875,-16.494468688964844,8.197942733764648,-20.679115295410156,454.22485995292664
D4:22:CD:00:05:5D,166.83250427246094,-76.7923583984375,-112.0100326538086,-0.2390386164188385,-2.023193836212158,-1.2527427673339844,454.28486585617065
D4:22:CD:00:05:6B,-4.925967693328857,39.93597412109375,-91.89170837402344,-1.512268304824829,-5.405780792236328,-14.047407150268555,454.28486585617065
D4:22:CD:00:49:AA,-134.3218994140625,-85.74646759033203,51.823028564453125,0.653125524520874,-1.6724004745483398,-3.4244775772094727,454.28486585617065
D4:22:CD:00:05:6E,-50.58693313598633,-55.687278747558594,-65.73209381103516,6.962785720825195,-5.3139190673828125,-8.361761093139648,454.28486585617065
D4:22:CD:00:05:5E,-69.81639099121094,-43.7551155090332,-161.37933349609375,-14.594236373901367,5.474212646484375,-11.722810745239258,454.28486585617065
D4:22:CD:00:05:5D,160.58763122558594,-74.59159851074219,-105.05826568603516,-1.284811019897461,1.0053186416625977,-0.3219776153564453,454.31437492370605
D4:22:CD:00:05:6B,-21.047801971435547,39.216732025146484,-116.88358306884766,-12.224451065063477,-14.32834243774414,-21.282272338867188,454.31437492370605
D4:22:CD:00:49:AA,-141.6833038330078,-86.23932647705078,56.51069641113281,-3.6288113594055176,-2.978194236755371,1.0244121551513672,454.31437492370605
D4:22:CD:00:05:6E,-48.150535583496094,-60.184635162353516,-65.72248840332031,8.022542953491211,-3.964204788208008,-6.308492660522461,454.31437492370605
D4:22:CD:00:05:5E,-70.0905532836914,-48.483062744140625,-157.1165771484375,-9.011754989624023,-15.904157638549805,-11.403667449951172,454.31437492370605
D4:22:CD:00:05:5D,155.1343994140625,-72.72257232666016,-98.94934844970703,-0.04988384246826172,2.41632080078125,1.721146583557129,454.3446853160858
D4:22:CD:00:05:6B,-35.75349807739258,33.84737777709961,-135.99545288085938,-9.246809005737305,-6.68850040435791,-15.60546875,454.3446853160858
D4:22:CD:00:49:AA,-132.92013549804688,-85.63996887207031,46.50101089477539,-7.900032043457031,-1.352555513381958,6.731494903564453,454.3446853160858
D4:22:CD:00:05:6E,-48.87215042114258,-63.224971771240234,-64.92644500732422,8.15079116821289,-1.7760820388793945,-1.9684391021728516,454.3446853160858
D4:22:CD:00:05:5E,-69.66700744628906,-54.220458984375,-154.67481994628906,-1.5244598388671875,-4.249753952026367,20.284015655517578,454.3446853160858
D4:22:CD:00:05:5D,148.4264678955078,-72.49356079101562,-92.37720489501953,1.6921701431274414,3.005852222442627,3.30856990814209,454.3746967315674
D4:22:CD:00:05:6B,-55.0217399597168,34.558998107910156,-135.65687561035156,6.7047271728515625,2.669231414794922,-2.6036200523376465,454.3746967315674
D4:22:CD:00:49:AA,-127.78186798095703,-84.68315887451172,41.80644607543945,-1.9765746593475342,-1.0097837448120117,3.419001579284668,454.3746967315674
D4:22:CD:00:05:6E,-51.503265380859375,-64.68561553955078,-63.31978225708008,9.75800895690918,-2.022900104522705,3.4980974197387695,454.3746967315674
D4:22:CD:00:05:5E,-75.83052825927734,-57.401485443115234,-150.37106323242188,-7.695706367492676,4.129878044128418,-2.9418601989746094,454.3746967315674
D4:22:CD:00:05:5D,137.6914520263672,-73.69023132324219,-82.43499755859375,0.8896392583847046,1.0459651947021484,4.068714141845703,454.40448117256165
D4:22:CD:00:05:6B,-53.599822998046875,37.02311706542969,-129.2774200439453,-17.72274398803711,-0.6748180389404297,9.045778274536133,454.40448117256165
D4:22:CD:00:49:AA,-128.2987518310547,-83.36842346191406,41.72359085083008,4.840915679931641,-1.8708710670471191,4.770541191101074,454.40448117256165
D4:22:CD:00:05:6E,-56.2175407409668,-65.64525604248047,-62.19443130493164,13.499202728271484,-1.7967157363891602,8.867141723632812,454.40448117256165
D4:22:CD:00:05:5E,-76.8534164428711,-60.50056076049805,-148.3367462158203,-6.351889610290527,2.2181477546691895,-1.2513389587402344,454.40448117256165
D4:22:CD:00:05:5D,120.15054321289062,-75.49710845947266,-66.17404174804688,2.7890477180480957,-1.6053307056427002,4.202512741088867,454.43545627593994
D4:22:CD:00:05:6B,-36.95840835571289,37.521358489990234,-117.10896301269531,-2.9354915618896484,12.145788192749023,-10.089620590209961,454.43545627593994
D4:22:CD:00:49:AA,-124.10939025878906,-81.45118713378906,37.06547546386719,4.63682746887207,2.062497615814209,0.18244266510009766,454.43545627593994
D4:22:CD:00:05:6E,-59.605587005615234,-67.11557006835938,-64.91802215576172,10.111358642578125,1.604490041732788,6.693647384643555,454.43545627593994
D4:22:CD:00:05:5E,-75.89595794677734,-63.07650375366211,-148.24127197265625,-6.642477035522461,0.4958938956260681,-0.2707195281982422,454.43545627593994
D4:22:CD:00:05:5D,93.47740936279297,-77.18098449707031,-44.42264175415039,10.203474044799805,2.2364234924316406,-2.3828630447387695,454.46472120285034
D4:22:CD:00:05:6B,-25.64920425415039,32.65654754638672,-99.73294830322266,-11.607316970825195,2.6780247688293457,-6.976092338562012,454.46472120285034
D4:22:CD:00:49:AA,-126.99532318115234,-79.75762176513672,38.890106201171875,8.90080451965332,1.2080700397491455,-2.90792179107666,454.46472120285034
D4:22:CD:00:05:6E,-56.29390335083008,-69.61788177490234,-73.78426361083984,2.72769832611084,-0.8793463706970215,2.7320852279663086,454.46472120285034
D4:22:CD:00:05:5E,-75.06742858886719,-65.23255920410156,-149.6076202392578,-6.089659690856934,-0.7278105020523071,-1.4750452041625977,454.46472120285034
D4:22:CD:00:05:5D,98.76848602294922,-76.81050872802734,-54.4524040222168,22.920238494873047,20.978801727294922,-2.689577579498291,454.49430561065674
D4:22:CD:00:05:6B,-16.76970863342285,22.394935607910156,-83.68714141845703,-7.313307762145996,2.0156588554382324,-9.134733200073242,454.49430561065674
D4:22:CD:00:49:AA,-130.72821044921875,-78.28545379638672,41.82939529418945,5.88758659362793,0.2679884433746338,1.1752910614013672,454.49430561065674
D4:22:CD:00:05:6E,-48.44587707519531,-71.99883270263672,-86.37125396728516,-3.3457674980163574,-6.331936836242676,-0.3290576934814453,454.49430561065674
D4:22:CD:00:05:5E,-72.24551391601562,-66.88975524902344,-152.8365936279297,-6.129796028137207,-1.640350580215454,-1.5223636627197266,454.49430561065674
D4:22:CD:00:05:5D,132.43658447265625,-69.8017807006836,-88.80435943603516,20.536617279052734,9.660104751586914,9.793304443359375,454.5243055820465
D4:22:CD:00:05:6B,-13.066605567932129,8.97307014465332,-68.62992095947266,-0.8128571510314941,-0.7575311660766602,-11.88494873046875,454.5243055820465
D4:22:CD:00:49:AA,-134.65377807617188,-76.9970703125,45.117313385009766,1.948089361190796,1.3435921669006348,0.8136835098266602,454.5243055820465
D4:22:CD:00:05:6E,-41.75545883178711,-72.39124298095703,-99.12869262695312,-4.7773847579956055,-4.5732526779174805,-1.2384977340698242,454.5243055820465
D4:22:CD:00:05:5E,-69.16226196289062,-68.20555877685547,-156.15774536132812,-4.845521926879883,-2.2606024742126465,-2.681838035583496,454.5243055820465
D4:22:CD:00:05:5D,150.07054138183594,-56.932682037353516,-107.95696258544922,6.498310089111328,0.9447265863418579,5.876562118530273,454.5845079421997
D4:22:CD:00:05:6B,-17.555423736572266,-4.589757919311523,-51.98886489868164,3.6555962562561035,-2.8442392349243164,-11.517091751098633,454.5845079421997
D4:22:CD:00:49:AA,-134.94760131835938,-76.61193084716797,45.91084671020508,2.332505226135254,-0.002310229931026697,1.2268218994140625,454.5845079421997
D4:22:CD:00:05:6E,-28.43882179260254,-70.20028686523438,-111.09766387939453,-4.525607109069824,-6.018965721130371,-3.371338367462158,454.5845079421997
D4:22:CD:00:05:5E,-68.12989807128906,-69.16595458984375,-157.642578125,-5.456387519836426,-3.8496270179748535,-3.8636059761047363,454.5845079421997
D4:22:CD:00:05:5D,156.73788452148438,-44.306732177734375,-119.10313415527344,-0.051811642944812775,-4.567877769470215,-3.2596607208251953,454.61452054977417
D4:22:CD:00:05:6B,-30.71274185180664,-14.912514686584473,-32.19655227661133,5.370231628417969,-3.061173439025879,-7.925271987915039,454.61452054977417
D4:22:CD:00:49:AA,-131.41238403320312,-77.65592193603516,43.42094802856445,3.6299166679382324,0.18654188513755798,-1.0860443115234375,454.61452054977417
D4:22:CD:00:05:6E,-11.671222686767578,-68.66120147705078,-119.66181182861328,-6.517104148864746,-8.098756790161133,-8.087150573730469,454.61452054977417
D4:22:CD:00:05:5E,-73.03863525390625,-69.72540283203125,-153.69297790527344,-4.983822822570801,-2.8190150260925293,-3.6848201751708984,454.61452054977417
D4:22:CD:00:05:5D,160.3903350830078,-33.468082427978516,-126.39594268798828,-2.737978458404541,-4.15433406829834,-9.522241592407227,454.64452052116394
D4:22:CD:00:05:6B,-48.36854934692383,-19.239208221435547,-12.373916625976562,2.6268978118896484,-0.987313985824585,-2.991550922393799,454.64452052116394
D4:22:CD:00:49:AA,-127.95138549804688,-79.22473907470703,39.97943878173828,2.709806442260742,0.8293826580047607,-5.0782470703125,454.64452052116394
D4:22:CD:00:05:6E,-0.034180495887994766,-68.90666961669922,-125.00365447998047,-2.457378387451172,-7.994950294494629,-8.038387298583984,454.64452052116394
D4:22:CD:00:05:5E,-82.11669158935547,-69.52465057373047,-145.25897216796875,-5.706857681274414,-4.039916038513184,-2.7784337997436523,454.64452052116394
D4:22:CD:00:05:5D,164.80355834960938,-25.805883407592773,-131.42254638671875,-5.357927322387695,-1.7655892372131348,-10.652490615844727,454.67451882362366
D4:22:CD:00:05:6B,-59.891605377197266,-18.813596725463867,2.054844617843628,-1.3301916122436523,-0.7095528841018677,4.091787338256836,454.67451882362366
D4:22:CD:00:49:AA,-128.0775146484375,-80.30171203613281,39.41297912597656,3.080441951751709,0.6834930181503296,-6.3848161697387695,454.67451882362366
D4:22:CD:00:05:6E,8.493696212768555,-70.42716979980469,-129.7592315673828,0.08240433037281036,-5.5410003662109375,-6.606071472167969,454.67451882362366
D4:22:CD:00:05:5E,-89.88853454589844,-68.421875,-137.36460876464844,-6.121408462524414,-1.9093363285064697,-3.737578868865967,454.67451882362366
D4:22:CD:00:05:5D,168.0280303955078,-22.32390594482422,-134.5416717529297,-8.26508903503418,-1.734281063079834,-9.973783493041992,454.70486068725586
D4:22:CD:00:05:6B,-57.699954986572266,-16.668697357177734,9.436945915222168,-1.5084502696990967,-0.3130963444709778,3.964491844177246,454.70486068725586
D4:22:CD:00:49:AA,-132.21176147460938,-80.5860595703125,42.49261474609375,4.606524467468262,-0.09539538621902466,-5.037566184997559,454.70486068725586
D4:22:CD:00:05:6E,16.20416259765625,-72.17904663085938,-135.40916442871094,0.7242515087127686,-3.547852039337158,-6.014925003051758,454.70486068725586
D4:22:CD:00:05:5E,-99.05345916748047,-66.13665771484375,-128.40625,-4.12934684753418,-1.3334081172943115,-1.0813217163085938,454.70486068725586
D4:22:CD:00:05:5D,170.63449096679688,-22.176368713378906,-136.18539428710938,-10.45734977722168,-2.6895699501037598,-7.206998825073242,454.73403239250183
D4:22:CD:00:05:6B,-49.48915100097656,-15.424908638000488,11.531671524047852,-2.1516542434692383,4.672695159912109,-9.563627243041992,454.73403239250183
D4:22:CD:00:49:AA,-133.58160400390625,-80.87396240234375,42.62798309326172,2.8188347816467285,0.33767545223236084,-3.940659999847412,454.73403239250183
D4:22:CD:00:05:6E,23.5482177734375,-73.8736572265625,-141.42507934570312,1.5689570903778076,-2.904695987701416,-4.859367370605469,454.73403239250183
D4:22:CD:00:05:5E,-106.49529266357422,-63.540061950683594,-120.76971435546875,-4.547950744628906,-0.93177330493927,-0.5188570022583008,454.73403239250183
D4:22:CD:00:05:5D,171.5594024658203,-25.260881423950195,-137.578857421875,-10.361274719238281,-0.8079559803009033,-3.144042491912842,454.7946968078613
D4:22:CD:00:05:6B,-51.51640701293945,-19.35761260986328,11.619025230407715,-3.773144245147705,4.383130073547363,-11.679767608642578,454.7946968078613
D4:22:CD:00:49:AA,-134.7991180419922,-80.72341918945312,42.20481872558594,1.1762375831604004,-0.37810802459716797,-2.690927028656006,454.7946968078613
D4:22:CD:00:05:6E,29.15235137939453,-75.43685150146484,-145.1617889404297,5.02869987487793,-1.062453031539917,-0.770421028137207,454.7946968078613
D4:22:CD:00:05:5E,-111.10720825195312,-61.70893096923828,-115.59737396240234,-5.489258766174316,-1.2298614978790283,-0.13257789611816406,454.7946968078613
D4:22:CD:00:05:5D,171.81265258789062,-24.91884994506836,-137.7075958251953,-9.718704223632812,-1.134690284729004,14.743724822998047,454.80287504196167
D4:22:CD:00:05:6B,-62.89317321777344,-31.56688117980957,12.414795875549316,9.782489776611328,-1.0739355087280273,8.435579299926758,454.80287504196167
D4:22:CD:00:49:AA,-134.3843994140625,-80.29232025146484,40.6091423034668,0.4233967661857605,-0.0726294070482254,2.928415298461914,454.80287504196167
D4:22:CD:00:05:6E,35.217166900634766,-75.43789672851562,-147.65890502929688,8.31650161743164,-6.343184471130371,4.277092933654785,454.80287504196167
D4:22:CD:00:05:5E,-114.02601623535156,-60.893043518066406,-111.90190887451172,-6.2916975021362305,-0.6140105724334717,-0.01038360595703125,454.80287504196167
D4:22:CD:00:05:5D,174.26158142089844,-24.198787689208984,-137.974365234375,-21.472217559814453,-3.864445686340332,-0.3735647201538086,454.8249189853668
D4:22:CD:00:05:6B,-51.24910354614258,-49.5233268737793,7.301479339599609,22.404434204101562,5.972959518432617,39.03577423095703,454.8249189853668
D4:22:CD:00:49:AA,-140.17247009277344,-79.47746276855469,45.81403732299805,-1.9067518711090088,-1.1198790073394775,6.995960235595703,454.8249189853668
D4:22:CD:00:05:6E,46.73353958129883,-72.86470794677734,-160.80978393554688,16.511859893798828,-14.124532699584961,16.31219482421875,454.8249189853668
D4:22:CD:00:05:5E,-113.86084747314453,-61.517765045166016,-111.04443359375,-6.160605430603027,-0.6576255559921265,-0.46902942657470703,454.8249189853668
D4:22:CD:00:05:5D,171.7388153076172,-23.204471588134766,-138.82110595703125,-17.572559356689453,-10.285554885864258,6.505962371826172,454.884494304657
D4:22:CD:00:05:6B,-23.64948844909668,-57.84694290161133,-5.550946235656738,36.48335266113281,10.973373413085938,22.676292419433594,454.884494304657
D4:22:CD:00:49:AA,-144.42848205566406,-79.600341796875,50.40392303466797,1.6727585792541504,1.7951583862304688,5.923744201660156,454.884494304657
D4:22:CD:00:05:6E,55.24336624145508,-63.940486907958984,179.91014099121094,15.84149169921875,-13.210052490234375,28.07275390625,454.884494304657
D4:22:CD:00:05:5E,-112.83071899414062,-62.809478759765625,-111.66456604003906,-6.01348876953125,0.12195245921611786,-0.39360809326171875,454.884494304657
D4:22:CD:00:05:5D,168.50038146972656,-20.76066780090332,-139.77406311035156,-19.025882720947266,-9.43592643737793,6.045256614685059,454.91521668434143
D4:22:CD:00:05:6B,-32.81415557861328,-54.204532623291016,0.6198559403419495,26.295806884765625,5.44366455078125,8.309150695800781,454.91521668434143
D4:22:CD:00:49:AA,-150.91163635253906,-78.49492645263672,57.67390441894531,4.255476951599121,2.569200038909912,6.865833282470703,454.91521668434143
D4:22:CD:00:05:6E,48.894779205322266,-49.97079086303711,164.1061553955078,7.694952011108398,-9.252737045288086,18.05206298828125,454.91521668434143
D4:22:CD:00:05:5E,-112.4271469116211,-64.17282104492188,-112.8335952758789,-6.187991142272949,-0.48982304334640503,-0.9623031616210938,454.91521668434143
D4:22:CD:00:05:5D,166.86764526367188,-18.793560028076172,-140.6696319580078,-13.00825309753418,-7.063899040222168,-0.06793594360351562,454.94435834884644
D4:22:CD:00:05:6B,-47.92338943481445,-47.880802154541016,5.869063377380371,6.6378984451293945,-7.630632400512695,10.282644271850586,454.94435834884644
D4:22:CD:00:49:AA,-154.89285278320312,-78.45525360107422,61.7528190612793,4.749129295349121,0.5916906595230103,5.573145866394043,454.94435834884644
D4:22:CD:00:05:6E,42.55064392089844,-35.10655975341797,149.28660583496094,5.774374008178711,-2.786696434020996,7.840538024902344,454.94435834884644
D4:22:CD:00:05:5E,-112.40775299072266,-65.21443176269531,-114.42754364013672,-5.896989822387695,-1.524090051651001,-1.0125274658203125,454.94435834884644
D4:22:CD:00:05:5D,167.97659301757812,-19.441856384277344,-140.68092346191406,-7.474287033081055,-2.099579334259033,-1.570298194885254,454.97435760498047
D4:22:CD:00:05:6B,-49.4818115234375,-45.3435173034668,4.345417022705078,3.193850040435791,-3.0368523597717285,3.6294002532958984,454.97435760498047
D4:22:CD:00:49:AA,-157.7791748046875,-79.14137268066406,65.07125854492188,3.6069579124450684,1.7881929874420166,2.639897346496582,454.97435760498047
D4:22:CD:00:05:6E,37.078895568847656,-20.240991592407227,133.39932250976562,2.4177064895629883,-1.9794609546661377,3.62679386138916,454.97435760498047
D4:22:CD:00:05:5E,-109.0875473022461,-66.79842376708984,-119.0073471069336,-5.905397415161133,-1.5545682907104492,-0.9038410186767578,454.97435760498047
D4:22:CD:00:05:5D,167.2874298095703,-21.145719528198242,-141.1119842529297,-7.31825065612793,2.7895450592041016,3.2919368743896484,455.00389409065247
D4:22:CD:00:05:6B,-49.73435974121094,-46.25343704223633,0.7057651877403259,2.3577098846435547,-0.9429371356964111,-4.625730514526367,455.00389409065247
D4:22:CD:00:49:AA,-160.31375122070312,-79.65042877197266,67.97676086425781,2.6897897720336914,1.374525785446167,-0.05792045593261719,455.00389409065247
D4:22:CD:00:05:6E,29.76104736328125,-8.144693374633789,117.61453247070312,1.081639051437378,-1.532456636428833,-3.9988603591918945,455.00389409065247
D4:22:CD:00:05:5E,-101.54569244384766,-68.55221557617188,-127.1207504272461,-5.963318824768066,-2.2014079093933105,-1.3006725311279297,455.00389409065247
D4:22:CD:00:05:5D,163.91116333007812,-25.7249755859375,-141.7235565185547,-5.4987030029296875,1.5365979671478271,-5.374508857727051,455.0341203212738
D4:22:CD:00:05:6B,-55.63466262817383,-50.17333221435547,-3.0447351932525635,0.07738828659057617,-3.3209877014160156,-2.889188766479492,455.0341203212738
D4:22:CD:00:49:AA,-164.49472045898438,-79.77784729003906,72.39469146728516,2.897902488708496,0.12156422436237335,-1.018270492553711,455.0341203212738
D4:22:CD:00:05:6E,20.2867488861084,-2.2005069255828857,104.20130920410156,3.6335415840148926,-3.846503734588623,-1.8731517791748047,455.0341203212738
D4:22:CD:00:05:5E,-91.17384338378906,-69.61824035644531,-137.48263549804688,-5.773318290710449,-2.6507034301757812,-1.5771255493164062,455.0341203212738
D4:22:CD:00:05:5D,159.59544372558594,-32.256492614746094,-141.69268798828125,-3.4603500366210938,0.788007378578186,-4.9817914962768555,455.0641767978668
D4:22:CD:00:05:6B,-60.68728256225586,-56.43571853637695,-6.838252544403076,-3.923755168914795,-0.725257158279419,1.059840202331543,455.0641767978668
D4:22:CD:00:49:AA,-169.5986328125,-80.05770874023438,77.8681869506836,2.4686431884765625,0.29774850606918335,-2.670219898223877,455.0641767978668
D4:22:CD:00:05:6E,7.957034587860107,-0.8707709312438965,97.1563720703125,-1.0268974304199219,-4.918676376342773,-2.4424233436584473,455.0641767978668
D4:22:CD:00:05:5E,-80.49420928955078,-69.63105773925781,-147.37246704101562,-4.921740531921387,-3.099289894104004,-2.2117533683776855,455.0641767978668
D4:22:CD:00:05:5D,156.19155883789062,-40.710227966308594,-140.9241180419922,-4.381269454956055,0.4670763611793518,-5.880130767822266,455.0947890281677
D4:22:CD:00:05:6B,-60.050682067871094,-63.55931091308594,-11.98560905456543,-3.158393383026123,1.6688003540039062,-0.7460823059082031,455.0947890281677
D4:22:CD:00:49:AA,-175.89602661132812,-80.23526000976562,84.1432876586914,2.0928401947021484,0.3295327425003052,-3.623927116394043,455.0947890281677
D4:22:CD:00:05:6E,-3.0501794815063477,-0.8930954933166504,96.99972534179688,4.557746887207031,-3.373225212097168,-5.354926109313965,455.0947890281677
D4:22:CD:00:05:5E,-73.2569580078125,-68.7889633178711,-153.67361450195312,-4.431711196899414,-2.701498508453369,-3.776712417602539,455.0947890281677
D4:22:CD:00:05:5D,153.03436279296875,-50.99567413330078,-138.6236114501953,-4.364580154418945,-0.27363359928131104,-4.320732116699219,455.1243808269501
D4:22:CD:00:05:6B,-57.392120361328125,-70.37556457519531,-19.12765884399414,-0.028333306312561035,1.0743508338928223,-3.8356614112854004,455.1243808269501
D4:22:CD:00:49:AA,177.1791534423828,-80.23479461669922,90.1435775756836,2.525599479675293,-0.16327470541000366,-4.324568748474121,455.1243808269501
D4:22:CD:00:05:6E,-7.599344730377197,0.9106671214103699,102.16435241699219,0.11984243988990784,2.262094020843506,-2.7147202491760254,455.1243808269501
D4:22:CD:00:05:5E,-70.54927062988281,-67.55654907226562,-155.38314819335938,-3.879777431488037,-2.865433692932129,-4.958316802978516,455.1243808269501
D4:22:CD:00:05:5D,148.6990966796875,-62.69066619873047,-133.16070556640625,-3.215435028076172,-1.5962574481964111,-0.42467784881591797,455.1848258972168
D4:22:CD:00:05:6B,-57.09741973876953,-76.33766174316406,-27.880191802978516,0.3987112045288086,-0.06353764235973358,-4.377128601074219,455.1848258972168
D4:22:CD:00:49:AA,172.88113403320312,-80.13105773925781,93.27896118164062,2.3880391120910645,-0.213638037443161,-5.516493797302246,455.1848258972168
D4:22:CD:00:05:6E,-6.57014799118042,6.289756774902344,110.39801788330078,-0.8675135374069214,6.640082359313965,-3.4923348426818848,455.1848258972168
D4:22:CD:00:05:5E,-73.27316284179688,-66.20185089111328,-151.8780975341797,-4.372195243835449,-3.17385196685791,-5.417491912841797,455.1848258972168
D4:22:CD:00:05:5D,137.5684356689453,-74.65144348144531,-117.67912292480469,1.7246639728546143,-3.833066463470459,4.138772964477539,455.2140610218048
D4:22:CD:00:05:6B,-56.91428756713867,-81.2367172241211,-40.14249038696289,-1.3355364799499512,0.09407871961593628,-3.759842872619629,455.2140610218048
D4:22:CD:00:49:AA,171.20053100585938,-80.1700668334961,94.17830657958984,1.8769454956054688,-0.9160484075546265,-5.058972358703613,455.2140610218048
D4:22:CD:00:05:6E,0.4079723358154297,13.563034057617188,121.21129608154297,0.5350741147994995,8.83176040649414,-9.772466659545898,455.2140610218048
D4:22:CD:00:05:5E,-80.88136291503906,-64.52871704101562,-144.68145751953125,-4.499289512634277,-2.8155670166015625,-2.741021156311035,455.2140610218048
D4:22:CD:00:05:5D,95.1473388671875,-81.49931335449219,-66.8711166381836,9.91546630859375,1.649362564086914,5.074596405029297,455.2446177005768
D4:22:CD:00:05:6B,-42.250885009765625,-84.7716064453125,-67.29528045654297,-3.247076988220215,1.5382161140441895,-4.563438415527344,455.2446177005768
D4:22:CD:00:49:AA,171.35549926757812,-80.80554962158203,93.54981994628906,1.7459008693695068,-1.1598379611968994,-5.017744064331055,455.2446177005768
D4:22:CD:00:05:6E,10.257943153381348,21.58405113220215,135.328125,-7.875181198120117,4.767522811889648,-8.852043151855469,455.2446177005768
D4:22:CD:00:05:5E,-88.93339538574219,-62.25519943237305,-137.32798767089844,-4.681828498840332,1.484109878540039,-1.7465152740478516,455.2446177005768
D4:22:CD:00:05:5D,59.63960647583008,-78.37663269042969,-21.939441680908203,12.184192657470703,10.679922103881836,-2.2395787239074707,455.2745578289032
D4:22:CD:00:05:6B,-2.7195067405700684,-86.16487884521484,-117.43344116210938,-2.6351284980773926,3.964326858520508,-6.148812294006348,455.2745578289032
D4:22:CD:00:49:AA,173.75596618652344,-81.35505676269531,90.46013641357422,2.3092474937438965,-0.8576117753982544,-4.3776140213012695,455.2745578289032
D4:22:CD:00:05:6E,21.472291946411133,28.93659782409668,156.15579223632812,-14.566751480102539,6.472420692443848,-18.248554229736328,455.2745578289032
D4:22:CD:00:05:5E,-93.2447509765625,-59.86223602294922,-133.76417541503906,-7.630584716796875,-0.7834265232086182,-1.621232032775879,455.2745578289032
D4:22:CD:00:05:5D,61.342742919921875,-75.27316284179688,-18.486549377441406,20.60633087158203,15.326009750366211,-13.368484497070312,455.30428314208984
D4:22:CD:00:05:6B,42.378173828125,-85.31550598144531,-169.87429809570312,-0.345944881439209,7.243219375610352,-5.407954216003418,455.30428314208984
D4:22:CD:00:49:AA,175.46302795410156,-81.1266860961914,87.9073257446289,5.83994197845459,0.4788227081298828,1.6949024200439453,455.30428314208984
D4:22:CD:00:05:6E,40.555091857910156,31.318603515625,179.19081115722656,-21.963138580322266,-1.0953872203826904,-24.03042221069336,455.30428314208984
D4:22:CD:00:05:5E,-92.30996704101562,-57.556270599365234,-134.53318786621094,-8.34561538696289,-3.61879301071167,3.7011308670043945,455.30428314208984
D4:22:CD:00:05:5D,82.6779556274414,-75.43706512451172,-38.00666809082031,17.177589416503906,1.91542387008667,-1.2112932205200195,455.3347029685974
D4:22:CD:00:05:6B,72.11768341064453,-82.41539764404297,156.77101135253906,-0.5534160137176514,7.9251861572265625,-2.811427116394043,455.3347029685974
D4:22:CD:00:49:AA,172.3994903564453,-80.33183288574219,88.87593841552734,6.95411491394043,-2.478670120239258,6.750288009643555,455.3347029685974
D4:22:CD:00:05:6E,62.81973648071289,33.91923904418945,-174.9048614501953,8.146472930908203,-7.6307830810546875,0.32212162017822266,455.3347029685974
D4:22:CD:00:05:5E,-88.9530258178711,-55.31645965576172,-138.00733947753906,-7.503904342651367,-1.0595591068267822,3.052121162414551,455.3347029685974
D4:22:CD:00:05:5D,102.02234649658203,-76.8361587524414,-60.26511764526367,1.9681742191314697,-10.697086334228516,0.8763313293457031,455.3647038936615
D4:22:CD:00:05:6B,90.62409210205078,-78.13436126708984,138.26377868652344,-3.569589138031006,6.983865737915039,5.098323822021484,455.3647038936615
D4:22:CD:00:49:AA,171.74591064453125,-79.12940216064453,88.27278900146484,0.03063066303730011,-0.8690875768661499,5.931771278381348,455.3647038936615
D4:22:CD:00:05:6E,66.30096435546875,37.094825744628906,-178.1553955078125,-5.8322954177856445,-21.082000732421875,0.8215198516845703,455.3647038936615
D4:22:CD:00:05:5E,-82.93408203125,-53.13006591796875,-144.5985870361328,-10.828115463256836,-9.638792037963867,3.0105838775634766,455.3647038936615
D4:22:CD:00:05:5D,119.62710571289062,-76.37169647216797,-79.34955596923828,-13.57473373413086,4.075725555419922,19.17904281616211,455.39486145973206
D4:22:CD:00:05:6B,104.12491607666016,-74.1921157836914,127.97321319580078,-2.258573055267334,8.977510452270508,13.135133743286133,455.39486145973206
D4:22:CD:00:49:AA,171.79034423828125,-78.9864273071289,90.7982406616211,-3.0932798385620117,-1.7633795738220215,3.403352737426758,455.39486145973206
D4:22:CD:00:05:6E,55.3961067199707,38.6727180480957,175.46099853515625,7.90064811706543,2.836442470550537,-6.048916816711426,455.39486145973206
D4:22:CD:00:05:5E,-73.51385498046875,-50.5999755859375,-151.74208068847656,-10.768272399902344,-3.316779613494873,-8.572546005249023,455.39486145973206
D4:22:CD:00:05:5D,137.74282836914062,-74.00048828125,-91.6805419921875,0.9273860454559326,4.956063270568848,0.23580360412597656,455.4248561859131
D4:22:CD:00:05:6B,115.21989440917969,-73.69110107421875,121.7908935546875,-1.2812998294830322,6.909745216369629,7.0488433837890625,455.4248561859131
D4:22:CD:00:49:AA,171.16278076171875,-78.77119445800781,95.14070129394531,-5.9580488204956055,1.7938237190246582,2.324122428894043,455.4248561859131
D4:22:CD:00:05:6E,54.23388671875,39.452430725097656,164.03497314453125,-0.3006463646888733,-14.822139739990234,-3.7107534408569336,455.4248561859131
D4:22:CD:00:05:5E,-67.66134643554688,-49.401851654052734,-151.96580505371094,-28.02548599243164,12.26762580871582,-16.763843536376953,455.4248561859131
D4:22:CD:00:05:5D,148.6606903076172,-73.0630111694336,-100.05310821533203,3.7069382667541504,1.6912620067596436,0.6339807510375977,455.4848370552063
D4:22:CD:00:05:6B,131.15829467773438,-77.4752426147461,111.70330810546875,-0.5658327341079712,2.0851526260375977,3.0850324630737305,455.4848370552063
D4:22:CD:00:49:AA,171.4034881591797,-78.02918243408203,97.98478698730469,-4.797412872314453,1.1716339588165283,-3.637216091156006,455.4848370552063
D4:22:CD:00:05:6E,50.0220947265625,36.29848098754883,144.97268676757812,-5.402143478393555,-11.97972297668457,-9.263288497924805,455.4848370552063
D4:22:CD:00:05:5E,-72.86373138427734,-51.086219787597656,-140.1925506591797,-27.19501495361328,1.6646077632904053,-10.26456069946289,455.4848370552063
D4:22:CD:00:05:5D,157.05813598632812,-72.2757339477539,-105.86040496826172,4.458025932312012,-1.4865903854370117,0.8270769119262695,455.51467084884644
D4:22:CD:00:05:6B,164.7684326171875,-82.46308135986328,81.81514739990234,2.973292350769043,-3.3340086936950684,0.7033185958862305,455.51467084884644
D4:22:CD:00:49:AA,171.5838165283203,-76.62085723876953,100.1355209350586,0.5618493556976318,-0.4240310788154602,-0.31662654876708984,455.51467084884644
D4:22:CD:00:05:6E,46.83871078491211,27.967464447021484,125.69746398925781,-2.8842883110046387,-10.582304000854492,-9.857465744018555,455.51467084884644
D4:22:CD:00:05:5E,-79.14724731445312,-53.616676330566406,-123.41506958007812,-17.379436492919922,-5.865974426269531,-4.98293399810791,455.51467084884644
D4:22:CD:00:05:5D,162.9031524658203,-71.74429321289062,-108.58220672607422,1.2444055080413818,0.6091340780258179,0.7691583633422852,455.5446569919586
D4:22:CD:00:05:6B,-146.17752075195312,-82.91612243652344,31.691844940185547,1.3057305812835693,-3.0026817321777344,-2.2200241088867188,455.5446569919586
D4:22:CD:00:49:AA,168.7915496826172,-76.09049224853516,103.62206268310547,-0.6802260875701904,1.6501133441925049,1.315506935119629,455.5446569919586
D4:22:CD:00:05:6E,46.113162994384766,15.796857833862305,107.81245422363281,0.9668804407119751,-3.0015945434570312,-12.591533660888672,455.5446569919586
D4:22:CD:00:05:5E,-90.02790832519531,-55.21805191040039,-103.81362915039062,-7.345417022705078,-9.198650360107422,-6.1551408767700195,455.5446569919586
D4:22:CD:00:05:5D,166.22544860839844,-71.77458953857422,-109.14315795898438,0.21838310360908508,0.22606569528579712,0.6325244903564453,455.57465839385986
D4:22:CD:00:05:6B,-124.12482452392578,-81.41272735595703,6.454765319824219,-0.7669830322265625,-2.8552985191345215,-3.4881796836853027,455.57465839385986
D4:22:CD:00:49:AA,166.55613708496094,-75.93183898925781,106.7197265625,-5.036822319030762,1.3844590187072754,0.5936508178710938,455.57465839385986
D4:22:CD:00:05:6E,50.48837661743164,1.9740126132965088,92.30380249023438,9.00339126586914,7.244295120239258,-12.110200881958008,455.57465839385986
D4:22:CD:00:05:5E,-106.8570556640625,-55.60013961791992,-83.52355194091797,0.8133465051651001,-5.564964294433594,-6.326604843139648,455.57465839385986
D4:22:CD:00:05:5D,168.9832000732422,-71.8156967163086,-110.03700256347656,-2.638477325439453,1.756641149520874,0.7502212524414062,455.6043906211853
D4:22:CD:00:05:6B,-120.05176544189453,-80.85496520996094,-0.24516001343727112,-1.6513795852661133,-3.3904995918273926,-4.0395097732543945,455.6043906211853
D4:22:CD:00:49:AA,165.29405212402344,-76.49472045898438,109.65479278564453,-4.717002868652344,1.4813270568847656,-0.6388301849365234,455.6043906211853
D4:22:CD:00:05:6E,60.37591552734375,-10.685739517211914,78.08509063720703,4.945807456970215,11.304330825805664,-6.172057151794434,455.6043906211853
D4:22:CD:00:05:5E,-124.44918823242188,-55.020912170410156,-65.57278442382812,2.7835612297058105,-2.4577207565307617,-7.431232452392578,455.6043906211853
D4:22:CD:00:05:5D,172.4594268798828,-71.96253204345703,-112.94998168945312,-2.1500821113586426,1.4502856731414795,0.4075593948364258,455.6347653865814
D4:22:CD:00:05:6B,-123.70293426513672,-80.63162994384766,1.935258150100708,-1.7201039791107178,-1.2312183380126953,-1.8559155464172363,455.6347653865814
D4:22:CD:00:49:AA,162.84219360351562,-76.42643737792969,113.78491973876953,-1.1362192630767822,1.3191297054290771,-0.9190807342529297,455.6347653865814
D4:22:CD:00:05:6E,71.32373809814453,-17.61402702331543,64.74652099609375,12.568183898925781,1.5932445526123047,-5.7242631912231445,455.6347653865814
D4:22:CD:00:05:5E,-141.8753662109375,-54.12157440185547,-51.27208709716797,2.8686342239379883,-0.8642958402633667,-6.370763778686523,455.6347653865814
D4:22:CD:00:05:5D,176.25511169433594,-72.01066589355469,-117.29896545410156,-1.1779632568359375,0.17459043860435486,0.025816917419433594,455.6639759540558
D4:22:CD:00:05:6B,-126.28458404541016,-80.17111206054688,4.355518817901611,-1.5562894344329834,-1.5509493350982666,-1.0447206497192383,455.6639759540558
D4:22:CD:00:49:AA,157.81175231933594,-76.27983856201172,120.08810424804688,-0.03940935432910919,-0.020025528967380524,-2.174266815185547,455.6639759540558
D4:22:CD:00:05:6E,90.0197982788086,-18.587522506713867,55.572296142578125,-9.328622817993164,-0.995259165763855,2.51016902923584,455.6639759540558
D4:22:CD:00:05:5E,-156.71656799316406,-54.694087982177734,-40.14313888549805,2.00264310836792,-1.4770970344543457,-3.2221875190734863,455.6639759540558
D4:22:CD:00:05:5D,178.9942626953125,-71.66498565673828,-120.82443237304688,1.2276341915130615,-1.6329841613769531,-0.4725322723388672,455.6945734024048
D4:22:CD:00:05:6B,-123.99860382080078,-79.40240478515625,0.7717801332473755,-0.5440962314605713,1.281245231628418,-1.1084375381469727,455.6945734024048
D4:22:CD:00:49:AA,152.25079345703125,-76.08641815185547,126.19371795654297,-0.24878981709480286,-0.07087036967277527,-3.1703457832336426,455.6945734024048
D4:22:CD:00:05:6E,101.508544921875,-16.020732879638672,48.83795928955078,-4.151627540588379,-4.214566230773926,3.941647529602051,455.6945734024048
D4:22:CD:00:05:5E,-165.9608612060547,-57.57877731323242,-31.56195640563965,6.6403398513793945,-0.2072506546974182,-0.10896492004394531,455.6945734024048
D4:22:CD:00:05:5D,-179.75869750976562,-70.8536148071289,-122.64515686035156,0.23524603247642517,-1.7828724384307861,-0.9247837066650391,455.7249903678894
D4:22:CD:00:05:6B,-118.2856674194336,-78.49718475341797,-8.639326095581055,-0.002707958221435547,3.009063243865967,-1.8727922439575195,455.7249903678894
D4:22:CD:00:49:AA,147.9841766357422,-75.83103942871094,131.134765625,-1.634699821472168,-0.14229941368103027,-3.973853588104248,455.7249903678894
D4:22:CD:00:05:6E,110.19860076904297,-13.282954216003418,45.51291275024414,1.6689519882202148,-4.825470924377441,-6.414203643798828,455.7249903678894
D4:22:CD:00:05:5E,-167.37985229492188,-63.13844680786133,-26.814857482910156,15.405256271362305,1.860107183456421,0.017377853393554688,455.7249903678894
D4:22:CD:00:05:5D,179.05531311035156,-69.04619598388672,-121.6164779663086,0.8620055913925171,-2.692542552947998,-1.1702442169189453,455.78475069999695
D4:22:CD:00:05:6B,-109.42362976074219,-77.1406478881836,-21.34446144104004,-1.0152678489685059,4.951651573181152,-2.31571102142334,455.78475069999695
D4:22:CD:00:49:AA,144.7570343017578,-75.6427230834961,135.34991455078125,-1.6899499893188477,-0.49139857292175293,-3.6533923149108887,455.78475069999695
D4:22:CD:00:05:6E,119.92302703857422,-15.062761306762695,45.2326774597168,-1.9451406002044678,-0.12379519641399384,-8.416950225830078,455.78475069999695
D4:22:CD:00:05:5E,-161.41822814941406,-68.67108154296875,-24.266469955444336,-25.276172637939453,-1.3785674571990967,18.648643493652344,455.78475069999695
D4:22:CD:00:05:5D,177.03964233398438,-66.56080627441406,-119.22384643554688,-0.13832366466522217,-0.07583190500736237,-0.6309738159179688,455.8145956993103
D4:22:CD:00:05:6B,-100.59939575195312,-75.02256774902344,-32.58084487915039,-0.36443519592285156,4.745312690734863,-2.215939998626709,455.8145956993103
D4:22:CD:00:49:AA,141.34722900390625,-75.33824157714844,140.1181640625,0.06960505247116089,-1.8422636985778809,-3.0644774436950684,455.8145956993103
D4:22:CD:00:05:6E,126.12760162353516,-24.943710327148438,43.00437927246094,5.739823341369629,3.5396456718444824,-3.2815418243408203,455.8145956993103
D4:22:CD:00:05:5E,-166.08824157714844,-69.41490936279297,-23.347496032714844,9.488807678222656,-4.458427429199219,-4.5190582275390625,455.8145956993103
D4:22:CD:00:05:5D,174.71556091308594,-63.63625717163086,-116.64073944091797,1.305359125137329,-0.9683653116226196,-0.7878246307373047,455.8445954322815
D4:22:CD:00:05:6B,-94.7197494506836,-72.08303833007812,-39.87648010253906,-2.4690685272216797,7.064243316650391,0.5882425308227539,455.8445954322815
D4:22:CD:00:49:AA,137.3083038330078,-74.80453491210938,144.85757446289062,2.2393927574157715,1.523099422454834,-0.2198505401611328,455.8445954322815
D4:22:CD:00:05:6E,125.6260757446289,-43.29620361328125,33.68088150024414,22.370132446289062,5.681872367858887,26.689620971679688,455.8445954322815
D4:22:CD:00:05:5E,-169.1280517578125,-69.63353729248047,-22.505599975585938,5.305624008178711,1.7253868579864502,12.273326873779297,455.8445954322815
D4:22:CD:00:05:5D,173.88279724121094,-60.93561553955078,-114.90776062011719,0.1049107164144516,1.14913010597229,0.7693376541137695,455.8746943473816
D4:22:CD:00:05:6B,-87.70001220703125,-68.22648620605469,-43.98229217529297,-3.8391170501708984,7.984494209289551,4.196260452270508,455.8746943473816
D4:22:CD:00:49:AA,135.03431701660156,-74.2689437866211,146.4873809814453,4.055115699768066,4.122052192687988,4.265776634216309,455.8746943473816
D4:22:CD:00:05:6E,111.77699279785156,-57.09951400756836,26.976951599121094,33.800323486328125,8.004451751708984,23.67544174194336,455.8746943473816
D4:22:CD:00:05:5E,-168.27239990234375,-69.27503967285156,-23.425275802612305,2.462848663330078,-2.4653124809265137,14.452917098999023,455.8746943473816
D4:22:CD:00:05:5D,174.01258850097656,-58.9359130859375,-115.1842041015625,-1.6723439693450928,2.1363983154296875,1.4950952529907227,455.9047338962555
D4:22:CD:00:05:6B,-79.8209457397461,-61.91193771362305,-45.88313674926758,0.36602282524108887,5.513738632202148,11.730989456176758,455.9047338962555
D4:22:CD:00:49:AA,136.7672576904297,-73.44005584716797,143.1859130859375,-3.345123767852783,0.9846581220626831,7.689971923828125,455.9047338962555
D4:22:CD:00:05:6E,119.14031982421875,-55.4588623046875,31.756202697753906,14.031265258789062,4.524529457092285,11.092411041259766,455.9047338962555
D4:22:CD:00:05:5E,-167.3174285888672,-67.30181121826172,-24.989953994750977,1.5951025485992432,-5.887195587158203,12.964275360107422,455.9047338962555
D4:22:CD:00:05:5D,174.85433959960938,-57.8865852355957,-117.07868194580078,-0.8768904209136963,1.6588451862335205,1.5685176849365234,455.93518352508545
D4:22:CD:00:05:6B,-79.20933532714844,-51.31455993652344,-45.02912521362305,-1.839888572692871,1.1476564407348633,14.401893615722656,455.93518352508545
D4:22:CD:00:49:AA,139.9945526123047,-72.28475952148438,138.7741241455078,-2.9932923316955566,2.3000288009643555,7.616092681884766,455.93518352508545
D4:22:CD:00:05:6E,123.48109436035156,-50.089637756347656,36.537841796875,5.006965637207031,11.207782745361328,15.762739181518555,455.93518352508545
D4:22:CD:00:05:5E,-164.24256896972656,-64.71630096435547,-27.342958450317383,6.32790470123291,-2.68867826461792,12.78462028503418,455.93518352508545
D4:22:CD:00:05:5D,175.95155334472656,-58.255550384521484,-120.00379180908203,-0.6620265245437622,1.8606359958648682,1.7883243560791016,455.96434450149536
D4:22:CD:00:05:6B,-84.54302978515625,-37.99236297607422,-40.586875915527344,-1.237675428390503,7.915193557739258,17.907005310058594,455.96434450149536
D4:22:CD:00:49:AA,141.47972106933594,-71.96974182128906,135.49806213378906,-1.0701930522918701,2.2860350608825684,7.49266242980957,455.96434450149536
D4:22:CD:00:05:6E,125.49581909179688,-47.34123611450195,45.70673370361328,-2.709156036376953,16.950801849365234,3.880826950073242,455.96434450149536
D4:22:CD:00:05:5E,-155.70462036132812,-63.2225456237793,-33.42697525024414,4.723054885864258,-0.9454935789108276,3.062246322631836,455.96434450149536
D4:22:CD:00:05:5D,176.9930877685547,-59.83060073852539,-123.20674896240234,0.7549339532852173,0.4653157591819763,1.0902490615844727,455.9948773384094
D4:22:CD:00:05:6B,-84.19561767578125,-22.72711181640625,-35.62331771850586,7.756838798522949,8.736177444458008,17.96074676513672,455.9948773384094
D4:22:CD:00:49:AA,141.81089782714844,-72.30099487304688,133.78770446777344,-1.6286697387695312,0.8151830434799194,2.6101808547973633,455.9948773384094
D4:22:CD:00:05:6E,131.23463439941406,-48.25457763671875,55.17374801635742,-10.60726547241211,8.669851303100586,4.667072296142578,455.9948773384094
D4:22:CD:00:05:5E,-156.18759155273438,-60.19316864013672,-38.794189453125,6.897407531738281,-1.6217827796936035,1.2003183364868164,455.9948773384094
D4:22:CD:00:05:5D,178.11419677734375,-61.76707458496094,-125.28099822998047,2.165457248687744,-1.2400646209716797,-0.04418754577636719,456.0242164134979
D4:22:CD:00:05:6B,-76.09111022949219,-7.034409046173096,-32.39700698852539,15.38460922241211,2.9091873168945312,15.885343551635742,456.0242164134979
D4:22:CD:00:49:AA,141.65646362304688,-73.3502426147461,133.31768798828125,-3.8013973236083984,0.7986572980880737,-0.582707405090332,456.0242164134979
D4:22:CD:00:05:6E,135.0450897216797,-54.160743713378906,63.159820556640625,-8.700981140136719,1.977339267730713,3.095036506652832,456.0242164134979
D4:22:CD:00:05:5E,-146.3116912841797,-60.10108184814453,-48.279258728027344,3.4531993865966797,2.887540340423584,1.6528186798095703,456.0242164134979
