Device,EulerX,EulerY,EulerZ,FreeAccX,FreeAccY,FreeAccZ,Timestamp
D4:22:CD:00:05:5D,174.96388244628906,-52.70433807373047,-95.83590698242188,1.5901827812194824,2.9416561126708984,-2.4784512519836426,2253.2723417282104
D4:22:CD:00:05:6B,-86.02128601074219,-13.030147552490234,-141.48825073242188,4.969252586364746,3.904883861541748,14.326562881469727,2253.2723417282104
D4:22:CD:00:49:AA,140.33323669433594,-74.94313049316406,153.4740447998047,-3.181906223297119,-2.009003162384033,-0.34818553924560547,2253.2723417282104
D4:22:CD:00:05:6E,125.29672241210938,-63.59410858154297,23.296932220458984,1.0490880012512207,12.451177597045898,15.994365692138672,2253.2723417282104
D4:22:CD:00:05:5E,151.35972595214844,-71.75665283203125,24.67453956604004,-0.3141546845436096,2.755178928375244,15.220382690429688,2253.2723417282104
D4:22:CD:00:05:5D,173.6719207763672,-50.73630142211914,-95.04093933105469,-1.31036376953125,3.5203380584716797,-2.1555566787719727,2253.2753417491913
D4:22:CD:00:05:6B,-88.1249771118164,3.917543888092041,-143.51394653320312,6.312132835388184,-2.7825183868408203,10.885015487670898,2253.2753417491913
D4:22:CD:00:49:AA,143.5980987548828,-74.78546142578125,151.8691864013672,0.8175987005233765,-1.8358066082000732,3.214609146118164,2253.2753417491913
D4:22:CD:00:05:6E,121.90532684326172,-60.48084259033203,40.44316101074219,-2.181966781616211,1.3552157878875732,17.137863159179688,2253.2753417491913
D4:22:CD:00:05:5E,162.18045043945312,-67.82640075683594,13.150370597839355,0.8192582130432129,4.052599906921387,12.160160064697266,2253.2753417491913
D4:22:CD:00:05:5D,173.9683380126953,-50.323143005371094,-92.60369110107422,3.5240049362182617,0.12182019650936127,0.8302593231201172,2253.2783415317535
D4:22:CD:00:05:6B,-87.20652770996094,22.990276336669922,-142.5185546875,6.421324729919434,-13.199747085571289,17.302806854248047,2253.2783415317535
D4:22:CD:00:49:AA,149.86920166015625,-73.87316131591797,146.49720764160156,3.505817413330078,0.09219081699848175,7.420724868774414,2253.2783415317535
D4:22:CD:00:05:6E,112.00996398925781,-62.410377502441406,57.452301025390625,-3.5300002098083496,-3.438638210296631,7.41473388671875,2253.2783415317535
D4:22:CD:00:05:5E,162.77706909179688,-66.75355529785156,9.667366981506348,1.1077337265014648,11.2708740234375,1.936478614807129,2253.2783415317535
D4:22:CD:00:05:5D,174.83311462402344,-51.21893310546875,-91.27408599853516,3.9420809745788574,1.257145643234253,0.7262802124023438,2253.281341791153
D4:22:CD:00:05:6B,-73.64534759521484,41.63044738769531,-136.7770538330078,1.59489107131958,-17.968551635742188,12.013574600219727,2253.281341791153
D4:22:CD:00:49:AA,153.26071166992188,-72.65711212158203,142.9356689453125,-0.3734731674194336,-1.120279312133789,5.312252044677734,2253.281341791153
D4:22:CD:00:05:6E,97.21955871582031,-67.66071319580078,78.1741943359375,-3.4607229232788086,-8.353784561157227,1.8459787368774414,2253.281341791153
D4:22:CD:00:05:5E,160.00013732910156,-71.39994049072266,11.078824996948242,2.087190628051758,9.731134414672852,-3.211597442626953,2253.281341791153
D4:22:CD:00:05:5D,-178.71612548828125,-68.86023712158203,-107.8364028930664,2.294893741607666,-1.9325697422027588,-1.8232307434082031,2253.284342288971
D4:22:CD:00:05:6B,-89.6356430053711,-51.05065155029297,-113.69902038574219,0.6999969482421875,1.5252511501312256,1.9925203323364258,2253.284342288971
D4:22:CD:00:49:AA,-158.32208251953125,-74.06427001953125,84.76893615722656,3.734727382659912,2.876830577850342,-1.1856040954589844,2253.284342288971
D4:22:CD:00:05:5D,179.9198455810547,-65.50978088378906,-105.16670227050781,-1.193594217300415,1.2822675704956055,-0.8498411178588867,2253.356897354126
D4:22:CD:00:05:6B,-83.93389129638672,-39.957828521728516,-126.32343292236328,0.81414794921875,0.41264039278030396,10.822040557861328,2253.356897354126
D4:22:CD:00:49:AA,-178.1681365966797,-77.85054016113281,103.83277130126953,3.969980239868164,1.421766996383667,-0.5617160797119141,2253.356897354126
D4:22:CD:00:05:6E,-78.19413757324219,-81.30146026611328,178.00941467285156,11.300931930541992,-5.524869918823242,11.516986846923828,2253.356897354126
D4:22:CD:00:05:5E,-78.16819763183594,-84.78473663330078,-57.72893142700195,-2.8971056938171387,-5.7587785720825195,19.580707550048828,2253.356897354126
D4:22:CD:00:05:5D,173.8501434326172,-60.04755401611328,-96.01029205322266,-2.615556240081787,-2.1612534523010254,0.7790670394897461,2253.3858942985535
D4:22:CD:00:05:6B,-77.67473602294922,-28.64517593383789,-135.802490234375,8.496116638183594,-6.220361709594727,18.96182632446289,2253.3858942985535
D4:22:CD:00:49:AA,140.94459533691406,-77.28665924072266,143.5465850830078,-2.184417247772217,-0.8284498453140259,2.3272438049316406,2253.3858942985535
D4:22:CD:00:05:6E,-69.27689361572266,-65.43753051757812,170.95697021484375,3.181575298309326,-5.758858680725098,13.99367904663086,2253.3858942985535
D4:22:CD:00:05:5E,-177.14212036132812,-72.34956359863281,42.859458923339844,4.324302673339844,0.4685676097869873,19.837905883789062,2253.3858942985535
D4:22:CD:00:05:5D,171.20652770996094,-55.292972564697266,-88.17676544189453,-2.46720027923584,3.6687560081481934,1.29180908203125,2253.446438074112
D4:22:CD:00:05:6B,-69.86585235595703,-15.232288360595703,-142.1253662109375,10.368722915649414,-4.270549774169922,14.024190902709961,2253.446438074112
D4:22:CD:00:49:AA,142.05702209472656,-77.18082427978516,144.4291534423828,-5.835479736328125,-2.5936450958251953,10.984195709228516,2253.446438074112
D4:22:CD:00:05:6E,-54.403621673583984,-54.40375518798828,160.06748962402344,-16.618812561035156,5.1317548751831055,5.28663444519043,2253.446438074112
D4:22:CD:00:05:5E,171.47555541992188,-69.05500030517578,50.390296936035156,4.906160354614258,3.2682175636291504,16.224178314208984,2253.446438074112
D4:22:CD:00:05:5D,170.53570556640625,-51.55406951904297,-83.54741668701172,2.476522922515869,2.9655823707580566,1.2797126770019531,2253.4764382839203
D4:22:CD:00:05:6B,-66.32929229736328,3.358944892883301,-139.0590057373047,5.429169654846191,-10.553840637207031,39.94932556152344,2253.4764382839203
D4:22:CD:00:49:AA,153.20248413085938,-78.90119171142578,134.73809814453125,3.250908374786377,1.2164511680603027,10.0269775390625,2253.4764382839203
D4:22:CD:00:05:6E,-48.83351135253906,-62.24095153808594,151.9969024658203,-12.427852630615234,6.943909645080566,13.708147048950195,2253.4764382839203
D4:22:CD:00:05:5E,165.99725341796875,-71.33702087402344,53.981746673583984,-6.877077102661133,-3.875392436981201,11.50045394897461,2253.4764382839203
D4:22:CD:00:05:5D,171.78314208984375,-50.15964126586914,-83.01429748535156,6.305071830749512,6.8865766525268555,-1.4581871032714844,2253.506452560425
D4:22:CD:00:05:6B,-44.139217376708984,22.07244873046875,-128.6423797607422,-15.618640899658203,-13.964881896972656,22.762306213378906,2253.506452560425
D4:22:CD:00:49:AA,154.31320190429688,-79.5098876953125,133.71148681640625,3.0276613235473633,-1.7346551418304443,10.122119903564453,2253.506452560425
D4:22:CD:00:05:6E,-26.622325897216797,-70.89820861816406,135.7351837158203,-11.0234375,7.018288612365723,12.270711898803711,2253.506452560425
D4:22:CD:00:05:5E,165.0936279296875,-73.2948226928711,52.23545455932617,-5.149257659912109,0.8193566799163818,0.598515510559082,2253.506452560425
D4:22:CD:00:05:5D,174.08876037597656,-50.813720703125,-85.05390930175781,-1.574798345565796,0.8387515544891357,3.893777847290039,2253.5363290309906
D4:22:CD:00:05:6B,-13.702510833740234,33.28038024902344,-113.79093933105469,-14.719413757324219,-6.180757522583008,-2.8275585174560547,2253.5363290309906
D4:22:CD:00:49:AA,154.208251953125,-79.51061248779297,133.90414428710938,-3.129565715789795,-0.48446208238601685,7.2776641845703125,2253.5363290309906
D4:22:CD:00:05:6E,16.54135513305664,-74.23442077636719,104.49127197265625,-17.54385757446289,3.137601375579834,5.024884223937988,2253.5363290309906
D4:22:CD:00:05:5E,171.30067443847656,-77.85626220703125,45.87668228149414,-3.667325019836426,1.359208106994629,-8.46609115600586,2253.5363290309906
D4:22:CD:00:05:5D,176.3968963623047,-53.37880325317383,-86.85987091064453,-2.489220142364502,0.45080816745758057,5.173297882080078,2253.5665850639343
D4:22:CD:00:05:6B,8.042656898498535,38.231327056884766,-99.59732818603516,-11.159549713134766,0.7396812438964844,-8.498369216918945,2253.5665850639343
D4:22:CD:00:49:AA,159.91075134277344,-80.65203857421875,128.80677795410156,-5.059415817260742,1.2542316913604736,6.110701560974121,2253.5665850639343
D4:22:CD:00:05:6E,46.14346694946289,-70.73031616210938,84.14608001708984,-10.00634765625,0.4378421902656555,-4.342136383056641,2253.5665850639343
D4:22:CD:00:05:5E,-169.67869567871094,-84.55130004882812,26.495086669921875,-1.2105844020843506,4.302822113037109,-11.572206497192383,2253.5665850639343
D4:22:CD:00:05:5D,178.1804656982422,-57.840030670166016,-89.59469604492188,-3.5268778800964355,-0.2226358950138092,6.87933349609375,2253.5966758728027
D4:22:CD:00:05:6B,25.411439895629883,41.65447998046875,-89.53157043457031,-10.315694808959961,-1.5563161373138428,-11.586002349853516,2253.5966758728027
D4:22:CD:00:49:AA,172.0408477783203,-81.38260650634766,118.0205307006836,-1.7274129390716553,2.1572928428649902,1.7454509735107422,2253.5966758728027
D4:22:CD:00:05:6E,55.32727813720703,-66.78840637207031,87.703369140625,-10.138313293457031,0.680330753326416,-8.563741683959961,2253.5966758728027
D4:22:CD:00:05:5E,-49.48896026611328,-85.03675079345703,-94.55379486083984,-0.49281084537506104,2.1308560371398926,-9.109832763671875,2253.5966758728027
D4:22:CD:00:05:5D,178.5822296142578,-65.56671905517578,-95.17610168457031,-6.352420806884766,-7.565073013305664,5.159040451049805,2253.626216650009
D4:22:CD:00:05:6B,41.208953857421875,46.01249694824219,-83.46318817138672,-4.7787885665893555,-0.2868107557296753,-12.85605239868164,2253.626216650009
D4:22:CD:00:49:AA,-177.45497131347656,-80.39228057861328,108.42776489257812,0.5078368186950684,2.588714599609375,-2.3560962677001953,2253.626216650009
D4:22:CD:00:05:6E,56.823856353759766,-65.357421875,100.03495025634766,-12.697015762329102,-4.127865791320801,-13.173158645629883,2253.626216650009
D4:22:CD:00:05:5E,-27.037874221801758,-76.41810607910156,-119.71114349365234,-3.9271440505981445,-3.0411219596862793,-8.973876953125,2253.626216650009
D4:22:CD:00:05:5D,172.7226104736328,-70.91242980957031,-93.04708099365234,1.2123806476593018,-1.717050552368164,-3.312527656555176,2253.656216621399
D4:22:CD:00:05:6B,53.95503234863281,50.98445129394531,-79.03711700439453,-1.126302719116211,-0.45962953567504883,-10.018213272094727,2253.656216621399
D4:22:CD:00:49:AA,-172.1560821533203,-79.43917846679688,103.07347869873047,0.5482633113861084,-0.623297929763794,-8.230247497558594,2253.656216621399
D4:22:CD:00:05:6E,53.97552490234375,-66.17192840576172,115.26534271240234,-6.803393363952637,-5.706575393676758,-12.384712219238281,2253.656216621399
D4:22:CD:00:05:5E,-22.814441680908203,-68.0634994506836,-127.89762878417969,-7.476851463317871,-5.624217987060547,-9.142330169677734,2253.656216621399
D4:22:CD:00:05:5D,166.05409240722656,-71.95967864990234,-85.79859161376953,5.130766868591309,14.932516098022461,-1.7090568542480469,2253.6862165927887
D4:22:CD:00:05:6B,61.05124282836914,55.767555236816406,-76.24580383300781,1.5001790523529053,-1.0588500499725342,-8.761470794677734,2253.6862165927887
D4:22:CD:00:49:AA,-168.0655975341797,-79.00590515136719,99.71723175048828,-1.7489430904388428,-0.5807168483734131,-12.746175765991211,2253.6862165927887
D4:22:CD:00:05:6E,49.175907135009766,-67.22918701171875,131.8359375,-3.536437511444092,-4.054854393005371,-11.691055297851562,2253.6862165927887
D4:22:CD:00:05:5E,-24.85190200805664,-61.31818771362305,-130.77178955078125,-10.953386306762695,-6.709118843078613,-11.016962051391602,2253.6862165927887
D4:22:CD:00:05:5D,159.2554931640625,-68.0491943359375,-79.11857604980469,3.871314525604248,-4.607428550720215,-9.261606216430664,2253.746737241745
D4:22:CD:00:05:6B,60.050662994384766,59.53940963745117,-77.06954193115234,0.22738736867904663,0.2452743649482727,-8.680130004882812,2253.746737241745
D4:22:CD:00:49:AA,-165.40298461914062,-79.51748657226562,98.24212646484375,0.2347656488418579,0.20984002947807312,-8.141931533813477,2253.746737241745
D4:22:CD:00:05:6E,45.20861053466797,-67.97177124023438,148.1962127685547,-0.6985840797424316,-3.842958927154541,-10.537242889404297,2253.746737241745
D4:22:CD:00:05:5E,-30.28531265258789,-57.216426849365234,-129.3671112060547,-13.646856307983398,-6.6835737228393555,-12.049964904785156,2253.746737241745
D4:22:CD:00:05:5D,157.9188690185547,-66.56784057617188,-72.83605194091797,5.678983688354492,-9.32098388671875,-17.370304107666016,2253.776736974716
D4:22:CD:00:05:6B,51.29801940917969,63.11952590942383,-85.0208740234375,1.0613665580749512,1.8001086711883545,-7.391246795654297,2253.776736974716
D4:22:CD:00:49:AA,-163.44949340820312,-81.15782165527344,97.03235626220703,-0.08380092680454254,1.3514719009399414,-8.235567092895508,2253.776736974716
D4:22:CD:00:05:6E,41.61020278930664,-68.22126007080078,164.04164123535156,1.6831178665161133,-5.834051132202148,-10.071737289428711,2253.776736974716
D4:22:CD:00:05:5E,-33.66154098510742,-56.266693115234375,-126.28129577636719,-12.099140167236328,-15.038204193115234,-17.701045989990234,2253.776736974716
D4:22:CD:00:05:5D,157.9998016357422,-68.45404815673828,-67.3530044555664,-4.294093132019043,16.437183380126953,-6.0498199462890625,2253.8066041469574
D4:22:CD:00:05:6B,32.076820373535156,66.29033660888672,-105.30616760253906,2.754378318786621,0.5166707038879395,-7.608199119567871,2253.8066041469574
D4:22:CD:00:49:AA,-159.4697723388672,-82.18319702148438,94.26998138427734,-0.8599889278411865,-0.5816212892532349,-9.208139419555664,2253.8066041469574
D4:22:CD:00:05:6E,36.18546676635742,-68.01641845703125,177.1546630859375,7.286493301391602,-8.651481628417969,-7.868847846984863,2253.8066041469574
D4:22:CD:00:05:5E,-40.23653030395508,-59.4382209777832,-122.13965606689453,-8.587730407714844,-15.40414047241211,-14.955862045288086,2253.8066041469574
D4:22:CD:00:05:5D,159.21923828125,-65.64469909667969,-66.01154327392578,7.980709075927734,-0.9943909645080566,-2.8695569038391113,2253.8366215229034
D4:22:CD:00:05:6B,0.27473926544189453,64.50509643554688,-135.77403259277344,-0.17459601163864136,-0.008197799324989319,-15.931465148925781,2253.8366215229034
D4:22:CD:00:49:AA,-150.92344665527344,-82.7557601928711,87.8768081665039,-1.51674222946167,0.5369514226913452,-3.6775031089782715,2253.8366215229034
D4:22:CD:00:05:6E,32.465301513671875,-66.52884674072266,-173.68446350097656,7.885185241699219,-7.032192230224609,-6.1541032791137695,2253.8366215229034
D4:22:CD:00:05:5E,-50.52925109863281,-64.53999328613281,-114.96900939941406,-8.980491638183594,-11.312511444091797,-6.389970779418945,2253.8366215229034
D4:22:CD:00:05:5D,161.68289184570312,-63.84114456176758,-66.46778106689453,3.7473363876342773,-5.01152229309082,5.487262725830078,2253.8666212558746
D4:22:CD:00:05:6B,-28.759836196899414,56.188716888427734,-159.35926818847656,-9.014848709106445,1.854130744934082,-23.123046875,2253.8666212558746
D4:22:CD:00:49:AA,-141.90875244140625,-83.45881652832031,79.62779235839844,0.3437262773513794,3.3286690711975098,5.677921295166016,2253.8666212558746
D4:22:CD:00:05:6E,23.731388092041016,-65.3043441772461,-162.9968719482422,2.63563871383667,-5.564947128295898,-7.761080741882324,2253.8666212558746
D4:22:CD:00:05:5E,-61.83719253540039,-68.38440704345703,-106.67713928222656,-9.999561309814453,-17.167434692382812,5.147263526916504,2253.8666212558746
D4:22:CD:00:05:5D,161.95176696777344,-63.032386779785156,-65.0506362915039,0.27592718601226807,-4.29891300201416,5.246918678283691,2253.896639585495
D4:22:CD:00:05:6B,-41.269588470458984,49.050193786621094,-171.83700561523438,-1.339034080505371,7.140678405761719,-7.782264709472656,2253.896639585495
D4:22:CD:00:49:AA,-141.70835876464844,-83.3164291381836,77.87337493896484,0.08424381911754608,-1.892472505569458,9.747722625732422,2253.896639585495
D4:22:CD:00:05:6E,10.089203834533691,-65.25993347167969,-146.28170776367188,0.9854713678359985,-7.7952070236206055,-0.08519744873046875,2253.896639585495
D4:22:CD:00:05:5E,-69.79622650146484,-69.78374481201172,-101.01129913330078,7.092860221862793,-2.159496307373047,3.2190027236938477,2253.896639585495
D4:22:CD:00:05:5D,160.16726684570312,-62.183963775634766,-61.66068649291992,-0.9863362312316895,-4.932948112487793,6.16722297668457,2253.9563670158386
D4:22:CD:00:05:6B,-48.2401237487793,47.97903823852539,-166.66549682617188,1.060624122619629,5.502983093261719,-2.960845470428467,2253.9563670158386
D4:22:CD:00:49:AA,-133.34034729003906,-84.00090026855469,67.66085052490234,-5.996034622192383,-2.1087522506713867,4.330606460571289,2253.9563670158386
D4:22:CD:00:05:6E,-9.235742568969727,-63.968685150146484,-123.20890808105469,2.7699413299560547,-14.683916091918945,10.518842697143555,2253.9563670158386
D4:22:CD:00:05:5E,-73.48123168945312,-71.64505004882812,-100.18544006347656,0.4005041718482971,2.722017765045166,16.390968322753906,2253.9563670158386
D4:22:CD:00:05:5D,156.223388671875,-60.87828826904297,-57.545833587646484,-0.8994921445846558,-3.2068657875061035,6.960966110229492,2253.959366083145
D4:22:CD:00:05:6B,-41.26858901977539,48.185298919677734,-148.08151245117188,-18.620574951171875,5.133923530578613,-5.364574432373047,2253.959366083145
D4:22:CD:00:49:AA,-125.86823272705078,-84.27142333984375,58.475948333740234,-4.161319732666016,-0.7038203477859497,1.6903076171875,2253.959366083145
D4:22:CD:00:05:6E,-29.703161239624023,-60.65705871582031,-103.9956283569336,10.37590217590332,-15.431259155273438,5.499364852905273,2253.959366083145
D4:22:CD:00:05:5E,-79.8043212890625,-74.262939453125,-97.774658203125,-0.6968778371810913,-3.4600400924682617,7.115499496459961,2253.959366083145
D4:22:CD:00:05:5D,151.05636596679688,-59.559749603271484,-53.67520523071289,0.4098758101463318,-1.2700221538543701,4.437338829040527,2253.986366033554
D4:22:CD:00:05:6B,-25.79570960998535,41.67383575439453,-126.62628173828125,-10.689125061035156,2.3453383445739746,-14.333179473876953,2253.986366033554
D4:22:CD:00:49:AA,-127.19557189941406,-84.1342544555664,57.894493103027344,1.122663974761963,-0.7719686031341553,1.2257041931152344,2253.986366033554
D4:22:CD:00:05:6E,-54.0247917175293,-58.84395217895508,-93.06916809082031,8.44094467163086,-14.65803337097168,-1.6689271926879883,2253.986366033554
D4:22:CD:00:05:5E,-78.3582763671875,-77.171142578125,-99.58184051513672,-3.4554319381713867,-3.8373961448669434,-3.6480884552001953,2253.986366033554
D4:22:CD:00:05:5D,145.24037170410156,-58.73524856567383,-50.030487060546875,3.2042717933654785,-2.6704087257385254,3.974287986755371,2254.045909881592
D4:22:CD:00:05:6B,-18.637495040893555,30.310569763183594,-111.78683471679688,-4.929632186889648,3.06180477142334,-3.603722095489502,2254.045909881592
D4:22:CD:00:49:AA,-135.36764526367188,-83.30493927001953,62.946014404296875,3.247528076171875,-1.439096450805664,-0.4239664077758789,2254.045909881592
D4:22:CD:00:05:6E,-80.41375732421875,-60.73683547973633,-87.05184936523438,0.03692115843296051,-5.546792984008789,2.5710601806640625,2254.045909881592
D4:22:CD:00:05:5E,-68.57341003417969,-79.1264419555664,-108.79480743408203,-2.8500471115112305,-6.342626571655273,-0.6851949691772461,2254.045909881592
D4:22:CD:00:05:5D,135.50048828125,-59.20419692993164,-47.21382141113281,9.279232025146484,1.1653473377227783,1.193044662475586,2254.0769102573395
D4:22:CD:00:05:6B,-15.870622634887695,17.255748748779297,-101.11809539794922,4.236300468444824,6.487257957458496,-8.159265518188477,2254.0769102573395
D4:22:CD:00:49:AA,-143.10531616210938,-80.87760162353516,66.94515991210938,6.9345903396606445,-1.8130125999450684,-0.23222732543945312,2254.0769102573395
D4:22:CD:00:05:6E,-98.05537414550781,-64.00982666015625,-82.6706771850586,0.2959445118904114,3.359426975250244,5.470848083496094,2254.0769102573395
D4:22:CD:00:05:5E,-56.34833908081055,-79.70988464355469,-119.96707153320312,-1.5619406700134277,-3.5182600021362305,-0.464508056640625,2254.0769102573395
D4:22:CD:00:05:5D,128.58770751953125,-58.2032585144043,-51.68288803100586,11.720115661621094,16.670230865478516,2.948641777038574,2254.1069252490997
D4:22:CD:00:05:6B,-21.065168380737305,3.5319716930389404,-89.80736541748047,-3.3353233337402344,3.364516258239746,-4.106085777282715,2254.1069252490997
D4:22:CD:00:49:AA,-145.40921020507812,-78.91641998291016,67.62504577636719,6.228769302368164,-1.9030165672302246,0.23051738739013672,2254.1069252490997
D4:22:CD:00:05:6E,-102.36048126220703,-66.10449981689453,-81.95215606689453,-0.626505970954895,2.9264626502990723,-1.6894969940185547,2254.1069252490997
D4:22:CD:00:05:5E,-49.16782760620117,-80.03653717041016,-126.3255386352539,-2.3163557052612305,-2.289032459259033,-0.21388626098632812,2254.1069252490997
D4:22:CD:00:05:5D,129.5739288330078,-54.26091003417969,-63.59575653076172,15.485530853271484,12.724599838256836,3.4154319763183594,2254.1364591121674
D4:22:CD:00:05:6B,-21.03717803955078,-9.095211029052734,-78.13268280029297,-1.0546627044677734,-3.1800246238708496,-0.1993389129638672,2254.1364591121674
D4:22:CD:00:49:AA,-144.2349090576172,-78.72230529785156,66.6155776977539,-0.101458340883255,2.1339821815490723,2.7850894927978516,2254.1364591121674
D4:22:CD:00:05:6E,-97.64749908447266,-66.18258666992188,-85.96366119384766,-3.671051502227783,-1.1252307891845703,-1.046187400817871,2254.1364591121674
D4:22:CD:00:05:5E,-44.598793029785156,-80.20752716064453,-129.90052795410156,-3.0645999908447266,-2.737926483154297,-1.4907770156860352,2254.1364591121674
D4:22:CD:00:05:5D,136.89016723632812,-47.54685974121094,-77.32373046875,11.047018051147461,4.198943138122559,-0.38955020904541016,2254.1664593219757
D4:22:CD:00:05:6B,-24.81391143798828,-18.971208572387695,-66.946533203125,13.203651428222656,2.911369800567627,-5.6503143310546875,2254.1664593219757
D4:22:CD:00:49:AA,-146.33982849121094,-78.33709716796875,68.05187225341797,3.457080841064453,3.207371234893799,-0.020035743713378906,2254.1664593219757
D4:22:CD:00:05:6E,-86.962646484375,-65.07630920410156,-92.18209075927734,-7.621189117431641,-7.209961891174316,-2.4031543731689453,2254.1664593219757
D4:22:CD:00:05:5E,-40.692378997802734,-80.08123016357422,-131.19094848632812,-1.7523622512817383,-1.4915008544921875,-0.024939537048339844,2254.1664593219757
D4:22:CD:00:05:5D,145.69619750976562,-39.69365692138672,-89.51740264892578,3.821669101715088,-0.5120270252227783,-4.057795524597168,2254.1964733600616
D4:22:CD:00:05:6B,-39.65472412109375,-24.682832717895508,-57.718727111816406,1.854480504989624,-5.429094314575195,10.809925079345703,2254.1964733600616
D4:22:CD:00:49:AA,-150.09385681152344,-78.27072143554688,71.05857849121094,6.498526573181152,0.6005191802978516,-1.082183837890625,2254.1964733600616
D4:22:CD:00:05:6E,-79.92610931396484,-64.28962707519531,-95.76423645019531,-7.080324172973633,-6.673111915588379,-4.59857177734375,2254.1964733600616
D4:22:CD:00:05:5E,-43.32944869995117,-80.69874572753906,-126.31494903564453,0.09057682752609253,-6.530230522155762,-3.9367260932922363,2254.1964733600616
D4:22:CD:00:05:5D,154.14720153808594,-32.11053466796875,-99.44890594482422,0.2749077081680298,-5.732667922973633,-8.48836898803711,2254.2259929180145
D4:22:CD:00:05:6B,-46.370887756347656,-26.095815658569336,-52.83789825439453,2.8360605239868164,0.8776201009750366,4.391815185546875,2254.2259929180145
D4:22:CD:00:49:AA,-155.80230712890625,-78.3337173461914,76.17340087890625,1.7178804874420166,1.4080853462219238,-1.9639053344726562,2254.2259929180145
D4:22:CD:00:05:6E,-77.20110321044922,-64.78604125976562,-96.6384048461914,-2.8584961891174316,-5.32022762298584,-5.169517517089844,2254.2259929180145
D4:22:CD:00:05:5E,-59.375553131103516,-81.77734375,-110.4648666381836,-1.7430522441864014,-5.416731834411621,-2.370332717895508,2254.2259929180145
D4:22:CD:00:05:5D,162.902587890625,-26.598386764526367,-107.10673522949219,-6.101568222045898,-4.462323188781738,-10.721046447753906,2254.256992340088
D4:22:CD:00:05:6B,-52.611473083496094,-27.097320556640625,-50.87862777709961,-0.858439564704895,3.1829309463500977,-0.5427360534667969,2254.256992340088
D4:22:CD:00:49:AA,-162.94114685058594,-78.23738098144531,81.77045440673828,1.8014445304870605,-0.7053523063659668,-4.345757484436035,2254.256992340088
D4:22:CD:00:05:6E,-76.68707275390625,-66.45659637451172,-96.82589721679688,-0.8571310043334961,-5.7250213623046875,-5.710272789001465,2254.256992340088
D4:22:CD:00:05:5E,-85.67079162597656,-81.33556365966797,-84.93182373046875,-1.192875623703003,-4.57419490814209,-2.44921875,2254.256992340088
D4:22:CD:00:05:5D,168.7963409423828,-24.270809173583984,-113.87045288085938,-6.230341911315918,-0.8914062976837158,-10.258211135864258,2254.2869834899902
D4:22:CD:00:05:6B,-56.77105712890625,-31.95847511291504,-51.67045593261719,-1.567375898361206,0.5184334516525269,1.1575374603271484,2254.2869834899902
D4:22:CD:00:49:AA,-167.81253051757812,-77.66752624511719,85.45772552490234,0.3378933072090149,-0.6218544244766235,-5.933423042297363,2254.2869834899902
D4:22:CD:00:05:6E,-76.64228820800781,-68.5246353149414,-97.33170318603516,0.8473938703536987,-4.8477983474731445,-5.100949287414551,2254.2869834899902
D4:22:CD:00:05:5E,-114.01585388183594,-78.02704620361328,-58.991661071777344,-2.333238124847412,-2.000453472137451,-1.9257102012634277,2254.2869834899902
D4:22:CD:00:05:5D,169.9864501953125,-25.180469512939453,-120.27609252929688,-10.665227890014648,-2.639277935028076,-10.210660934448242,2254.34654045105
D4:22:CD:00:05:6B,-56.59575653076172,-41.728843688964844,-55.033111572265625,1.002018690109253,-4.059894561767578,-2.328669548034668,2254.34654045105
D4:22:CD:00:49:AA,-168.78933715820312,-77.3203125,86.89240264892578,-1.3363056182861328,2.101987838745117,-4.076517105102539,2254.34654045105
D4:22:CD:00:05:6E,-75.49554443359375,-70.27871704101562,-99.71461486816406,0.6750340461730957,-6.035752296447754,-6.161012649536133,2254.34654045105
D4:22:CD:00:05:5E,-130.754638671875,-72.88483428955078,-44.724334716796875,-1.9470977783203125,-3.8504037857055664,1.216054916381836,2254.34654045105
D4:22:CD:00:05:5D,167.2650604248047,-29.38393211364746,-125.83970642089844,-6.721503257751465,0.4349856972694397,2.096609115600586,2254.3765404224396
D4:22:CD:00:05:6B,-53.14816665649414,-55.99939727783203,-62.07093048095703,6.90764045715332,-7.528356552124023,17.460468292236328,2254.3765404224396
D4:22:CD:00:49:AA,-167.8824462890625,-76.88339233398438,86.72258758544922,2.353245258331299,1.843571424484253,-2.0631537437438965,2254.3765404224396
D4:22:CD:00:05:6E,-74.97949981689453,-71.72248840332031,-103.55012512207031,0.7270417213439941,-4.432257652282715,-5.6670427322387695,2254.3765404224396
D4:22:CD:00:05:5E,-136.92108154296875,-69.95011138916016,-39.33110427856445,-3.4805374145507812,-4.45565128326416,-0.10234642028808594,2254.3765404224396
D4:22:CD:00:05:5D,165.94699096679688,-28.346338272094727,-127.77139282226562,-14.412052154541016,-5.074094772338867,12.386617660522461,2254.405556201935
D4:22:CD:00:05:6B,-33.45013427734375,-67.23974609375,-82.3858871459961,3.8489532470703125,-13.038503646850586,29.98409652709961,2254.405556201935
D4:22:CD:00:49:AA,-166.45480346679688,-76.37821960449219,84.32542419433594,6.380801200866699,0.38619792461395264,-0.024465560913085938,2254.405556201935
D4:22:CD:00:05:6E,-70.61927032470703,-72.35160827636719,-111.05778503417969,2.8783111572265625,-4.8991193771362305,-0.6048030853271484,2254.405556201935
D4:22:CD:00:05:5E,-140.5858917236328,-68.52782440185547,-36.12010192871094,-3.3141160011291504,-3.0322861671447754,0.6331348419189453,2254.405556201935
D4:22:CD:00:05:5D,170.2908172607422,-27.43318748474121,-124.42453002929688,-22.088462829589844,-6.699316024780273,3.4318389892578125,2254.4363446235657
D4:22:CD:00:05:6B,-36.11846923828125,-66.23485565185547,-83.48249053955078,13.675771713256836,-12.193601608276367,2.527311325073242,2254.4363446235657
D4:22:CD:00:49:AA,-168.03912353515625,-76.09391784667969,83.79844665527344,0.8846559524536133,-2.4749960899353027,3.309016227722168,2254.4363446235657
D4:22:CD:00:05:6E,-45.551029205322266,-72.40090942382812,-130.70010375976562,2.476461887359619,-16.680450439453125,10.965353012084961,2254.4363446235657
D4:22:CD:00:05:5E,-143.09503173828125,-68.71330261230469,-34.123680114746094,-4.173253059387207,-3.0773091316223145,0.9761343002319336,2254.4363446235657
D4:22:CD:00:05:5D,169.66151428222656,-24.192716598510742,-118.46077728271484,-9.459501266479492,-17.639591217041016,13.548074722290039,2254.4663445949554
D4:22:CD:00:05:6B,-60.71595001220703,-53.75944900512695,-67.2145004272461,-0.9219398498535156,-14.480697631835938,19.461971282958984,2254.4663445949554
D4:22:CD:00:49:AA,-170.1190185546875,-75.45758819580078,84.26713562011719,-5.672234535217285,-0.37110793590545654,6.526073455810547,2254.4663445949554
D4:22:CD:00:05:6E,7.801607131958008,-69.35581970214844,-178.6475372314453,15.632980346679688,-31.407848358154297,21.69009017944336,2254.4663445949554
D4:22:CD:00:05:5E,-143.29953002929688,-70.65967559814453,-34.355316162109375,-4.41844367980957,-3.2617640495300293,1.1469345092773438,2254.4663445949554
D4:22:CD:00:05:5D,169.38827514648438,-16.879886627197266,-114.23612213134766,-11.955390930175781,-12.636667251586914,21.190433502197266,2254.4963607788086
D4:22:CD:00:05:6B,-63.13460922241211,-39.83702850341797,-63.820220947265625,4.785414695739746,-17.906726837158203,9.260059356689453,2254.4963607788086
D4:22:CD:00:49:AA,-170.1334228515625,-74.64141082763672,83.95977020263672,3.2573184967041016,-0.35032814741134644,7.170177459716797,2254.4963607788086
D4:22:CD:00:05:6E,30.46344566345215,-53.98259353637695,153.8631591796875,9.972946166992188,-15.746280670166016,25.10470199584961,2254.4963607788086
D4:22:CD:00:05:5E,-139.61289978027344,-74.08243560791016,-39.23344802856445,-5.5913591384887695,-5.314288139343262,0.8049726486206055,2254.4963607788086
D4:22:CD:00:05:5D,164.40492248535156,-8.539658546447754,-113.00685119628906,-5.906764030456543,-9.925138473510742,8.405372619628906,2254.5268952846527
D4:22:CD:00:05:6B,-64.11666107177734,-30.79305076599121,-64.87702178955078,-0.36476564407348633,-9.07828140258789,-1.673919677734375,2254.5268952846527
D4:22:CD:00:49:AA,-173.59664916992188,-75.65132904052734,88.79804992675781,3.931304931640625,0.6806659698486328,8.588672637939453,2254.5268952846527
D4:22:CD:00:05:6E,36.40072250366211,-32.69602966308594,142.9664764404297,6.906569480895996,-5.6231489181518555,20.914661407470703,2254.5268952846527
D4:22:CD:00:05:5E,-124.61942291259766,-78.37254333496094,-56.76731872558594,-5.024593353271484,-6.403817176818848,4.2781782150268555,2254.5268952846527
D4:22:CD:00:05:5D,161.9980010986328,-2.8372719287872314,-113.25961303710938,-3.7716269493103027,-4.031691551208496,-4.65731143951416,2254.556895494461
D4:22:CD:00:05:6B,-69.0833511352539,-28.038761138916016,-66.76067352294922,-4.4759321212768555,1.7726802825927734,-0.4077129364013672,2254.556895494461
D4:22:CD:00:49:AA,-177.76837158203125,-75.69696044921875,93.35601043701172,6.841553688049316,2.946286201477051,13.320928573608398,2254.556895494461
D4:22:CD:00:05:6E,31.43565559387207,-10.867083549499512,135.81468200683594,-2.707313060760498,0.2502378225326538,13.326271057128906,2254.556895494461
D4:22:CD:00:05:5E,-70.11073303222656,-80.5201644897461,-112.48535919189453,6.048005104064941,-5.295358657836914,10.138738632202148,2254.556895494461
D4:22:CD:00:05:5D,162.04896545410156,-2.4357259273529053,-113.86064910888672,-3.5351524353027344,1.5780961513519287,-14.138671875,2254.586894750595
D4:22:CD:00:05:6B,-72.01660919189453,-30.582435607910156,-68.77376556396484,0.15655815601348877,3.163137435913086,0.856781005859375,2254.586894750595
D4:22:CD:00:49:AA,176.662109375,-76.60600280761719,98.09082794189453,5.929477691650391,2.053374767303467,6.449974060058594,2254.586894750595
D4:22:CD:00:05:6E,21.0758056640625,5.7916951179504395,129.3815460205078,-3.537355899810791,1.9309046268463135,2.2141590118408203,2254.586894750595
D4:22:CD:00:05:5E,-48.49348831176758,-79.95425415039062,-128.71405029296875,-17.97657012939453,0.2131725549697876,-7.212141990661621,2254.586894750595
D4:22:CD:00:05:5D,162.3068389892578,-8.557628631591797,-114.47100067138672,-5.060132026672363,0.665489673614502,-21.128143310546875,2254.646448612213
D4:22:CD:00:05:6B,-73.62503051757812,-35.45304489135742,-71.25115203857422,0.4460330605506897,1.1249022483825684,-1.9559426307678223,2254.646448612213
D4:22:CD:00:49:AA,169.75039672851562,-77.17288208007812,103.61173248291016,1.5014657974243164,1.7794203758239746,2.029963493347168,2254.646448612213
D4:22:CD:00:05:6E,14.729415893554688,16.282270431518555,123.8985366821289,-3.7437639236450195,-2.502107620239258,-0.39237308502197266,2254.646448612213
D4:22:CD:00:05:5E,-80.22175598144531,-81.83975982666016,-91.31036376953125,-12.036802291870117,-7.159206390380859,-8.912153244018555,2254.646448612213
D4:22:CD:00:05:5D,160.97457885742188,-20.478580474853516,-114.49320983886719,-5.978794097900391,-3.915966033935547,-21.105731964111328,2254.67644739151
D4:22:CD:00:05:6B,-77.18315124511719,-40.08197021484375,-73.97178649902344,1.2241127490997314,1.8947527408599854,-3.605874538421631,2254.67644739151
D4:22:CD:00:49:AA,163.2574462890625,-77.44450378417969,108.23448181152344,0.9617081880569458,-1.3447191715240479,-6.28253173828125,2254.67644739151
D4:22:CD:00:05:6E,13.421651840209961,23.522354125976562,119.09168243408203,-8.397979736328125,-5.226189613342285,-3.6204118728637695,2254.67644739151
D4:22:CD:00:05:5E,-102.91063690185547,-81.83333587646484,-68.01431274414062,18.903247833251953,7.419852256774902,-20.177715301513672,2254.67644739151
D4:22:CD:00:05:5D,159.21826171875,-35.99732208251953,-113.46871948242188,-6.617362976074219,-6.670977592468262,-15.76070785522461,2254.706462621689
D4:22:CD:00:05:6B,-81.75949096679688,-43.74644088745117,-76.72065734863281,1.510298252105713,4.637991905212402,-4.61219596862793,2254.706462621689
D4:22:CD:00:49:AA,160.9735107421875,-77.6108627319336,110.09856414794922,-2.993213176727295,-1.4373681545257568,-8.09393310546875,2254.706462621689
D4:22:CD:00:05:6E,18.81746482849121,30.128862380981445,116.83008575439453,3.5871357917785645,-0.8073525428771973,-10.124074935913086,2254.706462621689
D4:22:CD:00:05:5E,-86.53807830810547,-82.32828521728516,-84.11287689208984,-18.361682891845703,-3.9232263565063477,7.826328277587891,2254.706462621689
D4:22:CD:00:05:5D,156.85452270507812,-54.069061279296875,-111.36061096191406,-4.11857795715332,-6.211136817932129,-2.849128246307373,2254.736997127533
D4:22:CD:00:05:6B,-83.92337036132812,-46.410850524902344,-79.23423767089844,1.4644155502319336,6.442005157470703,-5.975953102111816,2254.736997127533
D4:22:CD:00:49:AA,163.2441864013672,-78.92804718017578,109.05594635009766,-2.232372283935547,5.0387725830078125,-10.010335922241211,2254.736997127533
D4:22:CD:00:05:6E,32.182926177978516,35.44564437866211,119.12738037109375,-4.15589714050293,-4.454719543457031,-16.05810546875,2254.736997127533
D4:22:CD:00:05:5E,-93.85631561279297,-81.89920806884766,-79.9191665649414,3.1644859313964844,-1.919546127319336,-3.349562644958496,2254.736997127533
D4:22:CD:00:05:5D,150.96766662597656,-74.33451080322266,-106.2573471069336,1.1038062572479248,-3.2007908821105957,15.478487014770508,2254.7659969329834
D4:22:CD:00:05:6B,-82.33832550048828,-48.41889572143555,-81.44473266601562,2.1523985862731934,4.896799087524414,-7.047128677368164,2254.7659969329834
D4:22:CD:00:49:AA,160.15237426757812,-81.3172378540039,111.19969177246094,5.444684982299805,4.3433122634887695,-9.869550704956055,2254.7659969329834
D4:22:CD:00:05:6E,41.315765380859375,37.662105560302734,125.98614501953125,-9.078123092651367,-4.120978355407715,-15.090286254882812,2254.7659969329834
D4:22:CD:00:05:5E,-105.34379577636719,-80.8570327758789,-71.5355224609375,-1.8974237442016602,-3.0620312690734863,-2.4420881271362305,2254.7659969329834
D4:22:CD:00:05:5D,13.608834266662598,-84.94476318359375,33.31586837768555,10.019123077392578,17.162940979003906,25.033390045166016,2254.7960844039917
D4:22:CD:00:05:6B,-79.26380157470703,-49.451541900634766,-83.76948547363281,2.802731513977051,2.4953160285949707,-7.46170711517334,2254.7960844039917
D4:22:CD:00:49:AA,150.1468505859375,-83.73236846923828,119.53052520751953,1.6783254146575928,1.1868963241577148,-10.887723922729492,2254.7960844039917
D4:22:CD:00:05:6E,43.51472091674805,35.69892120361328,137.1471405029297,-13.851297378540039,-1.8866469860076904,-16.684741973876953,2254.7960844039917
D4:22:CD:00:05:5E,-115.32624053955078,-79.2439956665039,-65.01429748535156,-0.03555712103843689,-5.253415107727051,-1.5954790115356445,2254.7960844039917
D4:22:CD:00:05:5D,-0.36771124601364136,-71.40313720703125,47.13853454589844,12.059053421020508,19.334205627441406,-11.218935012817383,2254.826693534851
D4:22:CD:00:05:6B,-76.14391326904297,-49.969482421875,-87.15542602539062,5.960574150085449,3.0464630126953125,-5.580167770385742,2254.826693534851
D4:22:CD:00:49:AA,156.3082733154297,-82.96980285644531,112.94718933105469,-3.797135353088379,-3.5769662857055664,-6.560491561889648,2254.826693534851
D4:22:CD:00:05:6E,37.57496643066406,31.731420516967773,148.65138244628906,-23.47510528564453,1.5931768417358398,-17.156383514404297,2254.826693534851
D4:22:CD:00:05:5E,-117.85711669921875,-78.06002807617188,-63.37179946899414,0.44596296548843384,-4.552638053894043,3.370450019836426,2254.826693534851
D4:22:CD:00:05:5D,0.33650174736976624,-69.29225158691406,42.134830474853516,14.053022384643555,9.223546981811523,-13.868457794189453,2254.8567802906036
D4:22:CD:00:05:6B,-74.53677368164062,-50.398895263671875,-89.84326171875,-0.38486599922180176,3.9311013221740723,-7.077086448669434,2254.8567802906036
D4:22:CD:00:49:AA,173.86566162109375,-80.65367889404297,96.79659271240234,0.9233688116073608,-3.8973207473754883,1.9391326904296875,2254.8567802906036
D4:22:CD:00:05:6E,27.275800704956055,32.73185729980469,151.44143676757812,-0.7931671142578125,1.8960471153259277,-16.42041778564453,2254.8567802906036
D4:22:CD:00:05:5E,-113.77999114990234,-77.21208953857422,-66.84821319580078,-2.0381383895874023,-5.3564558029174805,5.283424377441406,2254.8567802906036
D4:22:CD:00:05:5D,14.96276569366455,-73.78919219970703,27.76932716369629,9.248458862304688,4.11729621887207,-4.082616806030273,2254.8858864307404
D4:22:CD:00:05:6B,-73.65593719482422,-51.921875,-88.03976440429688,-1.016648769378662,3.890908718109131,-4.467813491821289,2254.8858864307404
D4:22:CD:00:49:AA,-176.8257293701172,-80.48336791992188,89.18928527832031,7.221107482910156,1.6837115287780762,5.319619178771973,2254.8858864307404
D4:22:CD:00:05:6E,29.370193481445312,35.70875549316406,141.30484008789062,5.557990074157715,-2.679973602294922,-8.889846801757812,2254.8858864307404
D4:22:CD:00:05:5E,-105.493408203125,-76.2183609008789,-74.59587097167969,-0.9752421379089355,-4.662664413452148,6.652339935302734,2254.8858864307404
D4:22:CD:00:05:5D,57.96187210083008,-77.68275451660156,-7.0683465003967285,13.112020492553711,-0.17897695302963257,1.0786571502685547,2254.946433067322
D4:22:CD:00:05:6B,-74.86103057861328,-55.42494201660156,-81.85065460205078,1.3781909942626953,3.1654176712036133,2.933095932006836,2254.946433067322
D4:22:CD:00:49:AA,-171.13705444335938,-80.49722290039062,83.88015747070312,3.640496253967285,0.6686598062515259,2.02237606048584,2254.946433067322
D4:22:CD:00:05:6E,28.454784393310547,37.8203239440918,126.62773132324219,-2.7479753494262695,-0.24380746483802795,-13.191814422607422,2254.946433067322
D4:22:CD:00:05:5E,-94.40814971923828,-74.75536346435547,-82.98216247558594,2.2520971298217773,-4.2746477127075195,4.689192771911621,2254.946433067322
D4:22:CD:00:05:5D,107.13607788085938,-75.99372100830078,-46.20986557006836,-6.491451263427734,-5.6315202713012695,7.642265319824219,2254.9764337539673
D4:22:CD:00:05:6B,-75.19383239746094,-58.17130661010742,-76.06999969482422,7.015626907348633,5.280513763427734,19.320220947265625,2254.9764337539673
D4:22:CD:00:49:AA,-163.65127563476562,-80.05323791503906,76.95787811279297,3.760025978088379,0.37165510654449463,8.188455581665039,2254.9764337539673
D4:22:CD:00:05:6E,24.5494327545166,37.44151306152344,107.05858612060547,-10.231231689453125,0.9249513149261475,-13.737613677978516,2254.9764337539673
D4:22:CD:00:05:5E,-82.96308898925781,-72.72261810302734,-87.49930572509766,6.088495254516602,-8.837810516357422,3.2647266387939453,2254.9764337539673
D4:22:CD:00:05:5D,119.1729507446289,-74.17030334472656,-59.11617660522461,-0.1394631266593933,-14.079984664916992,-0.8992528915405273,2255.0065462589264
D4:22:CD:00:05:6B,-74.06721496582031,-60.60573196411133,-70.2457046508789,-2.0753636360168457,0.24336087703704834,9.939992904663086,2255.0065462589264
D4:22:CD:00:49:AA,-154.05435180664062,-80.97774505615234,69.50040435791016,4.023988723754883,-2.700258255004883,6.578556060791016,2255.0065462589264
D4:22:CD:00:05:6E,18.455656051635742,33.63045120239258,86.959228515625,-5.521089553833008,6.97928524017334,-10.895195007324219,2255.0065462589264
D4:22:CD:00:05:5E,-75.4512939453125,-71.35961151123047,-87.16441345214844,-3.663640022277832,-16.319377899169922,-2.0302071571350098,2255.0065462589264
D4:22:CD:00:05:5D,130.5068817138672,-74.46752166748047,-69.49969482421875,2.4890389442443848,-3.302948474884033,5.3751115798950195,2255.036185503006
D4:22:CD:00:05:6B,-71.4076919555664,-62.83875274658203,-61.33645248413086,0.03593039512634277,-8.756816864013672,2.2096376419067383,2255.036185503006
D4:22:CD:00:49:AA,-145.28013610839844,-81.3132553100586,63.25648498535156,-0.115655317902565,-2.6475582122802734,-0.8185443878173828,2255.036185503006
D4:22:CD:00:05:6E,19.139406204223633,29.141374588012695,70.7401351928711,2.9777731895446777,1.8153254985809326,-7.290218353271484,2255.036185503006
D4:22:CD:00:05:5E,-83.43434143066406,-72.11475372314453,-75.17918395996094,-15.989818572998047,-18.91494369506836,-2.9686059951782227,2255.036185503006
D4:22:CD:00:05:5D,142.57159423828125,-74.38440704345703,-77.34703826904297,-2.5220961570739746,-1.237720251083374,2.6980342864990234,2255.0661866664886
D4:22:CD:00:05:6B,-74.22607421875,-61.92707061767578,-52.710182189941406,-0.7895917892456055,-10.185689926147461,-4.727118492126465,2255.0661866664886
D4:22:CD:00:49:AA,-144.37582397460938,-80.55127716064453,66.50655364990234,-4.157717704772949,-2.5997743606567383,-5.3414459228515625,2255.0661866664886
D4:22:CD:00:05:6E,26.817312240600586,25.938478469848633,59.409217834472656,-0.4433369040489197,-5.443194389343262,-5.583030700683594,2255.0661866664886
D4:22:CD:00:05:5E,-100.06473541259766,-72.02165985107422,-54.71250534057617,-14.98210334777832,-8.471868515014648,-3.274329662322998,2255.0661866664886
D4:22:CD:00:05:5D,152.33685302734375,-72.80809783935547,-81.71669006347656,-6.987366676330566,1.9722492694854736,3.2789201736450195,2255.0961985588074
D4:22:CD:00:05:6B,-78.19145202636719,-59.846126556396484,-46.530662536621094,0.37544965744018555,-6.995648384094238,-8.499078750610352,2255.0961985588074
D4:22:CD:00:49:AA,-154.97891235351562,-78.13912963867188,82.24463653564453,-7.284127235412598,1.102052927017212,-9.018718719482422,2255.0961985588074
D4:22:CD:00:05:6E,36.99732971191406,22.55132484436035,52.5001106262207,0.3036659359931946,-9.629362106323242,-4.96705436706543,2255.0961985588074
D4:22:CD:00:05:5E,-115.44255065917969,-70.02922821044922,-34.21933364868164,-9.903732299804688,-8.870986938476562,-10.190372467041016,2255.0961985588074
D4:22:CD:00:05:5D,160.7373504638672,-70.87797546386719,-86.06396484375,-1.190605640411377,-0.11922337114810944,1.044154167175293,2255.126733779907
D4:22:CD:00:05:6B,-83.14221954345703,-59.24689865112305,-42.86091232299805,-1.961625337600708,-2.167118549346924,-1.7084102630615234,2255.126733779907
D4:22:CD:00:49:AA,-161.1125030517578,-75.61260986328125,92.40403747558594,-4.23088264465332,1.5134329795837402,0.37878894805908203,2255.126733779907
D4:22:CD:00:05:6E,52.89900207519531,18.57731819152832,50.32122802734375,9.542367935180664,-16.034805297851562,-8.284311294555664,2255.126733779907
D4:22:CD:00:05:5E,-130.38430786132812,-66.30728149414062,-15.317925453186035,-7.390625953674316,-4.133626937866211,-15.150775909423828,2255.126733779907
D4:22:CD:00:05:5D,166.80516052246094,-69.61369323730469,-91.228759765625,2.2028608322143555,0.5136117935180664,0.5589370727539062,2255.156734228134
D4:22:CD:00:05:6B,-84.9059066772461,-60.33401107788086,-44.0938835144043,-2.680727958679199,4.070100784301758,6.256664276123047,2255.156734228134
D4:22:CD:00:49:AA,-162.0306854248047,-74.0556411743164,95.7926025390625,3.7621145248413086,1.009436845779419,2.5490589141845703,2255.156734228134
D4:22:CD:00:05:6E,75.6534194946289,11.274571418762207,53.27336883544922,-4.6906938552856445,-1.1219751834869385,-0.3167877197265625,2255.156734228134
D4:22:CD:00:05:5E,-143.31028747558594,-61.43417739868164,-0.12144311517477036,-3.838718891143799,-0.0010358707513660192,-16.211814880371094,2255.156734228134
D4:22:CD:00:05:5D,170.9171142578125,-68.88013458251953,-94.79956817626953,0.320586621761322,0.35460329055786133,0.6649093627929688,2255.1867253780365
D4:22:CD:00:05:6B,-86.18730163574219,-60.07352828979492,-50.125816345214844,-1.8549821376800537,2.8188390731811523,7.110937118530273,2255.1867253780365
D4:22:CD:00:49:AA,-168.61912536621094,-71.34373474121094,103.16534423828125,1.1447515487670898,3.883312225341797,1.6427993774414062,2255.1867253780365
D4:22:CD:00:05:6E,85.47875213623047,0.9905173778533936,53.12421417236328,-1.8926079273223877,-8.04966926574707,9.727277755737305,2255.1867253780365
D4:22:CD:00:05:5E,-154.7943572998047,-56.584678649902344,10.544540405273438,-3.794583797454834,1.5499913692474365,-13.089229583740234,2255.1867253780365
D4:22:CD:00:05:5D,174.63206481933594,-68.62752532958984,-98.24362182617188,-1.255692481994629,0.8424088954925537,0.9070377349853516,2255.246277809143
D4:22:CD:00:05:6B,-86.54879760742188,-59.12778091430664,-57.093536376953125,-4.977534294128418,2.7510013580322266,3.669888496398926,2255.246277809143
D4:22:CD:00:49:AA,-173.80581665039062,-69.99634552001953,107.85545349121094,-3.4286437034606934,1.81290602684021,3.8845863342285156,2255.246277809143
D4:22:CD:00:05:6E,93.98110961914062,-12.006356239318848,49.736270904541016,5.524567604064941,-3.2623705863952637,-2.6610469818115234,2255.246277809143
D4:22:CD:00:05:5E,-163.14291381835938,-53.32039260864258,18.11199951171875,-2.641526222229004,1.8935234546661377,-8.739639282226562,2255.246277809143
D4:22:CD:00:05:5D,178.2571258544922,-68.82626342773438,-102.0400619506836,0.315082848072052,0.553500771522522,0.826258659362793,2255.276435136795
D4:22:CD:00:05:6B,-83.82354736328125,-58.29914093017578,-64.0219497680664,-1.401029109954834,1.4470760822296143,-2.170757293701172,2255.276435136795
D4:22:CD:00:49:AA,-178.84722900390625,-69.35767364501953,111.14098358154297,-0.724284291267395,2.109631061553955,2.0101795196533203,2255.276435136795
D4:22:CD:00:05:6E,105.61286163330078,-24.868026733398438,43.3724250793457,7.457345008850098,-4.140599250793457,13.745309829711914,2255.276435136795
D4:22:CD:00:05:5E,-168.79556274414062,-52.980289459228516,23.742712020874023,0.5265270471572876,3.307581901550293,-6.207797050476074,2255.276435136795
D4:22:CD:00:05:5D,-178.9963836669922,-69.19583892822266,-105.03372192382812,1.1242742538452148,-1.1260838508605957,-0.38776206970214844,2255.306524038315
D4:22:CD:00:05:6B,-79.98567199707031,-57.63566970825195,-72.53673553466797,3.421998977661133,2.8798699378967285,-3.4315786361694336,2255.306524038315
D4:22:CD:00:49:AA,175.13568115234375,-68.96884155273438,115.32630920410156,1.4199388027191162,2.883984088897705,-1.2344274520874023,2255.306524038315
D4:22:CD:00:05:6E,112.54821014404297,-35.48512649536133,34.40674591064453,10.561904907226562,-10.380355834960938,11.10232162475586,2255.306524038315
D4:22:CD:00:05:5E,-171.17184448242188,-57.19580841064453,28.709775924682617,3.5917234420776367,6.647610664367676,-1.0320320129394531,2255.306524038315
D4:22:CD:00:05:5D,-177.33871459960938,-69.29733276367188,-106.5365219116211,0.8005751371383667,-1.4906067848205566,-0.5769929885864258,2255.336698293686
D4:22:CD:00:05:6B,-74.91622161865234,-56.225242614746094,-81.01567840576172,1.0722074508666992,2.8115105628967285,-7.1963653564453125,2255.336698293686
D4:22:CD:00:49:AA,168.08404541015625,-69.23783111572266,119.31845092773438,-0.4543307423591614,0.9010776281356812,-3.5926246643066406,2255.336698293686
D4:22:CD:00:05:6E,116.39685821533203,-46.6639289855957,25.149187088012695,12.74241828918457,-3.9707655906677246,1.2842235565185547,2255.336698293686
D4:22:CD:00:05:5E,-166.20208740234375,-63.22609329223633,33.75907897949219,-42.541282653808594,-33.452903747558594,47.80493927001953,2255.336698293686
D4:22:CD:00:05:5D,-178.1352996826172,-68.3258285522461,-105.4455337524414,1.9269309043884277,-2.466230869293213,-2.3330206871032715,2255.3666982650757
D4:22:CD:00:05:6B,-70.64727020263672,-54.21563720703125,-86.44549560546875,0.7607953548431396,5.2163286209106445,-8.386207580566406,2255.3666982650757
D4:22:CD:00:49:AA,161.8092498779297,-69.20345306396484,121.74307250976562,-1.161370038986206,0.6883202791213989,-4.706557273864746,2255.3666982650757
D4:22:CD:00:05:6E,125.97377014160156,-58.28044891357422,10.64332103729248,3.5756516456604004,-3.2320923805236816,5.439009666442871,2255.3666982650757
D4:22:CD:00:05:5E,-167.66653442382812,-64.62248229980469,34.522891998291016,8.902364730834961,11.314937591552734,-0.7338247299194336,2255.3666982650757
D4:22:CD:00:05:5D,179.6859893798828,-65.68414306640625,-103.10579681396484,-1.845350980758667,-1.7281644344329834,-1.2478837966918945,2255.396712779999
D4:22:CD:00:05:6B,-67.29458618164062,-51.86021041870117,-89.90258026123047,2.3538403511047363,6.824933052062988,-5.141897201538086,2255.396712779999
D4:22:CD:00:49:AA,157.13880920410156,-69.86357116699219,123.51316833496094,-4.116820335388184,-1.3228378295898438,-1.280043601989746,2255.396712779999
D4:22:CD:00:05:6E,131.88314819335938,-67.76365661621094,-13.169530868530273,-0.3270968794822693,-12.938531875610352,14.557546615600586,2255.396712779999
D4:22:CD:00:05:5E,-168.1624755859375,-64.85514068603516,31.777206420898438,16.060592651367188,0.78307044506073,18.303482055664062,2255.396712779999
D4:22:CD:00:05:5D,177.62310791015625,-61.7996826171875,-101.20189666748047,-1.2409119606018066,-0.11292141675949097,0.22046947479248047,2255.426535129547
D4:22:CD:00:05:6B,-63.65986251831055,-48.82683563232422,-94.18743896484375,1.216273546218872,2.3572134971618652,2.6492576599121094,2255.426535129547
D4:22:CD:00:49:AA,151.4713134765625,-72.08256530761719,127.8989028930664,-3.705387592315674,-1.8709650039672852,-1.2727670669555664,2255.426535129547
D4:22:CD:00:05:6E,118.55320739746094,-67.64398956298828,-21.843549728393555,13.435501098632812,1.964662790298462,0.24853897094726562,2255.426535129547
D4:22:CD:00:05:5E,-166.5738983154297,-62.54035568237305,26.23758888244629,10.608665466308594,10.122173309326172,17.387020111083984,2255.426535129547
D4:22:CD:00:05:5D,175.59573364257812,-57.47867965698242,-99.85441589355469,0.52384352684021,0.15588530898094177,-0.041840553283691406,2255.456114292145
D4:22:CD:00:05:6B,-63.835350036621094,-43.68881607055664,-97.54540252685547,0.47008180618286133,2.1650218963623047,8.383604049682617,2255.456114292145
D4:22:CD:00:49:AA,144.3450469970703,-73.32820892333984,134.67860412597656,-4.072426795959473,2.6828317642211914,-1.7493162155151367,2255.456114292145
D4:22:CD:00:05:6E,116.15117645263672,-66.71600341796875,-20.235761642456055,6.491724014282227,-7.042335510253906,-0.4959421157836914,2255.456114292145
D4:22:CD:00:05:5E,-159.2164306640625,-57.84345245361328,22.563854217529297,17.31798553466797,-7.978070259094238,13.343015670776367,2255.456114292145
D4:22:CD:00:05:5D,174.0969696044922,-54.03951644897461,-98.90880584716797,1.176598310470581,1.294754981994629,0.9784202575683594,2255.4861993789673
D4:22:CD:00:05:6B,-72.81712341308594,-34.78983688354492,-96.62818145751953,4.496482849121094,12.206991195678711,22.858631134033203,2255.4861993789673
D4:22:CD:00:49:AA,142.765625,-73.42645263671875,138.6457977294922,-4.282957077026367,-3.6297168731689453,7.670785903930664,2255.4861993789673
D4:22:CD:00:05:6E,111.19822692871094,-66.04186248779297,-11.948664665222168,14.855043411254883,-7.980132102966309,7.6244964599609375,2255.4861993789673
D4:22:CD:00:05:5E,-158.484619140625,-54.188865661621094,24.553110122680664,12.216863632202148,-0.9648032188415527,12.634895324707031,2255.4861993789673
D4:22:CD:00:05:5D,173.34608459472656,-52.112213134765625,-98.11341094970703,0.3658589720726013,0.8896485567092896,1.499863624572754,2255.5467994213104
D4:22:CD:00:05:6B,-74.9328842163086,-21.857135772705078,-93.5749740600586,14.382062911987305,5.505253791809082,32.38214874267578,2255.5467994213104
D4:22:CD:00:49:AA,143.7687225341797,-73.74313354492188,140.79872131347656,1.5974845886230469,-3.73098087310791,7.585475921630859,2255.5467994213104
D4:22:CD:00:05:6E,107.44499969482422,-59.11257553100586,2.1507785320281982,10.750396728515625,4.601569175720215,21.690074920654297,2255.5467994213104
D4:22:CD:00:05:5E,-157.92030334472656,-53.4759521484375,27.6553897857666,1.5928030014038086,0.5519458055496216,7.577329635620117,2255.5467994213104
D4:22:CD:00:05:5D,173.9650421142578,-51.63859176635742,-97.77098083496094,-0.3690124750137329,0.705469012260437,2.017271041870117,2255.5768325328827
D4:22:CD:00:05:6B,-69.56156158447266,-5.427801609039307,-90.44319915771484,7.537890434265137,-6.65008544921875,24.408382415771484,2255.5768325328827
D4:22:CD:00:49:AA,146.71607971191406,-74.39004516601562,140.66941833496094,1.5490903854370117,0.6855913400650024,9.575281143188477,2255.5768325328827
D4:22:CD:00:05:6E,100.7674789428711,-46.3195686340332,13.30828857421875,13.52379035949707,1.1759490966796875,24.67668914794922,2255.5768325328827
D4:22:CD:00:05:5E,-159.23220825195312,-55.767452239990234,29.275569915771484,-2.5306267738342285,3.6485352516174316,0.2562227249145508,2255.5768325328827
D4:22:CD:00:05:5D,175.4193878173828,-52.51873779296875,-98.29476165771484,-0.8820755481719971,1.5353779792785645,2.4734573364257812,2255.606012582779
D4:22:CD:00:05:6B,-60.34571838378906,10.061748504638672,-86.98918151855469,1.856029987335205,-12.217096328735352,14.099569320678711,2255.606012582779
D4:22:CD:00:49:AA,149.97547912597656,-75.6234359741211,139.6039581298828,-1.2686612606048584,2.413510322570801,9.243093490600586,2255.606012582779
D4:22:CD:00:05:6E,98.35591125488281,-36.49720764160156,24.591707229614258,9.63998794555664,4.464133262634277,3.7050552368164062,2255.606012582779
D4:22:CD:00:05:5E,-160.7648162841797,-60.6680908203125,26.91878890991211,-2.215095043182373,4.675824165344238,-5.70706844329834,2255.606012582779
D4:22:CD:00:05:5D,177.5118408203125,-55.11000061035156,-99.68106842041016,-0.7450008392333984,2.564605712890625,3.6511411666870117,2255.6365489959717
D4:22:CD:00:05:6B,-46.51688766479492,22.451812744140625,-85.06900024414062,-2.944533348083496,-10.543920516967773,7.04853630065918,2255.6365489959717
D4:22:CD:00:49:AA,154.5404052734375,-77.0591812133789,136.7106170654297,-4.030384063720703,2.6740589141845703,9.223495483398438,2255.6365489959717
D4:22:CD:00:05:6E,99.73513793945312,-33.20885467529297,35.5992546081543,-6.944273948669434,4.257287979125977,-4.432161331176758,2255.6365489959717
D4:22:CD:00:05:5E,-157.90704345703125,-68.16028594970703,18.988147735595703,-3.4789071083068848,5.595767021179199,-9.692392349243164,2255.6365489959717
D4:22:CD:00:05:5D,179.4744110107422,-60.0377197265625,-100.96144104003906,-2.4724488258361816,1.8904473781585693,5.687360763549805,2255.666656970978
D4:22:CD:00:05:6B,-27.233867645263672,33.515357971191406,-86.89161682128906,-10.995952606201172,-7.2892255783081055,-4.594420433044434,2255.666656970978
D4:22:CD:00:49:AA,159.60829162597656,-78.48636627197266,133.43019104003906,-3.215850353240967,1.0565185546875,2.8655176162719727,2255.666656970978
D4:22:CD:00:05:6E,97.48554992675781,-36.0824089050293,46.0005989074707,-6.639780044555664,0.13285264372825623,-10.878425598144531,2255.666656970978
D4:22:CD:00:05:5E,-141.78219604492188,-76.40448760986328,-1.0169802904129028,-5.320156097412109,1.948028802871704,-12.032512664794922,2255.666656970978
D4:22:CD:00:05:5D,-179.92996215820312,-66.6049575805664,-100.16129302978516,-0.2527707815170288,-6.950011253356934,11.170463562011719,2255.6966722011566
D4:22:CD:00:05:6B,-8.751269340515137,43.440269470214844,-91.04977416992188,-7.643599510192871,4.571232795715332,-13.313547134399414,2255.6966722011566
D4:22:CD:00:49:AA,169.04946899414062,-79.35231018066406,126.4041976928711,-3.3763723373413086,-1.5281836986541748,-5.064174652099609,2255.6966722011566
D4:22:CD:00:05:6E,94.48322296142578,-42.52644348144531,57.046295166015625,-4.4371137619018555,-1.572136402130127,-10.963459014892578,2255.6966722011566
D4:22:CD:00:05:5E,-96.21446990966797,-80.8179931640625,-51.17538070678711,-5.69767951965332,-1.8190326690673828,-12.128429412841797,2255.6966722011566
D4:22:CD:00:05:5D,174.9718475341797,-73.56390380859375,-100.52752685546875,1.897639513015747,-5.000052452087402,-1.1123418807983398,2255.7262048721313
D4:22:CD:00:05:6B,1.1091949939727783,50.691864013671875,-97.2580337524414,-2.2545981407165527,5.034245491027832,-10.276514053344727,2255.7262048721313
D4:22:CD:00:49:AA,178.58628845214844,-78.3807144165039,118.53853607177734,0.6740708351135254,0.4927784204483032,-8.469636917114258,2255.7262048721313
D4:22:CD:00:05:6E,90.55272674560547,-50.719390869140625,70.2492446899414,-4.687373161315918,-2.7923507690429688,-11.468879699707031,2255.7262048721313
D4:22:CD:00:05:5E,-48.5234489440918,-76.43640899658203,-103.33297729492188,-5.831856727600098,-4.916335105895996,-6.789751052856445,2255.7262048721313
D4:22:CD:00:05:5D,172.25079345703125,-74.88599395751953,-98.11492156982422,5.948813438415527,1.333545207977295,-7.364738464355469,2255.7562057971954
D4:22:CD:00:05:6B,1.9679362773895264,55.404144287109375,-108.27122497558594,2.1351418495178223,4.155152320861816,-10.796186447143555,2255.7562057971954
D4:22:CD:00:49:AA,-179.8375244140625,-77.25959014892578,116.65995025634766,3.4888100624084473,4.027814865112305,-8.875551223754883,2255.7562057971954
D4:22:CD:00:05:6E,83.68034362792969,-59.23202133178711,86.87769317626953,-3.7362570762634277,-2.562983989715576,-9.998498916625977,2255.7562057971954
D4:22:CD:00:05:5E,-35.8138542175293,-69.09861755371094,-121.47811126708984,-10.61517333984375,-11.44721794128418,-6.605887413024902,2255.7562057971954
