Device,EulerX,EulerY,EulerZ,FreeAccX,FreeAccY,FreeAccZ,Timestamp
D4:22:CD:00:05:5D,153.8037109375,-80.5252685546875,-80.78536987304688,1.1296420097351074,-3.410256862640381,2.2565460205078125,558.1961829662323
D4:22:CD:00:05:6B,-26.891998291015625,4.432214736938477,-98.97452545166016,-4.460289001464844,2.4912095069885254,-24.372970581054688,558.1961829662323
D4:22:CD:00:49:AA,173.78857421875,-80.42523193359375,137.0424346923828,-0.08253706991672516,2.4575276374816895,1.413106918334961,558.1961829662323
D4:22:CD:00:05:6E,178.37452697753906,-75.29593658447266,7.560199737548828,1.7889726161956787,-6.712858200073242,-0.10358524322509766,558.1961829662323
D4:22:CD:00:05:5E,-127.13529968261719,-59.54100036621094,-126.92607879638672,-18.009014129638672,3.7821435928344727,-8.385501861572266,558.1961829662323
D4:22:CD:00:05:5D,150.59910583496094,-79.88031005859375,-74.32180786132812,0.8448967933654785,-1.1461362838745117,3.0095338821411133,558.2074601650238
D4:22:CD:00:05:6B,-38.3532829284668,9.813401222229004,-90.03564453125,-16.581275939941406,3.493497371673584,2.1481761932373047,558.2074601650238
D4:22:CD:00:49:AA,167.02020263671875,-79.54347229003906,140.3827667236328,-2.6980834007263184,-3.724961280822754,2.5056943893432617,558.2074601650238
D4:22:CD:00:05:6E,-166.51104736328125,-74.81999969482422,-5.4322028160095215,3.9083714485168457,-7.533974647521973,0.7075662612915039,558.2074601650238
D4:22:CD:00:05:5E,-138.4796142578125,-57.300498962402344,-120.98833465576172,-13.460416793823242,9.632713317871094,0.9796762466430664,558.2074601650238
D4:22:CD:00:49:AA,158.75094604492188,-78.82388305664062,145.37290954589844,-6.659838676452637,-4.72601318359375,0.021787643432617188,558.214911699295
D4:22:CD:00:05:6E,-156.6950225830078,-71.88497924804688,-14.374776840209961,11.531360626220703,-12.388978958129883,-0.7547416687011719,558.214911699295
D4:22:CD:00:05:5E,-143.2431182861328,-55.78834533691406,-115.8155746459961,-3.1918892860412598,-14.614871978759766,-5.400909423828125,558.214911699295
D4:22:CD:00:05:5D,163.69326782226562,-64.64360046386719,-106.43717193603516,-3.0482897758483887,6.53045654296875,-3.2535948753356934,558.2169263362885
D4:22:CD:00:05:6B,-56.57027053833008,-17.98470115661621,-27.195724487304688,-9.147294998168945,-8.77932357788086,22.25298309326172,558.2169263362885
D4:22:CD:00:49:AA,154.55838012695312,-77.54256439208984,146.32174682617188,-4.087441444396973,-3.330235481262207,0.5809268951416016,558.2169263362885
D4:22:CD:00:05:6E,-165.18275451660156,-69.20748138427734,-13.63206958770752,10.926521301269531,-16.161663055419922,-3.9161529541015625,558.2169263362885
D4:22:CD:00:05:5E,-145.8268280029297,-55.327880859375,-110.09660339355469,1.234415054321289,-12.69649887084961,4.198390960693359,558.2169263362885
D4:22:CD:00:05:5D,171.00050354003906,-42.13330078125,-105.50401306152344,1.1400151252746582,-1.4478957653045654,3.202627182006836,558.2219245433807
D4:22:CD:00:05:6B,-58.62586975097656,30.061189651489258,-19.53557586669922,12.747100830078125,-3.5153937339782715,11.92849349975586,558.2219245433807
D4:22:CD:00:49:AA,112.2615737915039,-79.35399627685547,164.4454345703125,-4.363195419311523,-1.9171032905578613,7.969585418701172,558.2219245433807
D4:22:CD:00:05:6E,73.87176513671875,-73.68759155273438,46.53577423095703,0.017089128494262695,0.10513557493686676,1.9043655395507812,558.2219245433807
D4:22:CD:00:05:5D,173.77236938476562,-45.58525848388672,-107.57987213134766,-3.894843578338623,-2.6702346801757812,5.068097114562988,558.2637844085693
D4:22:CD:00:05:6B,-40.97362518310547,40.212684631347656,-17.03290367126465,9.746192932128906,-2.618055820465088,2.3164234161376953,558.2637844085693
D4:22:CD:00:49:AA,128.8227996826172,-81.26808166503906,150.15342712402344,-3.761244773864746,-0.0365796834230423,4.398344993591309,558.2637844085693
D4:22:CD:00:05:6E,68.61175537109375,-76.37409210205078,56.53678894042969,-3.4205684661865234,-0.15751874446868896,-1.4233837127685547,558.2637844085693
D4:22:CD:00:05:5E,163.21145629882812,-61.80141067504883,-7.008225917816162,3.1264686584472656,7.576438903808594,1.2716283798217773,558.2637844085693
D4:22:CD:00:05:5D,175.375732421875,-50.86713790893555,-108.46217346191406,-2.3588647842407227,-2.1199655532836914,4.893467903137207,558.2937800884247
D4:22:CD:00:05:6B,-25.55998420715332,48.3663444519043,-12.617362976074219,4.530412673950195,0.11339223384857178,-2.2078142166137695,558.2937800884247
D4:22:CD:00:49:AA,151.2976531982422,-83.80233001708984,131.6614990234375,-1.1067321300506592,-0.4591912627220154,0.4193887710571289,558.2937800884247
D4:22:CD:00:05:6E,78.4073715209961,-78.59371185302734,58.35481643676758,-7.417140007019043,-2.1515350341796875,-3.1618685722351074,558.2937800884247
D4:22:CD:00:05:5E,-162.583740234375,-64.25012969970703,-35.176246643066406,3.8435840606689453,10.765403747558594,-1.6994857788085938,558.2937800884247
D4:22:CD:00:05:5D,175.29295349121094,-57.4979248046875,-107.59805297851562,-3.7203516960144043,-5.816431999206543,3.9561614990234375,558.3237826824188
D4:22:CD:00:05:6B,-14.502371788024902,54.00788497924805,-5.1842803955078125,0.8942837715148926,0.30392688512802124,-2.4371585845947266,558.3237826824188
D4:22:CD:00:49:AA,-170.1980438232422,-84.38490295410156,97.99663543701172,0.13596472144126892,0.4115943908691406,-4.11496639251709,558.3237826824188
D4:22:CD:00:05:6E,95.7908706665039,-80.02742767333984,51.81793975830078,-4.7201433181762695,-2.15443754196167,-4.050658226013184,558.3237826824188
D4:22:CD:00:05:5E,-119.20393371582031,-60.144309997558594,-72.52937316894531,0.7852113246917725,7.975001335144043,-1.8028230667114258,558.3237826824188
D4:22:CD:00:05:5D,172.00875854492188,-65.39032745361328,-104.12886810302734,-0.33472806215286255,-7.810701370239258,-2.241328716278076,558.3836393356323
D4:22:CD:00:05:6B,-9.19439697265625,56.1356201171875,4.374098300933838,-4.073939323425293,-0.5173454284667969,-2.8198437690734863,558.3836393356323
D4:22:CD:00:49:AA,-144.88214111328125,-82.42928314208984,77.30082702636719,1.0180282592773438,2.4424190521240234,-9.072805404663086,558.3836393356323
D4:22:CD:00:05:6E,110.16230010986328,-83.34990692138672,52.511634826660156,-2.8067846298217773,-1.5580830574035645,-4.437975883483887,558.3836393356323
D4:22:CD:00:05:5E,-96.08470153808594,-51.84919738769531,-93.06249237060547,-0.9750313758850098,6.065098762512207,-2.025726318359375,558.3836393356323
D4:22:CD:00:05:5D,168.91514587402344,-69.4129867553711,-98.2344741821289,3.8712754249572754,-0.4443603754043579,-6.692915916442871,558.4157133102417
D4:22:CD:00:05:6B,-9.770179748535156,55.41633224487305,11.587946891784668,-1.6534481048583984,-2.9421844482421875,-4.018515586853027,558.4157133102417
D4:22:CD:00:49:AA,-138.47715759277344,-81.04119110107422,74.39279174804688,2.275998115539551,3.9767465591430664,-11.559242248535156,558.4157133102417
D4:22:CD:00:05:6E,105.5840835571289,-87.56941223144531,76.84400939941406,-4.170722007751465,-3.811183452606201,-5.876599311828613,558.4157133102417
D4:22:CD:00:05:5E,-85.6052017211914,-44.240726470947266,-105.84075927734375,-5.220726013183594,3.5148234367370605,-6.776999473571777,558.4157133102417
D4:22:CD:00:05:5D,166.3631134033203,-72.46916198730469,-92.07744598388672,2.0911426544189453,-5.319908142089844,-8.525434494018555,558.444061756134
D4:22:CD:00:05:6B,-11.575927734375,53.85966873168945,8.211627006530762,0.9197520017623901,-2.9746952056884766,-7.46147346496582,558.444061756134
D4:22:CD:00:49:AA,-135.23081970214844,-80.80208587646484,73.33161926269531,1.3114583492279053,2.7260665893554688,-10.148435592651367,558.444061756134
D4:22:CD:00:05:6E,16.892396926879883,-87.00167083740234,-176.64828491210938,-2.502784252166748,-7.3444976806640625,-7.5850372314453125,558.444061756134
D4:22:CD:00:05:5E,-86.14066314697266,-38.25232696533203,-114.72574615478516,-9.664924621582031,0.8396172523498535,-11.786947250366211,558.444061756134
D4:22:CD:00:05:5D,162.48825073242188,-76.63824462890625,-85.16536712646484,4.7129669189453125,-0.24648427963256836,-7.853470802307129,558.47376537323
D4:22:CD:00:05:6B,-11.309617042541504,50.73067092895508,-6.8242716789245605,-0.7009856700897217,0.12695571780204773,-11.054676055908203,558.47376537323
D4:22:CD:00:49:AA,-131.79046630859375,-81.3642349243164,71.15138244628906,0.9286326169967651,0.9264640808105469,-8.226934432983398,558.47376537323
D4:22:CD:00:05:6E,14.459227561950684,-83.23100280761719,-163.04095458984375,0.5831891298294067,-7.525845527648926,-8.384857177734375,558.47376537323
D4:22:CD:00:05:5E,-95.73006439208984,-34.29326629638672,-121.17516326904297,-18.194461822509766,-2.185316562652588,-12.892232894897461,558.47376537323
D4:22:CD:00:05:5D,163.3468780517578,-76.33261108398438,-80.86021423339844,-4.660100936889648,19.114601135253906,-2.0203566551208496,558.5037779808044
D4:22:CD:00:05:6B,-16.240386962890625,44.847007751464844,-24.246959686279297,-0.08336019515991211,5.3141889572143555,-14.870594024658203,558.5037779808044
D4:22:CD:00:49:AA,-131.64373779296875,-81.71856689453125,72.58218383789062,-1.4531335830688477,-0.20185723900794983,-3.585911273956299,558.5037779808044
D4:22:CD:00:05:6E,16.281145095825195,-79.63798522949219,-159.9680938720703,0.22706517577171326,-5.247809410095215,-7.686115264892578,558.5037779808044
D4:22:CD:00:05:5E,-107.10002899169922,-33.36353302001953,-123.83810424804688,-24.9989013671875,1.522993564605713,-15.944761276245117,558.5037779808044
D4:22:CD:00:05:5D,163.0873565673828,-73.46536254882812,-79.0748519897461,0.44312334060668945,-2.8470921516418457,-2.0138731002807617,558.5338633060455
D4:22:CD:00:05:6B,-27.501535415649414,34.93170166015625,-41.55878448486328,6.281996726989746,-9.323211669921875,-13.006376266479492,558.5338633060455
D4:22:CD:00:49:AA,-133.57107543945312,-81.18496704101562,74.83154296875,-0.36811912059783936,0.2690132260322571,-0.030997276306152344,558.5338633060455
D4:22:CD:00:05:6E,13.628588676452637,-76.85005187988281,-154.7193145751953,0.9976459741592407,-6.41077995300293,-4.671804428100586,558.5338633060455
D4:22:CD:00:05:5E,-121.75940704345703,-34.22842025756836,-118.8791275024414,-35.24919891357422,16.7467041015625,-8.362606048583984,558.5338633060455
D4:22:CD:00:05:5D,162.8796844482422,-71.2474365234375,-75.87953186035156,0.9821102619171143,0.8981326818466187,1.7502498626708984,558.5636568069458
D4:22:CD:00:05:6B,-25.323883056640625,23.133481979370117,-60.44728469848633,8.416427612304688,-44.94715881347656,-5.251092910766602,558.5636568069458
D4:22:CD:00:49:AA,-139.9937744140625,-79.92042541503906,78.84835052490234,0.2576075792312622,-3.3080925941467285,3.5526466369628906,558.5636568069458
D4:22:CD:00:05:6E,4.139566898345947,-74.75035095214844,-144.08815002441406,1.1966748237609863,-8.689397811889648,0.5415229797363281,558.5636568069458
D4:22:CD:00:05:5E,-132.24623107910156,-34.61745071411133,-108.92266845703125,-3.5289926528930664,-16.44216537475586,-11.715497970581055,558.5636568069458
D4:22:CD:00:05:5D,159.4982452392578,-70.40565490722656,-71.34394073486328,1.1241753101348877,-2.542634963989258,4.910805702209473,558.5939242839813
D4:22:CD:00:05:6B,-10.492741584777832,23.758005142211914,-71.34138488769531,10.123516082763672,20.187820434570312,-22.013530731201172,558.5939242839813
D4:22:CD:00:49:AA,-145.7272186279297,-78.24101257324219,82.47833251953125,-4.964552879333496,-6.590154647827148,7.221773147583008,558.5939242839813
D4:22:CD:00:05:6E,-10.700972557067871,-73.40043640136719,-128.31057739257812,0.4667619466781616,-9.88601303100586,1.956167221069336,558.5939242839813
D4:22:CD:00:05:5E,-136.00013732910156,-37.40266036987305,-100.96090698242188,-3.771300792694092,-17.657821655273438,-6.831231117248535,558.5939242839813
D4:22:CD:00:05:5D,153.65467834472656,-70.19537353515625,-64.92161560058594,-3.6925392150878906,-3.21860933303833,8.138971328735352,558.6231904029846
D4:22:CD:00:05:6B,-17.980886459350586,24.903657913208008,-61.07527160644531,-8.706626892089844,2.8229212760925293,-6.769437789916992,558.6231904029846
D4:22:CD:00:49:AA,-150.44728088378906,-76.95966339111328,84.8455810546875,-1.8402643203735352,-0.6099114418029785,5.634230613708496,558.6231904029846
D4:22:CD:00:05:6E,-31.69300651550293,-73.41666412353516,-107.64177703857422,6.535798072814941,-11.567972183227539,4.761852264404297,558.6231904029846
D4:22:CD:00:05:5E,-145.0774383544922,-39.492313385009766,-94.31644439697266,15.723630905151367,-8.34975814819336,11.694160461425781,558.6231904029846
D4:22:CD:00:05:5D,146.35494995117188,-70.75822448730469,-58.78506851196289,-2.320405960083008,-1.1274421215057373,5.094673156738281,558.6840214729309
D4:22:CD:00:05:6B,-18.349552154541016,25.280576705932617,-43.986026763916016,7.405792236328125,-13.115106582641602,-8.000772476196289,558.6840214729309
D4:22:CD:00:49:AA,-157.27976989746094,-76.0493392944336,87.11614227294922,4.6800947189331055,1.1863315105438232,-0.09215831756591797,558.6840214729309
D4:22:CD:00:05:6E,-58.928653717041016,-74.41411590576172,-87.2444076538086,10.193361282348633,-12.330520629882812,1.127044677734375,558.6840214729309
D4:22:CD:00:05:5E,-153.59857177734375,-40.41297912597656,-89.44117736816406,-2.928044319152832,-9.76114273071289,-1.9202165603637695,558.6840214729309
D4:22:CD:00:05:5D,134.59527587890625,-72.55799865722656,-51.41466522216797,5.21585750579834,-4.561528205871582,5.206033706665039,558.7142171859741
D4:22:CD:00:05:6B,-20.164409637451172,23.242712020874023,-28.592676162719727,-0.43903201818466187,-0.3685864806175232,-9.666893005371094,558.7142171859741
D4:22:CD:00:49:AA,-164.47715759277344,-74.22334289550781,88.75723266601562,6.923666954040527,-1.3741285800933838,-0.08539009094238281,558.7142171859741
D4:22:CD:00:05:6E,-96.53260803222656,-77.8296890258789,-65.1710433959961,0.824711799621582,-9.116212844848633,-0.5347404479980469,558.7142171859741
D4:22:CD:00:05:5E,-160.19068908691406,-41.0681266784668,-84.66577911376953,-5.9500885009765625,-8.59050178527832,-4.776175498962402,558.7142171859741
D4:22:CD:00:05:5D,123.92132568359375,-73.49911499023438,-50.46517562866211,11.681806564331055,7.955202102661133,-1.5151214599609375,558.7444026470184
D4:22:CD:00:05:6B,-21.89069938659668,17.42475128173828,-15.465225219726562,-7.755070686340332,-4.929388046264648,-6.215851783752441,558.7444026470184
D4:22:CD:00:49:AA,-167.50376892089844,-72.94037628173828,88.73126220703125,1.6950287818908691,-0.06590569019317627,0.7711915969848633,558.7444026470184
D4:22:CD:00:05:6E,-151.2268829345703,-79.3175048828125,-27.311351776123047,1.2309865951538086,4.131863594055176,1.5234479904174805,558.7444026470184
D4:22:CD:00:05:5E,-162.83583068847656,-41.15456008911133,-80.66155242919922,-1.3113923072814941,-5.246459007263184,-1.5506820678710938,558.7444026470184
D4:22:CD:00:05:5D,130.93898010253906,-68.87462615966797,-67.69029235839844,18.957469940185547,21.174835205078125,8.482561111450195,558.7744691371918
D4:22:CD:00:05:6B,-20.24400520324707,7.897140979766846,-4.656248092651367,-10.909488677978516,3.894601345062256,-3.8972959518432617,558.7744691371918
D4:22:CD:00:49:AA,-163.66778564453125,-73.37608337402344,85.76942443847656,-1.7942695617675781,0.9548606872558594,-3.8150620460510254,558.7744691371918
D4:22:CD:00:05:6E,174.1156463623047,-78.34834289550781,-4.240331649780273,7.691803932189941,9.010263442993164,-3.0971951484680176,558.7744691371918
D4:22:CD:00:05:5E,-164.43772888183594,-39.82647705078125,-78.43588256835938,-1.2626879215240479,-4.439687728881836,-1.8381104469299316,558.7744691371918
D4:22:CD:00:05:5D,143.8280792236328,-57.348968505859375,-84.84080505371094,14.181161880493164,9.82076644897461,7.0198211669921875,558.8334922790527
D4:22:CD:00:05:6B,-24.174402236938477,-5.6028947830200195,7.297271728515625,-9.047592163085938,0.3026728630065918,-12.706003189086914,558.8334922790527
D4:22:CD:00:49:AA,-158.83778381347656,-73.27257537841797,82.50659942626953,1.8504924774169922,3.2895426750183105,-4.040450096130371,558.8334922790527
D4:22:CD:00:05:6E,158.81658935546875,-80.00143432617188,2.0604536533355713,2.863152503967285,7.9774169921875,-3.8456029891967773,558.8334922790527
D4:22:CD:00:05:5E,-165.28233337402344,-38.39862060546875,-76.60307312011719,0.30926191806793213,-7.732717514038086,-0.6971826553344727,558.8334922790527
D4:22:CD:00:05:5D,151.59642028808594,-43.95278549194336,-96.99641418457031,5.254201889038086,-0.5634521245956421,-1.6680717468261719,558.8407130241394
D4:22:CD:00:05:6B,-35.586753845214844,-19.980714797973633,24.21636199951172,2.416067600250244,4.6666259765625,-4.273716926574707,558.8407130241394
D4:22:CD:00:49:AA,-156.21678161621094,-73.122314453125,80.43092346191406,6.385251998901367,2.2245540618896484,1.7927970886230469,558.8407130241394
D4:22:CD:00:05:6E,156.46148681640625,-82.89869689941406,8.139579772949219,-1.8833255767822266,7.191221237182617,-0.5669794082641602,558.8407130241394
D4:22:CD:00:05:5E,-165.4386749267578,-36.91237258911133,-74.76677703857422,-2.4055514335632324,-6.070005416870117,-2.1339306831359863,558.8407130241394
D4:22:CD:00:05:5D,155.1027374267578,-30.923465728759766,-105.39143371582031,-0.865683913230896,-2.2655816078186035,-8.989519119262695,558.8640336990356
D4:22:CD:00:05:6B,-52.14687728881836,-27.976707458496094,44.76090621948242,-1.94277024269104,8.633588790893555,2.975545883178711,558.8640336990356
D4:22:CD:00:49:AA,-154.96849060058594,-73.77828216552734,79.24785614013672,3.4803037643432617,1.9016764163970947,0.44179725646972656,558.8640336990356
D4:22:CD:00:05:6E,158.05853271484375,-85.2677001953125,17.108627319335938,-9.6611328125,-2.353750228881836,-0.40607261657714844,558.8640336990356
D4:22:CD:00:05:5E,-165.2965850830078,-35.698551177978516,-73.47083282470703,-1.8701446056365967,-6.426281929016113,-1.3056268692016602,558.8640336990356
D4:22:CD:00:05:5D,158.1298828125,-19.43617057800293,-110.66986083984375,-3.0597171783447266,-0.6520527601242065,-13.868635177612305,558.8940343856812
D4:22:CD:00:05:6B,-62.75949478149414,-26.960660934448242,61.13494110107422,-7.031126022338867,1.4993598461151123,5.596623420715332,558.8940343856812
D4:22:CD:00:49:AA,-155.2792510986328,-74.55863189697266,79.49494934082031,3.814912796020508,3.0753626823425293,0.6167230606079102,558.8940343856812
D4:22:CD:00:05:6E,152.76019287109375,-85.93461608886719,28.55195426940918,-7.353487968444824,-5.045222282409668,-0.45141029357910156,558.8940343856812
D4:22:CD:00:05:5E,-164.89263916015625,-34.36185836791992,-72.87838745117188,-1.5850684642791748,-6.252455711364746,-2.276026725769043,558.8940343856812
D4:22:CD:00:05:5D,162.8050994873047,-11.040811538696289,-114.6558609008789,-0.32389211654663086,1.1684439182281494,-13.61233139038086,558.9241769313812
D4:22:CD:00:05:6B,-59.47047805786133,-19.934799194335938,67.60734558105469,-5.643951416015625,0.5672962665557861,4.117591857910156,558.9241769313812
D4:22:CD:00:49:AA,-155.9433135986328,-75.14094543457031,79.85447692871094,3.963357925415039,0.593839168548584,-0.09603309631347656,558.9241769313812
D4:22:CD:00:05:6E,143.3737335205078,-85.62847900390625,40.51020431518555,-3.783720016479492,-3.2361040115356445,0.7769708633422852,558.9241769313812
D4:22:CD:00:05:5E,-163.90118408203125,-32.735355377197266,-72.814697265625,0.24612104892730713,-7.69392204284668,-0.5559282302856445,558.9241769313812
D4:22:CD:00:05:5D,168.39212036132812,-7.46047306060791,-118.70809936523438,-3.3196053504943848,-1.7042386531829834,-6.8194580078125,558.9841961860657
D4:22:CD:00:05:6B,-56.217620849609375,-10.391217231750488,66.91094970703125,-7.513964653015137,-1.0144293308258057,-8.416011810302734,558.9841961860657
D4:22:CD:00:49:AA,-158.31422424316406,-76.04310607910156,82.5758285522461,3.8994131088256836,1.0852875709533691,-3.4346189498901367,558.9841961860657
D4:22:CD:00:05:6E,131.71246337890625,-85.100830078125,54.468910217285156,-0.0752556174993515,-1.8668012619018555,-0.2403392791748047,558.9841961860657
D4:22:CD:00:05:5E,-162.1756134033203,-30.288394927978516,-73.41487121582031,0.665044903755188,-7.769901275634766,-3.90669584274292,558.9841961860657
D4:22:CD:00:05:5D,172.55828857421875,-8.86307430267334,-122.68778991699219,-7.848488807678223,-9.789953231811523,-1.564927101135254,559.0137341022491
D4:22:CD:00:05:6B,-65.34772491455078,-2.6311075687408447,64.81372833251953,0.31777429580688477,-8.85215950012207,-2.5983476638793945,559.0137341022491
D4:22:CD:00:49:AA,-163.54840087890625,-76.99115753173828,87.50614166259766,4.7085065841674805,0.6317622661590576,-4.3122663497924805,559.0137341022491
D4:22:CD:00:05:6E,120.43384552001953,-83.93838500976562,70.33642578125,1.0223147869110107,-0.800035834312439,-2.29702091217041,559.0137341022491
D4:22:CD:00:05:5E,-163.0524444580078,-26.92749786376953,-74.56525421142578,-3.3969388008117676,0.6628248691558838,-3.1030197143554688,559.0137341022491
D4:22:CD:00:05:5D,175.834228515625,-14.700334548950195,-125.68758392333984,-15.245960235595703,-10.409875869750977,-12.691503524780273,559.0443890094757
D4:22:CD:00:05:6B,-70.71723175048828,-0.5890083312988281,63.813507080078125,-1.1055192947387695,-3.38222599029541,3.9656906127929688,559.0443890094757
D4:22:CD:00:49:AA,-169.02870178222656,-77.72571563720703,89.94107818603516,4.6593017578125,-0.29359132051467896,-2.0078954696655273,559.0443890094757
D4:22:CD:00:05:6E,119.3956298828125,-82.2109146118164,77.91033172607422,2.6677207946777344,-2.666813373565674,-3.1041693687438965,559.0443890094757
D4:22:CD:00:05:5E,-164.78065490722656,-24.04947853088379,-75.78382110595703,-7.821504592895508,-5.587636947631836,-4.562616348266602,559.0443890094757
D4:22:CD:00:05:5D,174.3816375732422,-18.1174259185791,-125.35558319091797,-13.638952255249023,4.715903282165527,37.023414611816406,559.0739369392395
D4:22:CD:00:05:6B,-69.48793029785156,-9.067532539367676,64.13611602783203,1.6757562160491943,-0.5854712724685669,-1.1420869827270508,559.0739369392395
D4:22:CD:00:49:AA,-168.32322692871094,-79.05067443847656,85.71802520751953,-0.6806550025939941,1.6142973899841309,-1.8163633346557617,559.0739369392395
D4:22:CD:00:05:6E,120.08366394042969,-80.69436645507812,82.03125,5.94802188873291,-7.777615547180176,-1.5396699905395508,559.0739369392395
D4:22:CD:00:05:5E,-165.27085876464844,-22.494699478149414,-76.31242370605469,0.41985654830932617,-3.434978485107422,-1.0863075256347656,559.0739369392395
D4:22:CD:00:05:5D,-179.9805450439453,-17.845699310302734,-123.55130767822266,-1.2474687099456787,-12.745878219604492,-5.317456245422363,559.1040997505188
D4:22:CD:00:05:6B,-65.3674545288086,-29.137666702270508,67.96429443359375,2.493783950805664,32.32917022705078,19.929576873779297,559.1040997505188
D4:22:CD:00:49:AA,-168.169677734375,-77.62762451171875,83.98884582519531,-5.411642074584961,-0.2239653468132019,6.928686141967773,559.1040997505188
D4:22:CD:00:05:6E,113.96646118164062,-79.22274780273438,87.84253692626953,4.769387245178223,-10.177200317382812,1.9926834106445312,559.1040997505188
D4:22:CD:00:05:5E,-166.64718627929688,-21.752946853637695,-76.92243957519531,-0.7608755826950073,-7.233931541442871,-0.32790470123291016,559.1040997505188
D4:22:CD:00:05:5D,-177.6909942626953,-17.7745418548584,-124.58531188964844,-13.275318145751953,-10.728681564331055,2.3546266555786133,559.1341059207916
D4:22:CD:00:05:6B,-51.18450927734375,-45.07545471191406,64.08795928955078,15.61602783203125,56.43486785888672,21.03455352783203,559.1341059207916
D4:22:CD:00:49:AA,-166.442626953125,-78.56613159179688,82.70890045166016,0.11479714512825012,0.8440182209014893,6.7839813232421875,559.1341059207916
D4:22:CD:00:05:6E,100.82049560546875,-75.74588012695312,95.6991195678711,7.357596397399902,-12.3594970703125,11.33480453491211,559.1341059207916
D4:22:CD:00:05:5E,-167.96160888671875,-22.40290069580078,-77.47713470458984,0.19915181398391724,-6.638491630554199,1.9606647491455078,559.1341059207916
D4:22:CD:00:05:5D,178.51235961914062,-17.102441787719727,-126.6595458984375,-13.681890487670898,-12.090692520141602,7.981616973876953,559.1636934280396
D4:22:CD:00:05:6B,-62.53169250488281,-38.15885925292969,63.583858489990234,7.696178436279297,17.752498626708984,15.777944564819336,559.1636934280396
D4:22:CD:00:49:AA,-169.1493377685547,-77.34083557128906,86.03903198242188,5.481782913208008,2.407437324523926,6.238334655761719,559.1636934280396
D4:22:CD:00:05:6E,86.76696014404297,-66.42185974121094,103.80728149414062,10.01266098022461,-1.0170164108276367,26.25341033935547,559.1636934280396
D4:22:CD:00:05:5E,-169.38259887695312,-24.211702346801758,-78.18241882324219,-0.7414308786392212,-6.106969833374023,0.40331363677978516,559.1636934280396
D4:22:CD:00:05:5D,175.5088653564453,-15.671923637390137,-128.80914306640625,-20.497814178466797,-11.144880294799805,5.471787452697754,559.1937019824982
D4:22:CD:00:05:6B,-57.42439270019531,-28.431360244750977,62.98748779296875,15.429973602294922,19.320045471191406,4.930688858032227,559.1937019824982
D4:22:CD:00:49:AA,-173.71469116210938,-75.78351593017578,89.37428283691406,5.749940872192383,-0.22907596826553345,6.902912139892578,559.1937019824982
D4:22:CD:00:05:6E,83.81854248046875,-51.40008544921875,107.81848907470703,8.888076782226562,-3.2799315452575684,26.854652404785156,559.1937019824982
D4:22:CD:00:05:5E,-170.861083984375,-27.44521141052246,-78.4035873413086,-1.7199513912200928,-5.787439346313477,0.3296012878417969,559.1937019824982
D4:22:CD:00:05:5D,175.1667938232422,-15.243985176086426,-128.53289794921875,-20.28917694091797,-13.311285018920898,0.8867130279541016,559.2238292694092
D4:22:CD:00:05:6B,-60.31012725830078,-21.141521453857422,60.371925354003906,13.51754379272461,6.971503257751465,0.12720394134521484,559.2238292694092
D4:22:CD:00:49:AA,-177.26498413085938,-74.6335220336914,91.6746597290039,3.5665416717529297,1.9533090591430664,7.529651641845703,559.2238292694092
D4:22:CD:00:05:6E,86.62646484375,-34.780845642089844,107.55905151367188,10.15582275390625,4.730861663818359,8.299304962158203,559.2238292694092
D4:22:CD:00:05:5E,-171.97679138183594,-34.21520233154297,-78.44752502441406,-0.7479033470153809,-12.04942512512207,0.8825569152832031,559.2238292694092
D4:22:CD:00:05:5D,176.96646118164062,-17.600723266601562,-127.13416290283203,-0.9827672243118286,-8.557411193847656,12.477554321289062,559.2834441661835
D4:22:CD:00:05:6B,-63.821617126464844,-18.746950149536133,54.70931625366211,7.039173126220703,-4.6436920166015625,-0.36984920501708984,559.2834441661835
D4:22:CD:00:49:AA,177.7794647216797,-74.49852752685547,94.68024444580078,1.5942368507385254,3.6455225944519043,4.524900436401367,559.2834441661835
D4:22:CD:00:05:6E,95.10472869873047,-18.949676513671875,106.21033477783203,3.4108190536499023,-2.6590704917907715,11.777616500854492,559.2834441661835
D4:22:CD:00:05:5E,-168.76580810546875,-43.509124755859375,-78.44011688232422,-1.6220886707305908,1.5869696140289307,9.708709716796875,559.2834441661835
D4:22:CD:00:05:5D,174.7135467529297,-20.349985122680664,-127.189697265625,-7.685416221618652,-3.3976683616638184,0.4313678741455078,559.3134410381317
D4:22:CD:00:05:6B,-67.94133758544922,-22.705291748046875,49.02629089355469,1.0434012413024902,-8.42215347290039,-2.653076171875,559.3134410381317
D4:22:CD:00:49:AA,173.07630920410156,-74.33853912353516,97.49716186523438,1.2244439125061035,4.329293251037598,-0.056415557861328125,559.3134410381317
D4:22:CD:00:05:6E,95.37731170654297,-4.746896743774414,104.24291229248047,-0.5625346899032593,-0.05878658592700958,12.260614395141602,559.3134410381317
D4:22:CD:00:05:5E,-170.4786376953125,-48.70634841918945,-78.42842102050781,-1.2236990928649902,-3.0959177017211914,-0.6410102844238281,559.3134410381317
D4:22:CD:00:05:5D,171.1298828125,-26.058706283569336,-126.83708953857422,-1.23752760887146,0.5108137130737305,-6.7261457443237305,559.342892408371
D4:22:CD:00:05:6B,-74.70897674560547,-31.211824417114258,44.7647819519043,-2.5684804916381836,-8.298179626464844,-4.252105712890625,559.342892408371
D4:22:CD:00:49:AA,167.54115295410156,-74.19642639160156,101.46226501464844,1.7082626819610596,1.7515590190887451,-7.107419013977051,559.342892408371
D4:22:CD:00:05:6E,89.10041046142578,8.316285133361816,102.60917663574219,-6.07493782043457,2.3235092163085938,5.380766868591309,559.342892408371
D4:22:CD:00:05:5E,-172.23751831054688,-47.81808853149414,-79.1402587890625,-1.8496637344360352,5.190053939819336,5.459009170532227,559.342892408371
D4:22:CD:00:05:5D,167.94979858398438,-34.331993103027344,-127.29920959472656,-2.6755475997924805,0.13210979104042053,-16.946510314941406,559.3734104633331
D4:22:CD:00:05:6B,-81.97528839111328,-42.36345672607422,41.8808708190918,-3.519599437713623,-7.716377258300781,-7.556890487670898,559.3734104633331
D4:22:CD:00:49:AA,157.70254516601562,-74.93180847167969,109.2526626586914,1.8787307739257812,-0.35979145765304565,-12.245532989501953,559.3734104633331
D4:22:CD:00:05:6E,76.25145721435547,22.227664947509766,99.55101013183594,-15.357877731323242,3.2065882682800293,-5.121702194213867,559.3734104633331
D4:22:CD:00:05:5E,-169.30934143066406,-42.944862365722656,-81.47725677490234,-0.13440370559692383,-9.658727645874023,-12.432218551635742,559.3734104633331
D4:22:CD:00:05:5D,165.30062866210938,-45.351806640625,-128.11856079101562,-5.785863876342773,-1.0059363842010498,-17.263404846191406,559.4040405750275
D4:22:CD:00:05:6B,-88.88218688964844,-54.49312210083008,41.23770523071289,-4.49188232421875,-3.728050708770752,-6.983620643615723,559.4040405750275
D4:22:CD:00:49:AA,147.5737762451172,-75.35269165039062,116.92542266845703,-2.3492870330810547,0.8250545263290405,-9.107782363891602,559.4040405750275
D4:22:CD:00:05:6E,60.166297912597656,36.068111419677734,92.0196762084961,-8.790668487548828,1.3904335498809814,-16.454307556152344,559.4040405750275
D4:22:CD:00:05:5E,-169.35816955566406,-43.10179901123047,-82.77796173095703,-3.5583391189575195,-18.92517852783203,-22.89405059814453,559.4040405750275
D4:22:CD:00:05:5D,163.55633544921875,-59.801612854003906,-129.34226989746094,-6.3129425048828125,0.3446270227432251,-7.370702743530273,559.4341683387756
D4:22:CD:00:05:6B,-98.21870422363281,-66.45048522949219,44.88084030151367,-6.562395095825195,-1.2658421993255615,-3.319362163543701,559.4341683387756
D4:22:CD:00:49:AA,140.43861389160156,-75.56661987304688,122.23682403564453,0.6822570562362671,2.3170952796936035,-6.6468915939331055,559.4341683387756
D4:22:CD:00:05:6E,49.09144592285156,48.85105895996094,80.07054138183594,-5.0696868896484375,0.3066325783729553,-13.026748657226562,559.4341683387756
D4:22:CD:00:05:5E,-171.29559326171875,-44.75712966918945,-83.13998413085938,-3.702693462371826,-6.499362945556641,-2.523345947265625,559.4341683387756
D4:22:CD:00:05:5D,164.30482482910156,-77.03993225097656,-132.85888671875,-3.985504627227783,-1.4457576274871826,4.499326705932617,559.4636964797974
D4:22:CD:00:05:6B,-120.75740814208984,-76.6609878540039,61.64373016357422,-6.6741228103637695,1.274399995803833,-2.5997262001037598,559.4636964797974
D4:22:CD:00:49:AA,135.29478454589844,-75.77202606201172,126.0738754272461,2.5406742095947266,-1.388674259185791,-4.3479413986206055,559.4636964797974
D4:22:CD:00:05:6E,37.281822204589844,60.30503845214844,63.32929611206055,-0.2527726888656616,3.723860740661621,-12.242259979248047,559.4636964797974
D4:22:CD:00:05:5E,-172.33184814453125,-45.37391662597656,-84.45024871826172,1.5159704685211182,-6.931496620178223,-2.0016708374023438,559.4636964797974
D4:22:CD:00:05:5D,-17.69013214111328,-85.64810180664062,52.05073547363281,13.064371109008789,5.705150604248047,16.051063537597656,559.4948649406433
D4:22:CD:00:05:6B,-179.47608947753906,-80.66297912597656,115.06426239013672,-4.914381980895996,4.752713203430176,-2.6506118774414062,559.4948649406433
D4:22:CD:00:49:AA,129.90676879882812,-76.82476806640625,130.6820526123047,0.9511818885803223,1.9473741054534912,1.4631423950195312,559.4948649406433
D4:22:CD:00:05:6E,21.61104965209961,69.24053192138672,47.674072265625,4.518010139465332,-4.881101608276367,-9.815189361572266,559.4948649406433
D4:22:CD:00:05:5E,-174.4733123779297,-43.47592544555664,-86.90406036376953,0.08469396829605103,-11.049924850463867,-2.6060686111450195,559.4948649406433
D4:22:CD:00:05:5D,-0.008492888882756233,-73.72358703613281,43.35346984863281,19.16733169555664,24.40247344970703,-2.7293171882629395,559.5236330032349
D4:22:CD:00:05:6B,135.44886779785156,-74.58687591552734,153.5652313232422,-4.46363639831543,3.729553699493408,-1.0003108978271484,559.5236330032349
D4:22:CD:00:49:AA,125.72653198242188,-78.02686309814453,135.22567749023438,4.927862167358398,0.8115026950836182,0.06926441192626953,559.5236330032349
D4:22:CD:00:05:6E,25.785165786743164,77.6278076171875,52.730255126953125,7.311654090881348,-6.7833662033081055,-5.063562393188477,559.5236330032349
D4:22:CD:00:05:5E,-175.24142456054688,-40.8165397644043,-89.77548217773438,-0.5497461557388306,-10.432390213012695,-0.2674674987792969,559.5236330032349
D4:22:CD:00:05:5D,2.5777060985565186,-72.31790161132812,38.81371307373047,25.778926849365234,20.02484130859375,-17.045101165771484,559.5837724208832
D4:22:CD:00:05:6B,119.35607147216797,-65.78799438476562,160.9112091064453,-6.647162437438965,4.908596992492676,0.1417531967163086,559.5837724208832
D4:22:CD:00:49:AA,125.46288299560547,-78.66252136230469,134.93772888183594,6.950168609619141,1.8349390029907227,5.959407806396484,559.5837724208832
D4:22:CD:00:05:6E,89.65804290771484,78.60003662109375,117.6611328125,2.3576736450195312,-2.8081417083740234,-9.426189422607422,559.5837724208832
D4:22:CD:00:05:5E,-172.7866668701172,-39.271270751953125,-93.65936279296875,-4.859104156494141,-9.51807975769043,0.3762855529785156,559.5837724208832
D4:22:CD:00:05:5D,23.12563705444336,-79.10624694824219,19.376676559448242,16.00412368774414,-0.5744301080703735,5.1317644119262695,559.6138968467712
D4:22:CD:00:05:6B,110.4592514038086,-57.617496490478516,160.00408935546875,-11.501882553100586,7.124754905700684,2.3514928817749023,559.6138968467712
D4:22:CD:00:49:AA,124.50772094726562,-79.02961730957031,136.7891845703125,-0.29093360900878906,2.2299957275390625,4.139082908630371,559.6138968467712
D4:22:CD:00:05:6E,109.88459014892578,63.564781188964844,144.69837951660156,-11.364551544189453,5.275130271911621,-13.963090896606445,559.6138968467712
D4:22:CD:00:05:5E,-167.8561553955078,-39.29641342163086,-97.39512634277344,-3.3370251655578613,-8.849752426147461,-0.05527687072753906,559.6138968467712
D4:22:CD:00:05:5D,41.24860763549805,-83.05522155761719,6.298110008239746,-8.837743759155273,-8.650575637817383,5.442222595214844,559.6430003643036
D4:22:CD:00:05:6B,106.07166290283203,-51.0782356262207,157.46286010742188,-16.896514892578125,11.82421875,-1.2406940460205078,559.6430003643036
D4:22:CD:00:49:AA,128.18563842773438,-78.08304595947266,134.53065490722656,-1.9339370727539062,0.9153429269790649,0.17017078399658203,559.6430003643036
D4:22:CD:00:05:6E,101.1038818359375,49.33507537841797,152.9595947265625,-8.959745407104492,11.196796417236328,-10.306884765625,559.6430003643036
D4:22:CD:00:05:5E,-163.00828552246094,-41.05419158935547,-101.20429229736328,-1.7271976470947266,-6.915452003479004,-4.778931617736816,559.6430003643036
D4:22:CD:00:05:5D,43.39035415649414,-86.18473815917969,1.6521971225738525,4.213459014892578,-2.4059462547302246,5.584977149963379,559.6736528873444
D4:22:CD:00:05:6B,110.19219207763672,-47.96345520019531,156.08267211914062,-12.621776580810547,9.729433059692383,-2.913790702819824,559.6736528873444
D4:22:CD:00:49:AA,138.23568725585938,-76.59766387939453,127.01041412353516,-1.6898162364959717,-2.715524673461914,0.9490680694580078,559.6736528873444
D4:22:CD:00:05:6E,108.03035736083984,48.019615173339844,155.58824157714844,7.531649589538574,-12.649015426635742,1.757786750793457,559.6736528873444
D4:22:CD:00:05:5E,-156.3474578857422,-39.545677185058594,-103.88691711425781,-6.52993106842041,-4.197011947631836,-4.9488677978515625,559.6736528873444
D4:22:CD:00:05:5D,64.56198120117188,-88.32625579833984,-16.971885681152344,-1.9549474716186523,2.457137107849121,1.3913440704345703,559.703601360321
D4:22:CD:00:05:6B,118.18659973144531,-49.46628952026367,154.70071411132812,-6.949060440063477,5.58815860748291,0.9611520767211914,559.703601360321
D4:22:CD:00:49:AA,146.328369140625,-74.64730834960938,122.24620819091797,-2.4172072410583496,-3.35764217376709,-1.0048704147338867,559.703601360321
D4:22:CD:00:05:6E,109.01905059814453,56.8369255065918,147.99252319335938,-13.127052307128906,11.930273056030273,-0.704310417175293,559.703601360321
D4:22:CD:00:05:5E,-148.64959716796875,-36.267032623291016,-105.07062530517578,-15.166461944580078,-3.166959285736084,2.573545455932617,559.703601360321
D4:22:CD:00:05:5D,143.87863159179688,-88.38202667236328,-91.92684936523438,5.070611000061035,-1.6807866096496582,-1.4230194091796875,559.7340397834778
D4:22:CD:00:05:6B,121.84660339355469,-54.16057586669922,152.9209747314453,-0.4428626298904419,3.6294751167297363,1.3239774703979492,559.7340397834778
D4:22:CD:00:49:AA,150.12149047851562,-73.42095184326172,122.02290344238281,-4.9243268966674805,-1.1184349060058594,-3.354189872741699,559.7340397834778
D4:22:CD:00:05:6E,97.51607513427734,68.78378295898438,124.39884948730469,-8.594968795776367,1.459256649017334,-16.117504119873047,559.7340397834778
D4:22:CD:00:05:5E,-145.30226135253906,-29.40740966796875,-102.94206237792969,-17.917705535888672,-3.303928852081299,4.573180198669434,559.7340397834778
D4:22:CD:00:05:5D,-178.52969360351562,-86.31863403320312,-125.59171295166016,0.4876263737678528,-0.5712268352508545,-1.6357593536376953,559.7648434638977
D4:22:CD:00:05:6B,121.29740905761719,-58.3515510559082,151.99124145507812,0.7437450885772705,-0.23517021536827087,-5.23820686340332,559.7648434638977
D4:22:CD:00:49:AA,151.9213409423828,-72.1047134399414,123.68782806396484,-1.7511334419250488,0.32068026065826416,-0.4351997375488281,559.7648434638977
D4:22:CD:00:05:6E,58.85679244995117,70.27938842773438,73.5924301147461,-16.05914306640625,-0.886684775352478,-7.9133195877075195,559.7648434638977
D4:22:CD:00:05:5E,-145.1678924560547,-20.923452377319336,-97.96894073486328,-11.227764129638672,-6.033028602600098,-0.19660091400146484,559.7648434638977
D4:22:CD:00:05:5D,-173.70458984375,-83.29296875,-126.34255981445312,0.9818530082702637,-1.1217849254608154,-0.08579063415527344,559.7940404415131
D4:22:CD:00:05:6B,122.83435821533203,-60.61455535888672,152.8518829345703,-0.4204249978065491,-0.9205360412597656,-3.3759188652038574,559.7940404415131
D4:22:CD:00:49:AA,150.344970703125,-71.51127624511719,125.85525512695312,1.6954724788665771,0.6849286556243896,-1.7931690216064453,559.7940404415131
D4:22:CD:00:05:6E,35.30238342285156,56.37801742553711,42.975852966308594,-0.12400096654891968,-11.056682586669922,-14.887510299682617,559.7940404415131
D4:22:CD:00:05:5E,-144.8120880126953,-13.68245792388916,-91.6919937133789,-5.483920097351074,-3.6048035621643066,-6.692450523376465,559.7940404415131
D4:22:CD:00:05:5D,-174.75950622558594,-79.60062408447266,-120.30014038085938,-1.1236083507537842,0.7403140068054199,-0.5160694122314453,559.8240375518799
D4:22:CD:00:05:6B,123.33999633789062,-63.074954986572266,153.82070922851562,-0.8405641317367554,-3.148813247680664,1.4037513732910156,559.8240375518799
D4:22:CD:00:49:AA,150.77938842773438,-71.57611083984375,126.26602172851562,-3.389124870300293,2.2129836082458496,-0.16139507293701172,559.8240375518799
D4:22:CD:00:05:6E,40.49193572998047,37.097869873046875,32.78363037109375,6.497803688049316,-10.005823135375977,-18.934688568115234,559.8240375518799
D4:22:CD:00:05:5E,-144.20333862304688,-8.668654441833496,-85.02745056152344,1.3944833278656006,-0.47954314947128296,-9.12520980834961,559.8240375518799
D4:22:CD:00:05:5D,-176.67689514160156,-75.86006927490234,-115.30643463134766,-0.5490756034851074,1.0138201713562012,1.2157468795776367,559.88392162323
D4:22:CD:00:05:6B,123.25251007080078,-65.93305969238281,152.28147888183594,-0.5075757503509521,-5.099458694458008,1.8410701751708984,559.88392162323
D4:22:CD:00:49:AA,152.39724731445312,-72.03514862060547,125.6417236328125,-3.741218090057373,1.015747308731079,4.06844425201416,559.88392162323
D4:22:CD:00:05:6E,58.71223831176758,18.763460159301758,27.100852966308594,23.408695220947266,1.4173288345336914,-8.62196159362793,559.88392162323
D4:22:CD:00:05:5E,-146.16424560546875,-5.461981296539307,-78.82637023925781,0.8507513999938965,3.0644803047180176,-10.274698257446289,559.88392162323
D4:22:CD:00:05:5D,-177.70071411132812,-72.80139923095703,-111.90213775634766,1.3602714538574219,-0.9125285148620605,0.12413787841796875,559.9159262180328
D4:22:CD:00:05:6B,127.12162780761719,-67.65631103515625,148.17147827148438,-2.5945253372192383,-2.653954029083252,-0.11235713958740234,559.9159262180328
D4:22:CD:00:49:AA,152.4534149169922,-73.48625183105469,126.27706146240234,-1.397461175918579,0.2132045328617096,1.7171201705932617,559.9159262180328
D4:22:CD:00:05:6E,84.86637878417969,7.391646385192871,26.437000274658203,13.49443244934082,0.7286635637283325,-9.826616287231445,559.9159262180328
D4:22:CD:00:05:5E,-152.5189208984375,-4.598274230957031,-72.72706604003906,-2.280369281768799,3.276430130004883,-6.011878967285156,559.9159262180328
D4:22:CD:00:05:5D,-178.41636657714844,-70.29108428955078,-109.26170349121094,0.5528560876846313,0.3506057858467102,0.5668010711669922,559.943243265152
D4:22:CD:00:05:6B,134.3077850341797,-68.50426483154297,142.11009216308594,-3.430469512939453,0.022159218788146973,-0.9678993225097656,559.943243265152
D4:22:CD:00:49:AA,151.98214721679688,-75.06651306152344,128.04876708984375,-2.430126190185547,0.6049207448959351,-1.6455774307250977,559.943243265152
D4:22:CD:00:05:6E,106.1626205444336,1.7628408670425415,27.961559295654297,-14.31584358215332,10.120170593261719,25.63385009765625,559.943243265152
D4:22:CD:00:05:5E,-160.1361846923828,-6.604484558105469,-66.31268310546875,3.9458742141723633,-0.12861257791519165,-8.649785995483398,559.943243265152
D4:22:CD:00:05:5D,-178.88552856445312,-68.02991485595703,-107.79165649414062,0.6580227613449097,-1.2473814487457275,0.20741748809814453,559.973881483078
D4:22:CD:00:05:6B,141.9555206298828,-68.69281005859375,136.25198364257812,-2.5197062492370605,1.729320764541626,-1.9196739196777344,559.973881483078
D4:22:CD:00:49:AA,153.43101501464844,-75.82836151123047,127.73511505126953,-1.690131425857544,-0.8410384654998779,-5.271483421325684,559.973881483078
D4:22:CD:00:05:6E,107.4100341796875,-0.9665859937667847,27.546934127807617,-6.134075164794922,-2.4357643127441406,0.39957141876220703,559.973881483078
D4:22:CD:00:05:5E,-161.37081909179688,-11.072345733642578,-60.37220001220703,5.888588905334473,-3.2430615425109863,20.615100860595703,559.973881483078
D4:22:CD:00:05:5D,-179.483642578125,-66.3440933227539,-108.69593811035156,0.40986841917037964,-0.3890587091445923,-0.5636272430419922,560.0038821697235
D4:22:CD:00:05:6B,147.93746948242188,-68.89240264892578,131.72653198242188,-1.9034173488616943,2.3843116760253906,-4.15742301940918,560.0038821697235
D4:22:CD:00:49:AA,152.31382751464844,-76.86931610107422,130.36080932617188,-1.914703607559204,-0.4363396167755127,-5.214303970336914,560.0038821697235
D4:22:CD:00:05:6E,111.37423706054688,-3.746401071548462,26.201292037963867,-4.764274597167969,-0.47631949186325073,1.2162551879882812,560.0038821697235
D4:22:CD:00:05:5E,-156.54220581054688,-13.330160140991211,-58.107460021972656,21.084125518798828,-2.2823219299316406,-3.93284273147583,560.0038821697235
D4:22:CD:00:05:5D,177.43177795410156,-64.35273742675781,-109.8538589477539,-6.135488510131836,2.281139850616455,-0.6928129196166992,560.0338997840881
D4:22:CD:00:05:6B,152.44595336914062,-69.55443572998047,127.92160034179688,-1.5542559623718262,3.1488537788391113,-4.953547477722168,560.0338997840881
D4:22:CD:00:49:AA,147.32444763183594,-76.98848724365234,137.5556640625,-2.7040390968322754,-1.6836490631103516,-3.392662525177002,560.0338997840881
D4:22:CD:00:05:6E,111.64288330078125,-8.509969711303711,23.643388748168945,0.6913481950759888,-2.969144821166992,1.6713457107543945,560.0338997840881
D4:22:CD:00:05:5E,-148.07493591308594,-18.14012908935547,-59.05618667602539,5.7412872314453125,-20.89165496826172,-13.467803955078125,560.0338997840881
D4:22:CD:00:05:5D,174.6943817138672,-61.631248474121094,-106.47317504882812,1.416273593902588,-1.4698114395141602,0.6586818695068359,560.0634927749634
D4:22:CD:00:05:6B,155.5657501220703,-70.51212310791016,123.06877136230469,-4.202919006347656,5.3633270263671875,-5.195258140563965,560.0634927749634
D4:22:CD:00:49:AA,141.97727966308594,-76.56358337402344,145.80984497070312,-3.015194892883301,-2.170177936553955,0.7184696197509766,560.0634927749634
D4:22:CD:00:05:6E,108.86693572998047,-18.083934783935547,21.95132827758789,6.658299446105957,-0.9633772373199463,-3.282782554626465,560.0634927749634
D4:22:CD:00:05:5E,-147.98907470703125,-21.837263107299805,-60.03316116333008,15.657337188720703,-17.863067626953125,8.807018280029297,560.0634927749634
D4:22:CD:00:05:5D,173.0344696044922,-59.13715744018555,-104.32168579101562,-0.3449445962905884,1.180722713470459,1.4140214920043945,560.0941121578217
D4:22:CD:00:05:6B,159.34922790527344,-71.59310150146484,118.72062683105469,-9.666404724121094,5.28704833984375,-2.3693695068359375,560.0941121578217
D4:22:CD:00:49:AA,140.77871704101562,-75.6987533569336,149.8817901611328,2.317716121673584,-1.4545488357543945,5.4811601638793945,560.0941121578217
D4:22:CD:00:05:6E,101.1360855102539,-34.09015655517578,22.014545440673828,11.479482650756836,4.584356307983398,21.881378173828125,560.0941121578217
D4:22:CD:00:05:5E,-148.36021423339844,-20.806737899780273,-60.19654846191406,7.732163429260254,-17.514781951904297,4.639950752258301,560.0941121578217
D4:22:CD:00:05:5D,171.7528839111328,-57.324974060058594,-103.06322479248047,-0.4867282509803772,0.4699212312698364,1.4000110626220703,560.1241137981415
D4:22:CD:00:05:6B,167.23593139648438,-73.17533111572266,112.44214630126953,-14.134977340698242,6.936814308166504,4.572919845581055,560.1241137981415
D4:22:CD:00:49:AA,142.4003143310547,-74.88507843017578,150.93045043945312,4.664410591125488,1.6678714752197266,7.391441345214844,560.1241137981415
D4:22:CD:00:05:6E,80.15894317626953,-48.35840606689453,29.566974639892578,32.15442657470703,4.380633354187012,28.985801696777344,560.1241137981415
D4:22:CD:00:05:5E,-146.90232849121094,-18.96837043762207,-59.23146438598633,3.211432456970215,-19.05834197998047,1.539353370666504,560.1241137981415
D4:22:CD:00:05:5D,170.97474670410156,-56.956478118896484,-103.27476501464844,-0.7801952362060547,0.4770019054412842,1.4504022598266602,560.1841101646423
D4:22:CD:00:05:6B,-172.47605895996094,-75.5685806274414,92.6209487915039,-21.120845794677734,9.564178466796875,10.927570343017578,560.1841101646423
D4:22:CD:00:49:AA,145.69268798828125,-74.59381866455078,148.90391540527344,-1.8437507152557373,3.480844497680664,5.320747375488281,560.1841101646423
D4:22:CD:00:05:6E,83.6827621459961,-46.88203430175781,33.440040588378906,26.128585815429688,0.7891906499862671,-4.486827850341797,560.1841101646423
D4:22:CD:00:05:5E,-143.2320556640625,-17.348346710205078,-58.11647415161133,8.147890090942383,-15.042566299438477,0.7605724334716797,560.1841101646423
D4:22:CD:00:05:5D,171.51873779296875,-57.492271423339844,-104.79476928710938,-0.4612889289855957,0.5170423984527588,1.072953224182129,560.2141108512878
D4:22:CD:00:05:6B,-125.70714569091797,-73.3582992553711,48.110923767089844,-14.627132415771484,10.101968765258789,19.311782836914062,560.2141108512878
D4:22:CD:00:49:AA,149.806884765625,-73.9943618774414,145.7145233154297,-2.333911418914795,1.383368968963623,4.509472846984863,560.2141108512878
D4:22:CD:00:05:6E,104.19407653808594,-34.87664794921875,31.81819725036621,9.347532272338867,9.417818069458008,23.033111572265625,560.2141108512878
D4:22:CD:00:05:5E,-144.23574829101562,-13.359308242797852,-58.71086502075195,5.972478866577148,-12.00267219543457,-1.6297569274902344,560.2141108512878
D4:22:CD:00:05:5D,173.4436798095703,-58.607177734375,-106.86173248291016,0.308229923248291,0.40844398736953735,0.8497200012207031,560.2441263198853
D4:22:CD:00:05:6B,-94.21876525878906,-58.243961334228516,21.074172973632812,-14.603342056274414,17.486785888671875,23.880878448486328,560.2441263198853
D4:22:CD:00:49:AA,154.04360961914062,-73.15636444091797,142.55760192871094,-2.475639820098877,1.1941132545471191,4.220037460327148,560.2441263198853
D4:22:CD:00:05:6E,102.90099334716797,-22.798294067382812,34.346405029296875,13.847209930419922,16.693470001220703,9.48185920715332,560.2441263198853
D4:22:CD:00:05:5E,-149.05490112304688,-11.575922966003418,-59.995582580566406,3.451516628265381,-7.776924133300781,-0.6262798309326172,560.2441263198853
D4:22:CD:00:05:5D,176.5255584716797,-60.33776092529297,-109.35051727294922,-0.17394068837165833,1.0689821243286133,1.2027645111083984,560.2736628055573
D4:22:CD:00:05:6B,-66.3158187866211,-39.45671081542969,9.742294311523438,4.245624542236328,15.647100448608398,24.17749786376953,560.2736628055573
D4:22:CD:00:49:AA,158.694091796875,-72.2310791015625,138.04443359375,-2.6579580307006836,0.9581856727600098,8.727598190307617,560.2736628055573
D4:22:CD:00:05:6E,101.07786560058594,-15.760234832763672,40.920936584472656,5.620756149291992,11.084270477294922,-7.579212188720703,560.2736628055573
D4:22:CD:00:05:5E,-150.55284118652344,-12.325708389282227,-62.998802185058594,3.26351261138916,-4.338488578796387,-1.3204727172851562,560.2736628055573
D4:22:CD:00:05:5D,-179.17514038085938,-62.502174377441406,-112.37413787841797,-1.446894645690918,1.6800262928009033,1.8976764678955078,560.303662776947
D4:22:CD:00:05:6B,-41.65463638305664,-21.03852653503418,2.822291612625122,14.7861328125,4.397245407104492,8.339439392089844,560.303662776947
D4:22:CD:00:49:AA,161.4038848876953,-73.10166931152344,135.9864501953125,-4.823640823364258,0.40563976764678955,7.159120559692383,560.303662776947
D4:22:CD:00:05:6E,105.86985778808594,-16.727781295776367,49.25791549682617,-3.627638339996338,5.170415878295898,-5.022972106933594,560.303662776947
D4:22:CD:00:05:5E,-150.9110107421875,-14.831291198730469,-66.70398712158203,4.896017074584961,-1.808868169784546,-4.59450626373291,560.303662776947
D4:22:CD:00:05:5D,-175.26007080078125,-66.34381866455078,-115.82489776611328,2.298506736755371,2.5482640266418457,2.8341455459594727,560.3339807987213
D4:22:CD:00:05:6B,-25.084243774414062,-6.397265434265137,-2.1197237968444824,7.995530128479004,-0.10477471351623535,1.3575553894042969,560.3339807987213
D4:22:CD:00:49:AA,164.16050720214844,-74.92875671386719,133.999267578125,-1.6374690532684326,0.6007053852081299,1.1082267761230469,560.3339807987213
D4:22:CD:00:05:6E,107.98792266845703,-25.64574432373047,58.32734298706055,-6.24754524230957,-1.0774390697479248,-0.9675531387329102,560.3339807987213
D4:22:CD:00:05:5E,-148.33486938476562,-19.66693687438965,-71.02752685546875,6.620716094970703,-0.15961885452270508,-7.055324554443359,560.3339807987213
