Device,EulerX,EulerY,EulerZ,FreeAccX,FreeAccY,FreeAccZ,Timestamp
D4:22:CD:00:05:5D,0.5811051726341248,-1.7776745557785034,-45.55224609375,-0.1077355444431305,0.06655482947826385,0.08173656463623047,378.8277313709259
D4:22:CD:00:05:6B,2.315828561782837,18.111431121826172,-82.14250946044922,-0.03388011455535889,0.019134066998958588,0.07597923278808594,378.8277313709259
D4:22:CD:00:49:AA,2.2588839530944824,-2.9980521202087402,60.02959060668945,-0.06785851716995239,-0.21877995133399963,-0.1739969253540039,378.8277313709259
D4:22:CD:00:05:6E,-10.623353004455566,23.865856170654297,-163.1863250732422,0.03506702929735184,0.06544528901576996,0.0345306396484375,378.8277313709259
D4:22:CD:00:05:5E,-177.16717529296875,-0.4761316776275635,3.762972354888916,0.03782419115304947,-0.05700288712978363,0.06644344329833984,378.8277313709259
D4:22:CD:00:05:5D,0.5840572118759155,-1.7922195196151733,-45.54411697387695,-0.09679234027862549,0.05938636511564255,0.08051109313964844,378.84173488616943
D4:22:CD:00:05:6B,2.320465564727783,18.107955932617188,-82.14348602294922,-0.049151718616485596,0.015131089836359024,0.07178592681884766,378.84173488616943
D4:22:CD:00:49:AA,2.2685749530792236,-3.0314197540283203,60.03424835205078,-0.07552511990070343,-0.24332311749458313,-0.17144298553466797,378.84173488616943
D4:22:CD:00:05:6E,-10.613430976867676,23.857297897338867,-163.18753051757812,0.04235426336526871,0.06349559128284454,0.034023284912109375,378.84173488616943
D4:22:CD:00:05:5E,-177.17498779296875,-0.4700606167316437,3.7569024562835693,0.056883975863456726,-0.012603545561432838,0.12965011596679688,378.84173488616943
D4:22:CD:00:05:5D,0.5847746133804321,-1.8067697286605835,-45.53239059448242,-0.10058373212814331,0.07263518869876862,0.08310222625732422,378.84873056411743
D4:22:CD:00:05:6B,2.327054023742676,18.107383728027344,-82.14598846435547,-0.04256168007850647,0.025889631360769272,0.0626220703125,378.84873056411743
D4:22:CD:00:49:AA,2.27117657661438,-3.064373254776001,60.03791046142578,-0.08647754788398743,-0.23905286192893982,-0.16852569580078125,378.84873056411743
D4:22:CD:00:05:6E,-10.607534408569336,23.850017547607422,-163.1886444091797,0.02712108939886093,0.05132131278514862,-0.018894195556640625,378.84873056411743
D4:22:CD:00:05:5E,-177.1605682373047,-0.46550238132476807,3.756835460662842,0.02929443120956421,-0.05031319707632065,0.06717300415039062,378.84873056411743
D4:22:CD:00:05:6B,2.334010124206543,18.102460861206055,-82.14347839355469,-0.033735424280166626,0.005869447253644466,0.06830024719238281,378.85273361206055
D4:22:CD:00:49:AA,2.2812249660491943,-3.0981178283691406,60.04386520385742,-0.07636487483978271,-0.2456376552581787,-0.18074798583984375,378.85273361206055
D4:22:CD:00:05:6E,-10.587185859680176,23.83892059326172,-163.1920928955078,0.031610749661922455,0.11303789913654327,0.04760456085205078,378.85273361206055
D4:22:CD:00:05:5E,-177.1522216796875,-0.45964333415031433,3.7567224502563477,0.04748748987913132,-0.03168176859617233,0.10031509399414062,378.85273361206055
D4:22:CD:00:05:5D,179.07662963867188,-56.48417663574219,-125.88717651367188,0.3798398971557617,0.2607560157775879,1.5249662399291992,378.8567352294922
D4:22:CD:00:05:6B,-51.203468322753906,-7.292696475982666,-30.525863647460938,-5.392467498779297,-13.045841217041016,6.850866317749023,378.8567352294922
D4:22:CD:00:49:AA,-144.50161743164062,-84.57957458496094,65.02938079833984,-1.5671265125274658,-1.0302891731262207,2.805117607116699,378.8567352294922
D4:22:CD:00:05:6E,104.8504409790039,-50.96849822998047,5.235520839691162,-0.8967379331588745,0.9452219009399414,0.5771608352661133,378.8567352294922
D4:22:CD:00:05:5D,-179.85643005371094,-59.973419189453125,-127.52774810791016,-1.550445795059204,0.3156821131706238,2.69260311126709,378.89423966407776
D4:22:CD:00:05:6B,-41.56187438964844,-0.6578300595283508,-31.28753662109375,-2.6681642532348633,-12.248891830444336,-7.431399345397949,378.89423966407776
D4:22:CD:00:49:AA,-119.98064422607422,-81.76994323730469,42.643333435058594,0.7730257511138916,0.48184114694595337,0.3031806945800781,378.89423966407776
D4:22:CD:00:05:6E,124.41657257080078,-56.56120681762695,6.561342716217041,-3.5121045112609863,0.5544434785842896,0.4961366653442383,378.89423966407776
D4:22:CD:00:05:5E,-159.50485229492188,-49.36548614501953,-75.5909652709961,-3.2606096267700195,-0.3662741184234619,-0.9581394195556641,378.89423966407776
D4:22:CD:00:05:5D,-179.95443725585938,-63.965431213378906,-129.6240692138672,-1.6887235641479492,-0.6754117012023926,2.456000328063965,378.92424035072327
D4:22:CD:00:05:6B,-36.0467529296875,6.826855659484863,-34.960853576660156,1.5067977905273438,-7.812928199768066,-12.934282302856445,378.92424035072327
D4:22:CD:00:49:AA,-112.61127471923828,-79.70761108398438,37.12226486206055,1.2103304862976074,-0.10887986421585083,-1.1472711563110352,378.92424035072327
D4:22:CD:00:05:6E,143.76934814453125,-60.19960021972656,5.1234588623046875,-4.147867202758789,-3.9210023880004883,1.539215087890625,378.92424035072327
D4:22:CD:00:05:5E,-168.38504028320312,-57.42796325683594,-70.87120819091797,-6.050326347351074,2.8862380981445312,1.5391864776611328,378.92424035072327
D4:22:CD:00:05:5D,179.0112762451172,-68.05601501464844,-131.68649291992188,-1.1894152164459229,-0.9517289400100708,-0.23777103424072266,378.98505997657776
D4:22:CD:00:05:6B,-33.39632034301758,14.004433631896973,-41.46297836303711,0.9225343465805054,-5.704889297485352,-16.52743911743164,378.98505997657776
D4:22:CD:00:49:AA,-109.24559020996094,-78.53170013427734,35.12009811401367,0.5273774862289429,0.2707292437553406,-2.0254783630371094,378.98505997657776
D4:22:CD:00:05:6E,154.7034454345703,-62.843868255615234,4.190234661102295,-3.718283176422119,-6.092103004455566,-0.6478404998779297,378.98505997657776
D4:22:CD:00:05:5E,178.1349639892578,-59.55746078491211,-61.75170135498047,-5.475882530212402,5.779232978820801,2.370229721069336,378.98505997657776
D4:22:CD:00:05:5D,177.18820190429688,-71.9411392211914,-132.22154235839844,0.41432303190231323,-1.2796101570129395,-2.1055588722229004,379.01505970954895
D4:22:CD:00:05:6B,-34.25752639770508,19.657991409301758,-50.826358795166016,3.11494779586792,0.25123131275177,-16.786746978759766,379.01505970954895
D4:22:CD:00:49:AA,-106.66815185546875,-78.1356201171875,33.45087814331055,0.01799234375357628,0.029155701398849487,-3.316884994506836,379.01505970954895
D4:22:CD:00:05:6E,158.69491577148438,-64.2978744506836,2.8356213569641113,-0.7634319067001343,-7.173351287841797,-2.9843273162841797,379.01505970954895
D4:22:CD:00:05:5E,169.92108154296875,-59.67839431762695,-56.507720947265625,-5.045283317565918,4.591073989868164,0.3184823989868164,379.01505970954895
D4:22:CD:00:05:5D,174.48814392089844,-75.4289321899414,-130.70108032226562,1.8006644248962402,-0.4400489330291748,-2.7986955642700195,379.04606223106384
D4:22:CD:00:05:6B,-38.41428756713867,22.927154541015625,-64.78251647949219,3.7886648178100586,-1.6794748306274414,-14.565536499023438,379.04606223106384
D4:22:CD:00:49:AA,-101.8797378540039,-78.23375701904297,29.047988891601562,-0.697351336479187,-0.886735200881958,-5.863015174865723,379.04606223106384
D4:22:CD:00:05:6E,157.64154052734375,-64.89906311035156,2.1668286323547363,1.4079749584197998,-6.916011810302734,-4.495506286621094,379.04606223106384
D4:22:CD:00:05:5E,161.68283081054688,-58.95167922973633,-53.62199401855469,-9.18075942993164,5.683618545532227,0.2169179916381836,379.04606223106384
D4:22:CD:00:05:5D,170.4064483642578,-78.22579193115234,-127.10919189453125,1.4658865928649902,-0.08595705032348633,-3.6043386459350586,379.0747413635254
D4:22:CD:00:05:6B,-44.351219177246094,22.36607551574707,-83.49864196777344,-6.370909690856934,-10.461061477661133,-19.42422103881836,379.0747413635254
D4:22:CD:00:49:AA,-95.2647476196289,-78.49869537353516,22.854618072509766,-1.4735667705535889,-0.7448348999023438,-6.031462669372559,379.0747413635254
D4:22:CD:00:05:6E,151.66275024414062,-64.5281753540039,3.539757013320923,1.5721914768218994,-7.297218322753906,-5.440143585205078,379.0747413635254
D4:22:CD:00:05:5E,151.91688537597656,-55.13433074951172,-51.53297424316406,-8.457780838012695,6.330855369567871,2.1266794204711914,379.0747413635254
D4:22:CD:00:05:5D,164.43893432617188,-80.15428161621094,-120.72200775146484,-0.09271161258220673,-0.05958676338195801,-2.6568150520324707,379.10474705696106
D4:22:CD:00:05:6B,-48.09212112426758,17.23543357849121,-100.95100402832031,-8.13583755493164,-16.642601013183594,-9.862764358520508,379.10474705696106
D4:22:CD:00:49:AA,-88.67141723632812,-78.52375030517578,16.212175369262695,-0.2863730788230896,-0.8138556480407715,-3.6297130584716797,379.10474705696106
D4:22:CD:00:05:6E,140.1243133544922,-63.04729080200195,7.79276704788208,1.8454487323760986,-5.9075822830200195,-5.1315202713012695,379.10474705696106
D4:22:CD:00:05:5E,143.7137451171875,-48.365867614746094,-51.1724853515625,4.438512802124023,16.203441619873047,6.031457901000977,379.10474705696106
D4:22:CD:00:05:5D,155.35772705078125,-81.16877746582031,-111.9443588256836,-1.4584171772003174,0.1542363464832306,-2.4210386276245117,379.13474011421204
D4:22:CD:00:05:6B,-54.28411102294922,14.571449279785156,-105.43821716308594,-5.4608869552612305,15.43242073059082,-21.029155731201172,379.13474011421204
D4:22:CD:00:49:AA,-80.78055572509766,-78.2275619506836,7.965404033660889,0.2381577491760254,-0.4276217222213745,-4.445747375488281,379.13474011421204
D4:22:CD:00:05:6E,127.26858520507812,-60.70155715942383,13.495552062988281,2.999980926513672,-2.510861873626709,-5.396486282348633,379.13474011421204
D4:22:CD:00:05:5E,148.13291931152344,-41.35356140136719,-52.98619079589844,0.950864315032959,-9.33975601196289,-3.3216686248779297,379.13474011421204
D4:22:CD:00:05:5D,145.35385131835938,-80.70506286621094,-101.90948486328125,-1.1101024150848389,-3.3020544052124023,-1.2129735946655273,379.1647698879242
D4:22:CD:00:05:6B,-63.17123794555664,18.65102767944336,-92.6749267578125,-15.000774383544922,-11.762481689453125,12.413082122802734,379.1647698879242
D4:22:CD:00:49:AA,-74.3476791381836,-78.19085693359375,1.4173792600631714,-0.20591992139816284,-0.8351993560791016,-5.102468490600586,379.1647698879242
D4:22:CD:00:05:6E,119.25130462646484,-57.820289611816406,17.658748626708984,4.3515167236328125,-1.555145263671875,-3.52810001373291,379.1647698879242
D4:22:CD:00:05:5E,153.09718322753906,-37.23881912231445,-50.89315414428711,0.39820396900177,-13.213794708251953,-4.4807233810424805,379.1647698879242
D4:22:CD:00:05:5D,138.32948303222656,-78.5014877319336,-93.38480377197266,-0.546910285949707,-3.047656536102295,1.1027412414550781,379.1942837238312
D4:22:CD:00:05:6B,-50.0969123840332,21.281740188598633,-72.74203491210938,-8.717584609985352,-19.957088470458984,-18.78362274169922,379.1942837238312
D4:22:CD:00:49:AA,-73.62340545654297,-78.77796936035156,0.16942715644836426,0.36582499742507935,-3.91500186920166,-0.33678627014160156,379.1942837238312
D4:22:CD:00:05:6E,115.71507263183594,-54.95652389526367,19.694799423217773,6.852025032043457,-3.1038928031921387,1.0265026092529297,379.1942837238312
D4:22:CD:00:05:5E,152.17144775390625,-33.706459045410156,-49.30287551879883,6.448060035705566,-14.456960678100586,-2.4901885986328125,379.1942837238312
D4:22:CD:00:05:5D,132.23184204101562,-75.78118896484375,-86.0741195678711,-1.510047197341919,-1.438499927520752,6.178867340087891,379.22444462776184
D4:22:CD:00:05:6B,-42.73219299316406,17.93826675415039,-52.91206359863281,-5.872312545776367,-0.7446129322052002,-10.434988021850586,379.22444462776184
D4:22:CD:00:49:AA,-72.83585357666016,-78.97581481933594,-1.6635147333145142,0.1862207055091858,-3.681521415710449,3.1970443725585938,379.22444462776184
D4:22:CD:00:05:6E,112.7874526977539,-52.46388626098633,20.66798973083496,7.602408409118652,-3.630981922149658,7.800567626953125,379.22444462776184
D4:22:CD:00:05:5E,149.5672607421875,-32.10730743408203,-46.691898345947266,9.805452346801758,-8.138866424560547,-2.2607364654541016,379.22444462776184
D4:22:CD:00:05:5D,123.66385650634766,-73.2019271850586,-78.9255142211914,-0.8396550416946411,-4.9783782958984375,8.870967864990234,379.2851667404175
D4:22:CD:00:05:6B,-37.558040618896484,10.628850936889648,-37.25715255737305,-7.105436325073242,10.337646484375,-8.542802810668945,379.2851667404175
D4:22:CD:00:49:AA,-72.79679107666016,-78.59569549560547,-1.7836151123046875,-0.46129292249679565,-5.728415489196777,5.697116851806641,379.2851667404175
D4:22:CD:00:05:6E,100.46630859375,-51.71468734741211,19.262720108032227,4.418286323547363,2.303328037261963,5.779149055480957,379.2851667404175
D4:22:CD:00:05:5E,147.55389404296875,-30.727542877197266,-45.64713668823242,5.456354141235352,-9.363931655883789,-2.933228015899658,379.2851667404175
D4:22:CD:00:05:5D,112.10382843017578,-71.19251251220703,-70.74567413330078,8.192447662353516,-14.49843978881836,3.49774169921875,379.31450152397156
D4:22:CD:00:05:6B,-42.005821228027344,1.6321543455123901,-21.884294509887695,-6.03659725189209,7.533969879150391,-10.919143676757812,379.31450152397156
D4:22:CD:00:49:AA,-83.61112976074219,-77.84488677978516,8.303826332092285,9.248773574829102,3.0479321479797363,-2.855421543121338,379.31450152397156
D4:22:CD:00:05:6E,80.38186645507812,-55.779205322265625,17.13547706604004,23.683090209960938,4.155359268188477,-11.004613876342773,379.31450152397156
D4:22:CD:00:05:5E,147.58920288085938,-29.957229614257812,-45.55280685424805,4.811760902404785,-3.4151153564453125,0.24249744415283203,379.31450152397156
D4:22:CD:00:05:5D,114.55817413330078,-69.52173614501953,-78.51668548583984,25.808494567871094,7.250959396362305,-0.05423545837402344,379.3447790145874
D4:22:CD:00:05:6B,-48.53275680541992,-5.167774677276611,-5.590762615203857,0.9185349941253662,5.58481502532959,4.933008193969727,379.3447790145874
D4:22:CD:00:49:AA,-98.42169189453125,-77.13573455810547,19.222400665283203,13.231048583984375,0.7540090084075928,-4.803685188293457,379.3447790145874
D4:22:CD:00:05:6E,75.85071563720703,-57.35887145996094,16.128524780273438,4.650758743286133,4.537167549133301,-2.059385299682617,379.3447790145874
D4:22:CD:00:05:5E,145.8877410888672,-30.391897201538086,-45.65260314941406,6.981510162353516,-3.698453426361084,-0.9213466644287109,379.3447790145874
D4:22:CD:00:05:5D,128.7765655517578,-64.91397857666016,-97.40668487548828,24.923503875732422,14.17535400390625,4.736116409301758,379.3743143081665
D4:22:CD:00:05:6B,-55.21044158935547,-9.027923583984375,8.247020721435547,1.580045223236084,16.300426483154297,-23.904895782470703,379.3743143081665
D4:22:CD:00:49:AA,-106.33893585205078,-77.4818115234375,23.94789695739746,3.509941577911377,3.8422799110412598,5.805722236633301,379.3743143081665
D4:22:CD:00:05:6E,77.50740051269531,-57.289852142333984,18.37932586669922,1.6196327209472656,10.911294937133789,1.397395133972168,379.3743143081665
D4:22:CD:00:05:5E,142.85842895507812,-31.35831069946289,-45.7573127746582,6.100579261779785,-3.6379590034484863,-2.0387463569641113,379.3743143081665
D4:22:CD:00:05:5D,143.56137084960938,-55.24148941040039,-114.97237396240234,10.144689559936523,5.675502777099609,1.8154420852661133,379.4048230648041
D4:22:CD:00:05:6B,-74.95171356201172,-9.522326469421387,17.304140090942383,-1.1542720794677734,14.296762466430664,20.481414794921875,379.4048230648041
D4:22:CD:00:49:AA,-113.92457580566406,-77.76579284667969,30.332433700561523,-0.9558053016662598,3.298910617828369,4.363180160522461,379.4048230648041
D4:22:CD:00:05:6E,78.570068359375,-56.55921936035156,21.86222267150879,-2.7240867614746094,11.80462646484375,0.5253791809082031,379.4048230648041
D4:22:CD:00:05:5E,139.04901123046875,-32.23103713989258,-45.66270446777344,7.436326026916504,-4.549809455871582,-3.4017248153686523,379.4048230648041
D4:22:CD:00:05:5D,153.81105041503906,-42.89720153808594,-126.87757110595703,1.4380056858062744,1.6150436401367188,-4.891253471374512,379.4351134300232
D4:22:CD:00:05:6B,-74.68225860595703,-12.13216495513916,19.7491397857666,-6.582849502563477,12.086172103881836,0.351715087890625,379.4351134300232
D4:22:CD:00:49:AA,-118.5457992553711,-77.33014678955078,34.83403015136719,6.494167327880859,0.7491029500961304,1.0993165969848633,379.4351134300232
D4:22:CD:00:05:6E,80.37963104248047,-55.51142501831055,22.934600830078125,2.7633142471313477,6.271232604980469,-0.059345245361328125,379.4351134300232
D4:22:CD:00:05:5E,137.701171875,-33.17978286743164,-44.36735534667969,5.681220054626465,-4.590271949768066,-3.44858980178833,379.4351134300232
D4:22:CD:00:05:5D,164.353271484375,-30.307191848754883,-134.2450408935547,-5.730925559997559,1.408478021621704,-10.239351272583008,379.46459221839905
D4:22:CD:00:05:6B,-73.46255493164062,-18.468952178955078,20.61317253112793,1.831475019454956,5.761655807495117,-7.174642562866211,379.46459221839905
D4:22:CD:00:49:AA,-119.81444549560547,-77.94451904296875,36.85276412963867,4.148711204528809,1.8443288803100586,-0.8678092956542969,379.46459221839905
D4:22:CD:00:05:6E,84.49943542480469,-53.718658447265625,23.064712524414062,2.701643943786621,2.3258018493652344,-2.01210880279541,379.46459221839905
D4:22:CD:00:05:5E,137.55410766601562,-33.82032012939453,-43.44367980957031,2.8365116119384766,-4.656909942626953,-2.908121109008789,379.46459221839905
D4:22:CD:00:05:5D,174.0855712890625,-21.118408203125,-138.62477111816406,-13.71037483215332,3.257894992828369,-9.532569885253906,379.4954078197479
D4:22:CD:00:05:6B,-83.00022888183594,-24.658510208129883,25.33113670349121,3.1315860748291016,1.078169584274292,-3.971062660217285,379.4954078197479
D4:22:CD:00:49:AA,-118.16478729248047,-78.3704605102539,36.02384948730469,-0.9036601781845093,2.535433292388916,-1.4290361404418945,379.4954078197479
D4:22:CD:00:05:6E,89.92341613769531,-51.327171325683594,22.877351760864258,1.6756434440612793,1.4318830966949463,-2.9720163345336914,379.4954078197479
D4:22:CD:00:05:5E,138.27345275878906,-33.78978729248047,-44.51704788208008,1.5247166156768799,-4.02337646484375,-2.47597599029541,379.4954078197479
D4:22:CD:00:05:5D,177.09811401367188,-17.10350227355957,-142.58767700195312,-12.654159545898438,3.189344882965088,-11.430364608764648,379.524719953537
D4:22:CD:00:05:6B,-93.54869842529297,-32.523990631103516,32.66785430908203,6.123113632202148,2.3125405311584473,5.710173606872559,379.524719953537
D4:22:CD:00:49:AA,-114.96833801269531,-78.4112319946289,34.71183395385742,-0.30918145179748535,0.030954979360103607,-2.400745391845703,379.524719953537
D4:22:CD:00:05:6E,93.61930847167969,-49.191497802734375,23.547578811645508,5.995064735412598,-0.821320652961731,-3.5306835174560547,379.524719953537
D4:22:CD:00:05:5E,140.04261779785156,-33.388389587402344,-46.52022171020508,4.708879470825195,-5.1635847091674805,-2.5729503631591797,379.524719953537
D4:22:CD:00:05:5D,174.1391143798828,-17.698925018310547,-145.61732482910156,-11.211112976074219,0.9156612157821655,-11.880195617675781,379.58437275886536
D4:22:CD:00:05:6B,-99.505615234375,-43.74321365356445,42.40522766113281,9.651031494140625,6.044645309448242,6.292472839355469,379.58437275886536
D4:22:CD:00:49:AA,-109.3974609375,-78.92675018310547,31.364604949951172,3.1789584159851074,0.8735382556915283,-4.648186683654785,379.58437275886536
D4:22:CD:00:05:6E,95.80152893066406,-47.9755973815918,26.497650146484375,6.047725677490234,-1.5268301963806152,-5.319510459899902,379.58437275886536
D4:22:CD:00:05:5E,142.2942352294922,-32.617435455322266,-49.03779602050781,2.533649444580078,-3.4840497970581055,-1.9788269996643066,379.58437275886536
D4:22:CD:00:05:5D,171.12136840820312,-22.217100143432617,-147.03526306152344,-15.99609375,-3.097707748413086,-9.097585678100586,379.61496329307556
D4:22:CD:00:05:6B,-109.65460205078125,-54.97328567504883,57.378841400146484,6.355352401733398,24.21178436279297,22.987579345703125,379.61496329307556
D4:22:CD:00:49:AA,-103.6803970336914,-79.58078002929688,27.107524871826172,5.3109893798828125,1.3067853450775146,-3.2085561752319336,379.61496329307556
D4:22:CD:00:05:6E,97.47079467773438,-46.57105255126953,33.186920166015625,9.128509521484375,-3.488689422607422,-4.090083122253418,379.61496329307556
D4:22:CD:00:05:5E,143.92236328125,-31.782541275024414,-51.33125686645508,5.036871910095215,-3.5449581146240234,-0.982478141784668,379.61496329307556
D4:22:CD:00:05:5D,171.4940643310547,-25.670555114746094,-145.14048767089844,-8.732572555541992,1.6130092144012451,18.99842071533203,379.64495635032654
D4:22:CD:00:05:6B,-112.89859771728516,-60.368709564208984,63.85888671875,5.968084335327148,15.144346237182617,7.782176971435547,379.64495635032654
D4:22:CD:00:49:AA,-96.32767486572266,-79.90833282470703,20.12849998474121,2.00545597076416,-0.2923213839530945,-3.4660587310791016,379.64495635032654
D4:22:CD:00:05:6E,105.0353775024414,-44.46333694458008,45.66391372680664,7.127344131469727,2.8697056770324707,0.24110031127929688,379.64495635032654
D4:22:CD:00:05:5E,144.81167602539062,-31.272369384765625,-52.71940994262695,4.692094802856445,-3.2613024711608887,-0.7443246841430664,379.64495635032654
D4:22:CD:00:05:5D,177.5406951904297,-26.277212142944336,-139.5580596923828,-17.57807159423828,-12.115156173706055,0.8039188385009766,379.6749486923218
D4:22:CD:00:05:6B,-112.04756927490234,-55.54317092895508,58.007144927978516,10.664384841918945,12.173442840576172,0.6231441497802734,379.6749486923218
D4:22:CD:00:49:AA,-89.51106262207031,-80.5729751586914,13.667683601379395,-0.11722472310066223,0.4841330647468567,1.6562881469726562,379.6749486923218
D4:22:CD:00:05:6E,116.50360107421875,-39.848968505859375,57.646812438964844,-2.2585573196411133,0.842047929763794,10.7376708984375,379.6749486923218
D4:22:CD:00:05:5E,144.76792907714844,-30.84839630126953,-53.153446197509766,5.183658599853516,-3.375859260559082,-0.9275321960449219,379.6749486923218
D4:22:CD:00:05:5D,-179.70541381835938,-25.72808265686035,-134.23910522460938,-13.821455001831055,-15.380245208740234,5.883598327636719,379.70511412620544
D4:22:CD:00:05:6B,-110.81051635742188,-44.639835357666016,46.47365951538086,10.151021957397461,10.48423957824707,19.691162109375,379.70511412620544
D4:22:CD:00:49:AA,-90.93738555908203,-81.08465576171875,15.6368989944458,1.552783727645874,-1.2423310279846191,5.5329437255859375,379.70511412620544
D4:22:CD:00:05:6E,123.7988052368164,-29.268518447875977,67.19586944580078,19.672683715820312,-11.862571716308594,27.92212677001953,379.70511412620544
D4:22:CD:00:05:5E,144.3263397216797,-30.911100387573242,-52.84780502319336,3.8150854110717773,-2.90958309173584,0.3987922668457031,379.70511412620544
D4:22:CD:00:05:5D,176.9093475341797,-24.01255989074707,-131.56834411621094,-13.340753555297852,-7.219063758850098,6.879581451416016,379.7351448535919
D4:22:CD:00:05:6B,-105.83467864990234,-36.35327911376953,36.249874114990234,12.715278625488281,6.462972640991211,4.266557693481445,379.7351448535919
D4:22:CD:00:49:AA,-100.24960327148438,-81.48905944824219,26.326723098754883,2.1141738891601562,-1.1105473041534424,4.085933685302734,379.7351448535919
D4:22:CD:00:05:6E,125.56175994873047,-12.564961433410645,74.28564453125,16.286964416503906,-4.688236236572266,26.956466674804688,379.7351448535919
D4:22:CD:00:05:5E,144.11569213867188,-32.95501708984375,-50.70121383666992,4.438971519470215,-3.3823723793029785,0.6859121322631836,379.7351448535919
D4:22:CD:00:05:5D,172.90638732910156,-21.725963592529297,-130.60867309570312,-7.187740325927734,-5.216063499450684,3.348025321960449,379.765118598938
D4:22:CD:00:05:6B,-105.80768585205078,-33.001220703125,28.666912078857422,2.89486026763916,0.5653105974197388,-0.5345821380615234,379.765118598938
D4:22:CD:00:49:AA,-97.75379180908203,-82.53443908691406,25.249013900756836,3.022085189819336,2.486536979675293,5.105177879333496,379.765118598938
D4:22:CD:00:05:6E,124.97854614257812,10.720215797424316,79.45844268798828,20.795448303222656,5.066737174987793,18.016387939453125,379.765118598938
D4:22:CD:00:05:5E,143.62637329101562,-36.45747756958008,-46.98740005493164,5.458808898925781,-1.511650800704956,-0.19629859924316406,379.765118598938
D4:22:CD:00:05:5D,169.40110778808594,-20.93349838256836,-131.03143310546875,-10.003398895263672,-1.1504364013671875,-0.6249465942382812,379.79474449157715
D4:22:CD:00:05:6B,-108.0800552368164,-35.43763732910156,24.04694175720215,-3.190800666809082,0.7987188100814819,-2.1337571144104004,379.79474449157715
D4:22:CD:00:49:AA,-100.04363250732422,-83.70237731933594,27.891630172729492,5.408032417297363,2.254772186279297,3.984170913696289,379.79474449157715
D4:22:CD:00:05:6E,124.98076629638672,35.74180221557617,85.01268768310547,15.481508255004883,16.691211700439453,2.739501953125,379.79474449157715
D4:22:CD:00:05:5E,141.58834838867188,-39.431785583496094,-43.544551849365234,5.699481964111328,-2.1286425590515137,0.9202861785888672,379.79474449157715
D4:22:CD:00:05:5D,167.19180297851562,-22.637802124023438,-131.5452880859375,-7.103630065917969,2.156982898712158,-3.5002126693725586,379.82470631599426
D4:22:CD:00:05:6B,-111.42567443847656,-42.85221862792969,22.478015899658203,-4.463761329650879,3.2113585472106934,-3.034696578979492,379.82470631599426
D4:22:CD:00:49:AA,-111.80777740478516,-84.76591491699219,38.804107666015625,7.138888359069824,3.4604039192199707,2.908869743347168,379.82470631599426
D4:22:CD:00:05:6E,124.79676818847656,58.916988372802734,91.96304321289062,6.241649627685547,12.626434326171875,-7.252738952636719,379.82470631599426
D4:22:CD:00:05:5E,138.88011169433594,-42.00446701049805,-40.86328125,4.7328596115112305,-6.846637725830078,1.598257064819336,379.82470631599426
D4:22:CD:00:05:5D,164.80523681640625,-27.231863021850586,-132.4853057861328,-3.4187397956848145,2.477287769317627,-6.047915458679199,379.88502287864685
D4:22:CD:00:05:6B,-118.39865112304688,-52.567970275878906,24.427526473999023,-5.552614212036133,4.358790397644043,-3.0902037620544434,379.88502287864685
D4:22:CD:00:49:AA,-131.6610565185547,-85.56615447998047,56.5540771484375,5.373082160949707,1.7818000316619873,2.1152782440185547,379.88502287864685
D4:22:CD:00:05:6E,132.24449157714844,76.11811065673828,104.0226821899414,-0.010671451687812805,6.0223588943481445,-6.913114547729492,379.88502287864685
D4:22:CD:00:05:5E,137.44204711914062,-44.66841125488281,-38.008094787597656,4.920675277709961,-6.025077819824219,0.15266132354736328,379.88502287864685
D4:22:CD:00:05:5D,163.27651977539062,-34.20817565917969,-133.6590576171875,-3.8753132820129395,2.800645351409912,-4.069104194641113,379.91502380371094
D4:22:CD:00:05:6B,-128.94439697265625,-62.81017303466797,31.681739807128906,-4.281558990478516,4.402324676513672,-3.684195041656494,379.91502380371094
D4:22:CD:00:49:AA,-153.7600555419922,-85.42782592773438,75.99784851074219,1.17012619972229,-0.6765468120574951,-0.6839122772216797,379.91502380371094
D4:22:CD:00:05:6E,173.76156616210938,85.3471450805664,148.40892028808594,-3.2381467819213867,4.3935546875,-6.164573669433594,379.91502380371094
D4:22:CD:00:05:5E,136.26559448242188,-47.17084503173828,-35.156394958496094,4.164289474487305,-4.689653396606445,-2.12202787399292,379.91502380371094
D4:22:CD:00:05:5D,161.4058837890625,-43.56018829345703,-133.79812622070312,-4.330580711364746,1.8477532863616943,-3.9311938285827637,379.9452750682831
D4:22:CD:00:05:6B,-150.3338165283203,-71.14799499511719,49.899986267089844,-3.8774232864379883,3.723177433013916,-4.217578887939453,379.9452750682831
D4:22:CD:00:49:AA,-169.90040588378906,-84.73202514648438,90.05244445800781,-0.16335377097129822,-0.2583547830581665,-1.6061124801635742,379.9452750682831
D4:22:CD:00:05:6E,-124.95805358886719,84.92974090576172,-147.82582092285156,-4.902892112731934,-0.8004742860794067,-5.413336753845215,379.9452750682831
D4:22:CD:00:05:5E,135.139892578125,-49.59110641479492,-32.795814514160156,2.324190616607666,-2.1272101402282715,-2.810513496398926,379.9452750682831
D4:22:CD:00:05:5D,159.89154052734375,-54.36131286621094,-132.0222625732422,-2.4946789741516113,-0.08960969746112823,-1.365692138671875,379.9748475551605
D4:22:CD:00:05:6B,172.73231506347656,-74.0750961303711,81.66056823730469,-6.082403182983398,5.616081237792969,-3.2711124420166016,379.9748475551605
D4:22:CD:00:49:AA,-177.2086181640625,-83.83299255371094,96.01956176757812,2.427095890045166,-0.123109370470047,-1.3138513565063477,379.9748475551605
D4:22:CD:00:05:6E,-127.71723175048828,85.06275177001953,-147.93014526367188,-6.302177429199219,2.04758882522583,-8.477773666381836,379.9748475551605
D4:22:CD:00:05:5E,132.99417114257812,-51.95960235595703,-30.738162994384766,1.5356874465942383,0.21516183018684387,-3.0912117958068848,379.9748475551605
D4:22:CD:00:05:5D,156.94790649414062,-65.4041976928711,-126.48846435546875,3.2882895469665527,2.6783108711242676,3.022714614868164,380.00506711006165
D4:22:CD:00:05:6B,140.70724487304688,-71.2254638671875,107.53707122802734,-4.557821273803711,4.800042152404785,-4.617469787597656,380.00506711006165
D4:22:CD:00:49:AA,-179.92042541503906,-83.45779418945312,97.38973236083984,3.994797706604004,-0.22937804460525513,-3.4488697052001953,380.00506711006165
D4:22:CD:00:05:6E,-173.31690979003906,85.08103942871094,170.3824920654297,-2.0529284477233887,-2.3397231101989746,-9.529769897460938,380.00506711006165
D4:22:CD:00:05:5E,130.3905029296875,-54.01958465576172,-28.83501625061035,0.8782428503036499,1.0558278560638428,-3.11453914642334,380.00506711006165
D4:22:CD:00:05:5D,146.18667602539062,-74.52750396728516,-111.49988555908203,7.138983726501465,2.680607795715332,1.520400047302246,380.0347013473511
D4:22:CD:00:05:6B,121.65583038330078,-66.39212799072266,118.98517608642578,-3.847961902618408,4.631476402282715,-6.073639869689941,380.0347013473511
D4:22:CD:00:49:AA,175.9086151123047,-83.69737243652344,99.90428924560547,1.9227628707885742,-0.013493141159415245,-4.748448371887207,380.0347013473511
D4:22:CD:00:05:6E,150.58023071289062,79.86962127685547,137.80062866210938,1.126706838607788,-0.8026427030563354,-9.695867538452148,380.0347013473511
D4:22:CD:00:05:5E,128.37648010253906,-55.561729431152344,-28.032249450683594,-0.8101367950439453,0.8688931465148926,-3.5215134620666504,380.0347013473511
D4:22:CD:00:05:5D,118.54688262939453,-79.05117797851562,-79.02434539794922,5.889853477478027,6.626940727233887,-0.4509258270263672,380.06470918655396
D4:22:CD:00:05:6B,108.5439682006836,-61.88861846923828,122.45146942138672,-3.3651809692382812,4.935707092285156,-7.773019790649414,380.06470918655396
D4:22:CD:00:49:AA,171.9443359375,-84.46717834472656,102.48178100585938,0.373473584651947,0.2827260494232178,-5.977689743041992,380.06470918655396
D4:22:CD:00:05:6E,134.78948974609375,69.7914047241211,128.40835571289062,-4.852161407470703,3.4696269035339355,-11.655656814575195,380.06470918655396
D4:22:CD:00:05:5E,127.76297760009766,-56.39395523071289,-29.14602279663086,0.4803403615951538,-1.2302937507629395,-3.598998546600342,380.06470918655396
D4:22:CD:00:05:5D,87.92639923095703,-78.27262115478516,-46.06112289428711,9.190620422363281,2.492037773132324,-5.395403861999512,380.094833612442
D4:22:CD:00:05:6B,99.42649841308594,-57.959510803222656,122.9306640625,-2.3430418968200684,6.439056396484375,-8.583646774291992,380.094833612442
D4:22:CD:00:49:AA,172.209228515625,-85.31132507324219,101.69956970214844,0.7394282817840576,-0.48517751693725586,-6.16232967376709,380.094833612442
D4:22:CD:00:05:6E,121.83045196533203,57.12211227416992,125.54904174804688,-7.705666542053223,14.566530227661133,-17.717342376708984,380.094833612442
D4:22:CD:00:05:5E,129.5695037841797,-56.98099136352539,-31.57935905456543,1.6739928722381592,-2.432753562927246,-3.057478904724121,380.094833612442
D4:22:CD:00:05:5D,78.91468048095703,-76.0800552368164,-32.49496078491211,10.459493637084961,3.0624189376831055,-8.992542266845703,380.12496614456177
D4:22:CD:00:05:6B,95.6091079711914,-54.271080017089844,122.60689544677734,-2.0259299278259277,7.929019927978516,-8.63072395324707,380.12496614456177
D4:22:CD:00:49:AA,174.06178283691406,-85.88848876953125,99.73189544677734,1.4623281955718994,-0.9639796018600464,-5.081189155578613,380.12496614456177
D4:22:CD:00:05:6E,112.59136962890625,48.5145149230957,128.02288818359375,-0.9204388856887817,4.5572662353515625,-21.41796112060547,380.12496614456177
D4:22:CD:00:05:5E,132.72743225097656,-57.61916732788086,-35.55390167236328,1.5730671882629395,-4.99620246887207,-0.8679332733154297,380.12496614456177
D4:22:CD:00:05:5D,86.62818145751953,-74.71228790283203,-35.768856048583984,8.262519836425781,7.704685211181641,-8.230979919433594,380.1856107711792
D4:22:CD:00:05:6B,96.8567123413086,-50.804466247558594,122.4161605834961,-2.8622026443481445,8.084367752075195,-5.857787132263184,380.1856107711792
D4:22:CD:00:49:AA,176.60195922851562,-85.71522521972656,97.18196868896484,3.2661643028259277,-1.6976544857025146,-2.696746349334717,380.1856107711792
D4:22:CD:00:05:6E,132.14718627929688,54.15190505981445,131.5033721923828,3.658081531524658,-9.192636489868164,-7.870072364807129,380.1856107711792
D4:22:CD:00:05:5E,135.62777709960938,-58.45414733886719,-40.64897537231445,5.056607246398926,-5.246991157531738,1.5260210037231445,380.1856107711792
D4:22:CD:00:05:5D,102.1456298828125,-73.29578399658203,-49.065345764160156,4.797874450683594,5.842301368713379,-1.6555395126342773,380.2150912284851
D4:22:CD:00:05:6B,99.59368133544922,-48.465614318847656,121.81790161132812,-4.255608558654785,8.117586135864258,-1.4854097366333008,380.2150912284851
D4:22:CD:00:49:AA,-176.15830993652344,-85.4968032836914,89.94049835205078,5.052544593811035,-1.7930428981781006,-1.306269645690918,380.2150912284851
D4:22:CD:00:05:6E,167.2592315673828,70.45881652832031,147.32281494140625,-7.9884538650512695,35.73106384277344,-8.303775787353516,380.2150912284851
D4:22:CD:00:05:5E,138.75613403320312,-60.097721099853516,-44.98055648803711,4.727970123291016,-5.483214378356934,3.3208723068237305,380.2150912284851
D4:22:CD:00:05:5D,111.1524658203125,-73.77959442138672,-62.25315856933594,2.9836950302124023,-7.779386520385742,2.2749366760253906,380.24508237838745
D4:22:CD:00:05:6B,101.20088195800781,-47.6236457824707,120.0068588256836,-5.027113914489746,11.47341537475586,1.8131332397460938,380.24508237838745
D4:22:CD:00:49:AA,-170.97752380371094,-85.18346405029297,84.8889389038086,3.3318610191345215,0.34236884117126465,1.8845434188842773,380.24508237838745
D4:22:CD:00:05:6E,-99.5849838256836,80.12691497802734,-126.14799499511719,-2.8331403732299805,11.770730972290039,-17.013553619384766,380.24508237838745
D4:22:CD:00:05:5E,141.76385498046875,-62.84775924682617,-47.12235641479492,5.098513603210449,-7.223875999450684,3.9877090454101562,380.24508237838745
D4:22:CD:00:05:5D,121.87930297851562,-75.45047760009766,-78.39757537841797,0.7246102094650269,-12.51911735534668,5.224673271179199,380.274631023407
D4:22:CD:00:05:6B,103.08716583251953,-47.71479415893555,117.19697570800781,-4.975246429443359,12.666290283203125,1.698134422302246,380.274631023407
D4:22:CD:00:49:AA,-171.18228149414062,-84.44642639160156,85.56109619140625,2.4266161918640137,-1.5082082748413086,3.746487617492676,380.274631023407
D4:22:CD:00:05:6E,-46.8564453125,64.73110961914062,-76.17125701904297,-2.302114486694336,0.9675629138946533,-9.236005783081055,380.274631023407
D4:22:CD:00:05:5E,145.70199584960938,-66.0713882446289,-48.04916763305664,-0.3361460566520691,-9.520586013793945,2.237057685852051,380.274631023407
D4:22:CD:00:05:5D,134.1258544921875,-74.00611114501953,-92.28604125976562,-11.726419448852539,-5.324767112731934,14.598983764648438,380.3046841621399
D4:22:CD:00:05:6B,109.20436096191406,-48.280704498291016,113.5685806274414,-2.994140625,11.925094604492188,1.035257339477539,380.3046841621399
D4:22:CD:00:49:AA,-176.05282592773438,-83.08023834228516,90.75735473632812,2.504988193511963,-4.552181243896484,5.351517677307129,380.3046841621399
D4:22:CD:00:05:6E,-33.5840950012207,46.970882415771484,-63.2259407043457,5.770418167114258,-10.412551879882812,1.7669782638549805,380.3046841621399
D4:22:CD:00:05:5E,155.34727478027344,-67.4120864868164,-52.31376266479492,-11.726900100708008,11.972003936767578,8.108396530151367,380.3046841621399
D4:22:CD:00:05:5D,149.6357421875,-71.73194122314453,-102.21168518066406,-0.7137442827224731,9.649175643920898,0.07564544677734375,380.36488485336304
D4:22:CD:00:05:6B,120.8564682006836,-49.33513259887695,109.82225799560547,1.1815123558044434,3.807873249053955,-1.7541122436523438,380.36488485336304
D4:22:CD:00:49:AA,177.8656463623047,-81.8921890258789,98.3037338256836,-5.458768844604492,0.1856471598148346,1.6533527374267578,380.36488485336304
D4:22:CD:00:05:6E,-14.10452651977539,34.22826385498047,-57.34867477416992,-7.924979209899902,-27.47091293334961,14.48885726928711,380.36488485336304
D4:22:CD:00:05:5E,165.47369384765625,-61.395225524902344,-60.963653564453125,-13.370031356811523,19.09395980834961,14.192325592041016,380.36488485336304
D4:22:CD:00:05:5D,156.15325927734375,-70.44645690917969,-110.21395874023438,-0.0788164734840393,-0.536979079246521,2.8070735931396484,380.3708713054657
D4:22:CD:00:05:6B,132.0230255126953,-49.99469757080078,107.09375762939453,2.4855294227600098,-2.4595165252685547,-0.9279260635375977,380.3708713054657
D4:22:CD:00:49:AA,174.3808135986328,-80.952392578125,105.42778015136719,-12.915534973144531,1.321565866470337,-1.6233606338500977,380.3708713054657
D4:22:CD:00:05:6E,4.260931491851807,27.48346710205078,-52.25078201293945,17.794315338134766,9.225574493408203,-4.850813865661621,380.3708713054657
D4:22:CD:00:05:5E,173.34384155273438,-50.654884338378906,-66.4004898071289,-4.150066375732422,6.139875411987305,9.842613220214844,380.3708713054657
D4:22:CD:00:05:5D,161.4695281982422,-69.54375457763672,-116.21338653564453,1.8482961654663086,-1.051741361618042,0.456085205078125,380.3944160938263
D4:22:CD:00:05:6B,134.978759765625,-49.07776641845703,107.51980590820312,-0.9977304935455322,2.185286045074463,0.49831199645996094,380.3944160938263
D4:22:CD:00:49:AA,-177.08628845214844,-79.79749298095703,102.71099853515625,-3.7692246437072754,0.11569701135158539,3.927720069885254,380.3944160938263
D4:22:CD:00:05:6E,9.40300464630127,23.391510009765625,-48.81339645385742,3.4742369651794434,-6.04741096496582,-0.8385114669799805,380.3944160938263
D4:22:CD:00:05:5E,178.0467071533203,-38.659095764160156,-67.42451477050781,-5.131834983825684,-0.8933975696563721,-0.6103010177612305,380.3944160938263
D4:22:CD:00:05:5D,165.2667694091797,-69.06061553955078,-119.6575927734375,1.4836831092834473,-0.0872260332107544,0.6079854965209961,380.4249122142792
D4:22:CD:00:05:6B,132.93997192382812,-47.50520324707031,110.63318634033203,-5.015168190002441,2.0106053352355957,2.8885555267333984,380.4249122142792
D4:22:CD:00:49:AA,-173.21539306640625,-79.09076690673828,101.72918701171875,4.884139060974121,4.230843544006348,1.2750349044799805,380.4249122142792
D4:22:CD:00:05:6E,23.595863342285156,21.25111198425293,-46.544700622558594,5.845099449157715,5.457230567932129,-8.545356750488281,380.4249122142792
D4:22:CD:00:05:5E,176.38088989257812,-26.945293426513672,-65.68920135498047,0.8466262817382812,-3.1441426277160645,-10.908479690551758,380.4249122142792
D4:22:CD:00:05:5D,167.69363403320312,-68.96697235107422,-121.45826721191406,0.35039228200912476,0.12441602349281311,0.5222539901733398,380.48442006111145
D4:22:CD:00:05:6B,129.5931854248047,-46.365509033203125,112.45494842529297,-5.510924339294434,2.307084083557129,1.2471742630004883,380.48442006111145
D4:22:CD:00:49:AA,-175.4474334716797,-78.47374725341797,104.40326690673828,-0.4924669861793518,3.108710765838623,-0.6757183074951172,380.48442006111145
D4:22:CD:00:05:6E,31.624643325805664,16.449481964111328,-43.40630340576172,7.530055999755859,4.2771406173706055,-5.575872421264648,380.48442006111145
D4:22:CD:00:05:5E,172.8623046875,-17.997528076171875,-62.35776138305664,0.8491313457489014,-1.331333875656128,-9.697874069213867,380.48442006111145
D4:22:CD:00:05:5D,170.3575897216797,-69.0519027709961,-123.30514526367188,-1.2117619514465332,1.320577621459961,0.46818065643310547,380.5144202709198
D4:22:CD:00:05:6B,126.63883972167969,-45.95029067993164,113.08984375,-5.030683517456055,4.430272102355957,-1.38153076171875,380.5144202709198
D4:22:CD:00:49:AA,-177.80567932128906,-77.99659729003906,105.80077362060547,-3.1257376670837402,1.9971990585327148,1.930643081665039,380.5144202709198
D4:22:CD:00:05:6E,34.58142852783203,9.572518348693848,-38.196006774902344,6.598918914794922,-1.75496244430542,-4.3207197189331055,380.5144202709198
D4:22:CD:00:05:5E,168.59164428710938,-11.889281272888184,-57.59128189086914,9.067726135253906,-2.365541458129883,-11.519294738769531,380.5144202709198
D4:22:CD:00:05:5D,172.51417541503906,-68.882080078125,-125.9080810546875,-1.4068264961242676,-0.3104400634765625,-0.6024417877197266,380.5449388027191
D4:22:CD:00:05:6B,123.68473815917969,-46.86068344116211,112.65269470214844,-4.467751502990723,3.8895764350891113,-4.554571151733398,380.5449388027191
D4:22:CD:00:49:AA,179.786865234375,-77.64400482177734,106.62713623046875,-1.375220537185669,2.7517199516296387,-2.1697025299072266,380.5449388027191
D4:22:CD:00:05:6E,38.93302917480469,2.284627676010132,-31.771629333496094,8.111064910888672,-5.025874137878418,0.5567293167114258,380.5449388027191
D4:22:CD:00:05:5E,168.791259765625,-9.733153343200684,-53.31766891479492,13.234979629516602,-5.085145950317383,-12.339153289794922,380.5449388027191
D4:22:CD:00:05:5D,173.52552795410156,-67.78768920898438,-127.7608871459961,1.2681865692138672,-3.2442121505737305,-1.4004907608032227,380.57608556747437
D4:22:CD:00:05:6B,120.98470306396484,-49.205020904541016,112.26581573486328,-2.211214542388916,3.695587158203125,-8.29362678527832,380.57608556747437
D4:22:CD:00:49:AA,177.02066040039062,-77.71353149414062,107.35318756103516,1.1107525825500488,1.6013844013214111,-7.483896255493164,380.57608556747437
D4:22:CD:00:05:6E,46.067604064941406,-3.729679822921753,-21.54483413696289,12.888521194458008,1.4179062843322754,-0.4751415252685547,380.57608556747437
D4:22:CD:00:05:5E,172.8920135498047,-11.920466423034668,-50.74088668823242,11.762191772460938,-8.139877319335938,-17.105918884277344,380.57608556747437
D4:22:CD:00:05:5D,174.412109375,-66.05599975585938,-127.56129455566406,2.903402805328369,-2.8159713745117188,-0.7716169357299805,380.6050841808319
D4:22:CD:00:05:6B,117.36174774169922,-52.986087799072266,112.66669464111328,-1.7648344039916992,3.905336856842041,-9.52595329284668,380.6050841808319
D4:22:CD:00:49:AA,172.87400817871094,-77.16587829589844,108.86429595947266,0.2753071188926697,-0.4308511018753052,-6.782881736755371,380.6050841808319
D4:22:CD:00:05:6E,46.94768142700195,-10.236276626586914,-9.026182174682617,12.874937057495117,-0.6781150102615356,0.2143869400024414,380.6050841808319
D4:22:CD:00:05:5E,175.63243103027344,-15.779666900634766,-49.37699508666992,8.876684188842773,-3.172640323638916,23.909435272216797,380.6050841808319
D4:22:CD:00:05:5D,174.33128356933594,-63.81758117675781,-125.30944061279297,-0.8940062522888184,-0.3965270519256592,-0.6323890686035156,380.63518810272217
D4:22:CD:00:05:6B,112.13465881347656,-57.443565368652344,113.08573913574219,-2.56911563873291,7.648256301879883,-9.513240814208984,380.63518810272217
D4:22:CD:00:49:AA,163.6000213623047,-75.67650604248047,115.58927154541016,-2.8748626708984375,-0.5899393558502197,-1.685664176940918,380.63518810272217
D4:22:CD:00:05:6E,46.153629302978516,-18.38379669189453,3.927489757537842,22.35110855102539,3.7679953575134277,2.7057762145996094,380.63518810272217
D4:22:CD:00:05:5E,169.40577697753906,-14.997953414916992,-51.09088897705078,7.429472923278809,-14.893838882446289,-8.219320297241211,380.63518810272217
D4:22:CD:00:05:5D,173.52862548828125,-60.8352165222168,-122.89080047607422,0.24557903409004211,-0.9766561985015869,-0.24146652221679688,380.6651895046234
D4:22:CD:00:05:6B,107.58769226074219,-62.355018615722656,114.85784149169922,-5.616809844970703,11.87826156616211,-8.049209594726562,380.6651895046234
D4:22:CD:00:49:AA,151.78765869140625,-75.27112579345703,125.1379623413086,-4.622091293334961,-2.2259416580200195,1.8365898132324219,380.6651895046234
D4:22:CD:00:05:6E,42.67513656616211,-23.889787673950195,9.0992431640625,11.90206527709961,12.514698028564453,5.297514915466309,380.6651895046234
D4:22:CD:00:05:5E,165.0892333984375,-14.432868003845215,-54.245635986328125,16.721450805664062,-18.49044418334961,-1.0554285049438477,380.6651895046234
D4:22:CD:00:05:5D,173.23683166503906,-58.33229446411133,-121.36653137207031,0.3397676348686218,1.3119049072265625,0.6786746978759766,380.6950659751892
D4:22:CD:00:05:6B,103.47761535644531,-70.77576446533203,116.16157531738281,-10.516494750976562,18.63308334350586,1.0360727310180664,380.6950659751892
D4:22:CD:00:49:AA,143.48448181152344,-75.48704528808594,132.3815460205078,1.4843780994415283,1.9129624366760254,-1.9665675163269043,380.6950659751892
D4:22:CD:00:05:6E,45.896209716796875,-23.1665096282959,2.272796869277954,18.118995666503906,-10.901947021484375,1.5025882720947266,380.6950659751892
D4:22:CD:00:05:5E,165.95753479003906,-14.164144515991211,-56.998775482177734,13.50250244140625,-23.545013427734375,2.557732582092285,380.6950659751892
D4:22:CD:00:05:5D,172.7875213623047,-56.631378173828125,-120.93318939208984,-1.752617359161377,1.9006190299987793,0.9744510650634766,380.7250633239746
D4:22:CD:00:05:6B,110.12690734863281,-83.48440551757812,107.29791259765625,-14.346990585327148,26.378707885742188,9.520833969116211,380.7250633239746
D4:22:CD:00:49:AA,138.83956909179688,-74.43877410888672,135.71658325195312,0.17223146557807922,1.2673115730285645,6.476396560668945,380.7250633239746
D4:22:CD:00:05:6E,53.52003860473633,-17.39377784729004,-6.637211322784424,27.901527404785156,0.7231788635253906,6.365594863891602,380.7250633239746
D4:22:CD:00:05:5E,167.0028533935547,-12.157953262329102,-59.56233215332031,18.973819732666016,-21.463409423828125,-1.5565338134765625,380.7250633239746
D4:22:CD:00:05:5D,173.2096405029297,-55.72475051879883,-122.37471008300781,-0.7720110416412354,2.290886878967285,1.7386474609375,380.7856032848358
D4:22:CD:00:05:6B,-103.19066619873047,-78.97889709472656,-38.92430877685547,-8.472463607788086,20.598514556884766,10.878042221069336,380.7856032848358
D4:22:CD:00:49:AA,138.1479949951172,-73.70198822021484,134.40203857421875,-4.5265607833862305,-0.3242793083190918,7.289409637451172,380.7856032848358
D4:22:CD:00:05:6E,59.659908294677734,-7.856594085693359,-12.542792320251465,28.688312530517578,-5.084197044372559,-5.787228584289551,380.7856032848358
D4:22:CD:00:05:5E,165.23667907714844,-8.186882972717285,-63.911903381347656,12.27676773071289,-12.747955322265625,-2.302182197570801,380.7856032848358
D4:22:CD:00:05:5D,174.3448944091797,-55.85380554199219,-124.77095031738281,0.8677165508270264,0.9131016731262207,1.3904380798339844,380.8149802684784
D4:22:CD:00:05:6B,-99.69141387939453,-58.975425720214844,-46.37870788574219,-4.415970802307129,30.585758209228516,6.230634689331055,380.8149802684784
D4:22:CD:00:49:AA,141.54385375976562,-73.84770202636719,129.22286987304688,0.5003829002380371,1.0765411853790283,5.824143409729004,380.8149802684784
D4:22:CD:00:05:6E,66.65501403808594,0.7622030377388,-8.487510681152344,17.401390075683594,-3.1910462379455566,-15.809358596801758,380.8149802684784
D4:22:CD:00:05:5E,158.1960906982422,-5.099054336547852,-67.05805206298828,7.158139228820801,-9.461252212524414,-1.4174566268920898,380.8149802684784
