Device,EulerX,EulerY,EulerZ,FreeAccX,FreeAccY,FreeAccZ,Timestamp
D4:22:CD:00:05:5D,176.73573303222656,-56.00680923461914,-98.38543701171875,1.5104870796203613,1.5403928756713867,0.5453042984008789,2294.9413034915924
D4:22:CD:00:05:6B,-82.34848022460938,-34.615875244140625,-58.67161178588867,-0.3442220687866211,14.714513778686523,24.100658416748047,2294.9413034915924
D4:22:CD:00:49:AA,142.54922485351562,-68.89893341064453,153.058837890625,-1.6079521179199219,-1.057298183441162,8.035669326782227,2294.9413034915924
D4:22:CD:00:05:6E,-172.04022216796875,-66.6612777709961,-43.71371841430664,-5.507673263549805,-10.92776870727539,9.926733016967773,2294.9413034915924
D4:22:CD:00:05:5E,-156.8172607421875,-43.46878433227539,-55.760711669921875,4.129011154174805,-6.745914459228516,7.586843490600586,2294.9413034915924
D4:22:CD:00:05:5D,177.50808715820312,-53.878501892089844,-97.16891479492188,2.647914409637451,1.249802589416504,1.3169279098510742,2294.9443747997284
D4:22:CD:00:05:6B,-75.10438537597656,-14.815020561218262,-55.56013870239258,9.258356094360352,6.923972129821777,31.370365142822266,2294.9443747997284
D4:22:CD:00:49:AA,143.4627227783203,-69.98500061035156,152.0338897705078,-2.4492416381835938,1.1909022331237793,8.349145889282227,2294.9443747997284
D4:22:CD:00:05:6E,-140.7384490966797,-66.14077758789062,-65.92205047607422,-10.195068359375,-12.738664627075195,2.75164794921875,2294.9443747997284
D4:22:CD:00:05:5E,-154.00343322753906,-44.07081985473633,-59.33492660522461,3.4680914878845215,-1.485213041305542,-1.4185419082641602,2294.9443747997284
D4:22:CD:00:05:5D,178.6337890625,-53.299537658691406,-97.77928924560547,-0.7478578090667725,2.829843044281006,1.4805212020874023,2294.9473757743835
D4:22:CD:00:05:6B,-57.31887435913086,5.565128803253174,-49.49628829956055,9.340568542480469,-10.113960266113281,25.09845733642578,2294.9473757743835
D4:22:CD:00:49:AA,143.29052734375,-71.58592224121094,152.60232543945312,-5.586548805236816,-1.3665196895599365,9.373893737792969,2294.9473757743835
D4:22:CD:00:05:5E,-151.18898010253906,-48.66082763671875,-65.34886169433594,6.275021553039551,0.4510698914527893,-7.1386260986328125,2294.9473757743835
D4:22:CD:00:05:5D,-179.87820434570312,-54.79668045043945,-99.2902603149414,-1.800443172454834,1.6603937149047852,3.8424034118652344,2294.949375152588
D4:22:CD:00:05:6B,-33.556339263916016,21.05754852294922,-40.738677978515625,1.823502540588379,-16.411510467529297,10.524124145507812,2294.949375152588
D4:22:CD:00:49:AA,144.97409057617188,-73.30138397216797,152.3570556640625,-6.67335319519043,-0.061100393533706665,5.806509017944336,2294.949375152588
D4:22:CD:00:05:5E,-144.62850952148438,-56.397891998291016,-75.45840454101562,6.188626289367676,-1.1648533344268799,-8.210672378540039,2294.949375152588
D4:22:CD:00:05:5D,179.81723022460938,-66.26306915283203,-121.57388305664062,3.185232639312744,-2.362490177154541,-1.5353755950927734,2294.9908895492554
D4:22:CD:00:05:6B,-59.644004821777344,-49.002689361572266,-60.011714935302734,-2.129880428314209,-2.5872879028320312,-5.133603096008301,2294.9908895492554
D4:22:CD:00:05:6E,20.2387638092041,-70.70587921142578,87.99852752685547,9.380285263061523,-2.2684459686279297,3.7912397384643555,2294.9908895492554
D4:22:CD:00:05:5D,-174.53208923339844,-64.81092071533203,-125.82354736328125,0.0601976215839386,-0.054366618394851685,0.7487497329711914,2295.0258893966675
D4:22:CD:00:05:6B,-69.24010467529297,-48.30081558227539,-55.55378723144531,-0.781217098236084,-2.4871015548706055,-5.278749465942383,2295.0258893966675
D4:22:CD:00:49:AA,104.04107666015625,-86.40773010253906,-175.85147094726562,0.4854432940483093,-1.0782930850982666,-1.0622138977050781,2295.0258893966675
D4:22:CD:00:05:6E,-2.6675918102264404,-67.30348205566406,107.61255645751953,11.361848831176758,-0.18155598640441895,6.539724349975586,2295.0258893966675
D4:22:CD:00:05:5E,166.50730895996094,-37.216514587402344,-11.144193649291992,19.944931030273438,-9.511323928833008,-4.561049461364746,2295.0258893966675
D4:22:CD:00:05:5D,-175.52113342285156,-62.44480895996094,-122.5801773071289,-2.387279987335205,-1.252514123916626,-3.38387393951416,2295.055906057358
D4:22:CD:00:05:6B,-74.98652648925781,-48.25142288208008,-55.89667892456055,1.318603515625,-1.7044212818145752,-2.4132285118103027,2295.055906057358
D4:22:CD:00:49:AA,111.4992446899414,-86.25362396240234,175.54798889160156,2.4620747566223145,-1.3511936664581299,-2.215078353881836,2295.055906057358
D4:22:CD:00:05:6E,-24.066455841064453,-56.910648345947266,131.33592224121094,2.062129497528076,11.061452865600586,4.967896461486816,2295.055906057358
D4:22:CD:00:05:5E,112.21914672851562,-67.02822875976562,27.02263832092285,6.201596260070801,-0.8826414346694946,18.139324188232422,2295.055906057358
D4:22:CD:00:05:5D,-177.89862060546875,-59.52116012573242,-115.83899688720703,-1.2894313335418701,1.7126939296722412,0.07778549194335938,2295.1159524917603
D4:22:CD:00:05:6B,-76.18061065673828,-47.05602264404297,-60.5579948425293,1.365046501159668,2.4535012245178223,5.681805610656738,2295.1159524917603
D4:22:CD:00:49:AA,117.05917358398438,-82.7464828491211,167.0572509765625,-2.782083511352539,-2.5492568016052246,-4.548222541809082,2295.1159524917603
D4:22:CD:00:05:6E,-31.833480834960938,-58.424461364746094,140.72369384765625,-10.637954711914062,11.302797317504883,1.3359718322753906,2295.1159524917603
D4:22:CD:00:05:5E,75.92020416259766,-79.25336456298828,59.22602081298828,-1.4669485092163086,7.322278022766113,17.457744598388672,2295.1159524917603
D4:22:CD:00:05:5D,-179.71839904785156,-56.977413177490234,-111.18058013916016,0.8626962900161743,1.5220108032226562,1.4932937622070312,2295.1459560394287
D4:22:CD:00:05:6B,-76.08232879638672,-41.41340637207031,-65.37724304199219,-0.43186140060424805,11.435735702514648,14.120853424072266,2295.1459560394287
D4:22:CD:00:49:AA,137.5095977783203,-83.1652603149414,146.47882080078125,-7.191710472106934,-3.693774700164795,4.636512756347656,2295.1459560394287
D4:22:CD:00:05:6E,-28.603864669799805,-67.5806884765625,138.8223876953125,-6.8191633224487305,8.987728118896484,11.778646469116211,2295.1459560394287
D4:22:CD:00:05:5E,120.17033386230469,-85.48959350585938,16.533050537109375,-11.871210098266602,0.0009329430758953094,14.440715789794922,2295.1459560394287
D4:22:CD:00:05:5D,-179.82913208007812,-55.74038314819336,-109.61363220214844,3.3648815155029297,0.7445410490036011,0.4246244430541992,2295.1804809570312
D4:22:CD:00:05:6B,-77.03199768066406,-26.057912826538086,-65.57300567626953,-3.1568732261657715,19.900836944580078,28.83599090576172,2295.1804809570312
D4:22:CD:00:49:AA,175.95001220703125,-83.67739868164062,109.70635223388672,4.250570297241211,-2.5564398765563965,3.6566810607910156,2295.1804809570312
D4:22:CD:00:05:6E,-9.829301834106445,-74.92344665527344,127.9482650756836,-11.626672744750977,8.342981338500977,3.9713659286499023,2295.1804809570312
D4:22:CD:00:05:5E,153.17254638671875,-79.51524353027344,-13.986367225646973,-5.750019073486328,6.022561073303223,11.343515396118164,2295.1804809570312
D4:22:CD:00:05:5D,-178.40310668945312,-55.76047134399414,-109.89425659179688,-2.1778035163879395,1.4739673137664795,3.029749870300293,2295.2064740657806
D4:22:CD:00:05:6B,-69.1485595703125,-3.229759931564331,-61.139373779296875,7.172003746032715,5.075650215148926,25.743038177490234,2295.2064740657806
D4:22:CD:00:49:AA,-176.85455322265625,-81.05574035644531,102.69792938232422,7.311958312988281,-1.341662883758545,5.517861366271973,2295.2064740657806
D4:22:CD:00:05:6E,6.476681709289551,-78.88172912597656,117.50164794921875,-13.974529266357422,-3.7115931510925293,3.041531562805176,2295.2064740657806
D4:22:CD:00:05:5E,160.7404022216797,-74.52586364746094,-23.069772720336914,-5.225095748901367,6.956169128417969,-0.29715442657470703,2295.2064740657806
D4:22:CD:00:05:5D,-176.50131225585938,-57.07688522338867,-110.86920928955078,-4.607728958129883,3.375753879547119,2.644534111022949,2295.236474275589
D4:22:CD:00:05:6B,-55.25300216674805,18.59254264831543,-51.874778747558594,15.200738906860352,-12.90625,17.787540435791016,2295.236474275589
D4:22:CD:00:49:AA,178.7119598388672,-78.5930404663086,105.82051849365234,0.9761972427368164,1.427121639251709,9.156143188476562,2295.236474275589
D4:22:CD:00:05:6E,1.6963790655136108,-77.47486114501953,126.10918426513672,-7.895818710327148,-1.4658660888671875,-2.808314800262451,2295.236474275589
D4:22:CD:00:05:5E,164.70059204101562,-72.91974639892578,-28.960289001464844,-0.9392299652099609,6.354459762573242,-7.931127548217773,2295.236474275589
D4:22:CD:00:05:5D,-174.26959228515625,-59.92221450805664,-113.6724624633789,-0.7172327041625977,3.4450087547302246,3.3335962295532227,2295.2660250663757
D4:22:CD:00:05:6B,-38.872005462646484,30.750534057617188,-40.0637092590332,11.088129043579102,-20.112205505371094,6.957136154174805,2295.2660250663757
D4:22:CD:00:49:AA,179.3126983642578,-76.46806335449219,104.05548095703125,-4.183799743652344,2.1144042015075684,9.055208206176758,2295.2660250663757
D4:22:CD:00:05:6E,-12.767393112182617,-72.11737823486328,148.9014892578125,-8.77691650390625,0.6275380849838257,-8.814582824707031,2295.2660250663757
D4:22:CD:00:05:5E,170.35888671875,-74.97587585449219,-34.687469482421875,5.900008201599121,7.6661176681518555,-11.81753158569336,2295.2660250663757
D4:22:CD:00:05:5D,-171.32135009765625,-65.31021881103516,-118.14835357666016,1.197927713394165,3.252915859222412,4.391595840454102,2295.296025276184
D4:22:CD:00:05:6B,-25.541173934936523,35.5718879699707,-31.838380813598633,2.9987282752990723,-19.756263732910156,-1.0862512588500977,2295.296025276184
D4:22:CD:00:49:AA,-173.12042236328125,-74.98666381835938,96.68917846679688,-3.5380311012268066,3.017754077911377,9.419830322265625,2295.296025276184
D4:22:CD:00:05:6E,-19.559106826782227,-64.593505859375,168.90399169921875,-11.307300567626953,-4.127153396606445,-8.061241149902344,2295.296025276184
D4:22:CD:00:05:5E,-175.20175170898438,-79.73738861083984,-49.325050354003906,7.31041145324707,4.216364860534668,-11.435432434082031,2295.296025276184
D4:22:CD:00:05:5D,-165.2530059814453,-73.52572631835938,-128.69029235839844,-5.36579704284668,-5.959734916687012,11.179771423339844,2295.326023578644
D4:22:CD:00:05:6B,-15.351927757263184,38.66911315917969,-27.216053009033203,-2.8510332107543945,-16.19171905517578,-6.277324676513672,2295.326023578644
D4:22:CD:00:49:AA,-164.73831176757812,-74.86480712890625,89.78726959228516,-0.22965866327285767,2.4330763816833496,4.279323577880859,2295.326023578644
D4:22:CD:00:05:6E,-18.850502014160156,-57.642051696777344,-178.18675231933594,-8.634870529174805,-11.459014892578125,-10.321895599365234,2295.326023578644
D4:22:CD:00:05:5E,-124.96894073486328,-84.24613189697266,-100.7674789428711,5.955897331237793,2.2350735664367676,-9.530826568603516,2295.326023578644
D4:22:CD:00:05:5D,-160.65948486328125,-79.47103118896484,-141.9736328125,1.373877763748169,-1.5653016567230225,-1.9500350952148438,2295.3560416698456
D4:22:CD:00:05:6B,-5.632201194763184,41.662052154541016,-24.214141845703125,-5.2142438888549805,-11.749641418457031,-10.134334564208984,2295.3560416698456
D4:22:CD:00:49:AA,-155.82489013671875,-74.190185546875,82.48042297363281,-2.6432652473449707,-0.13965916633605957,-5.797178268432617,2295.3560416698456
D4:22:CD:00:05:6E,-19.11583137512207,-53.12980270385742,-169.5249481201172,-3.513171672821045,-7.014466285705566,-12.276634216308594,2295.3560416698456
D4:22:CD:00:05:5E,-55.90636444091797,-80.21934509277344,-171.1136474609375,1.27115797996521,2.657808303833008,-7.746162414550781,2295.3560416698456
D4:22:CD:00:05:5D,-172.25656127929688,-79.63530731201172,-131.31065368652344,8.425760269165039,4.072028160095215,-7.152165412902832,2295.415949821472
D4:22:CD:00:05:6B,2.2429816722869873,44.885047912597656,-24.020278930664062,-3.2425293922424316,-4.217717170715332,-11.395088195800781,2295.415949821472
D4:22:CD:00:49:AA,-149.9315948486328,-72.4835205078125,78.6119384765625,-0.18175071477890015,-0.29122787714004517,-10.50058364868164,2295.415949821472
D4:22:CD:00:05:6E,-21.693695068359375,-51.09318161010742,-161.6410675048828,-1.2507717609405518,-6.522902488708496,-11.501352310180664,2295.415949821472
D4:22:CD:00:05:5E,-36.19044494628906,-71.82303619384766,167.10060119628906,-3.133394718170166,2.2983570098876953,-6.45330810546875,2295.415949821472
D4:22:CD:00:05:5D,178.52806091308594,-77.16105651855469,-113.56922149658203,-1.73868727684021,-5.912667274475098,-8.892190933227539,2295.445969581604
D4:22:CD:00:05:6B,6.4078369140625,49.18278121948242,-28.4381103515625,-1.389636516571045,-2.352449893951416,-13.340784072875977,2295.445969581604
D4:22:CD:00:49:AA,-147.560546875,-72.04483032226562,76.9203109741211,3.740030288696289,1.9911432266235352,-9.371397018432617,2295.445969581604
D4:22:CD:00:05:6E,-26.291074752807617,-50.18693923950195,-154.67416381835938,0.20941397547721863,-6.75230598449707,-8.527442932128906,2295.445969581604
D4:22:CD:00:05:5E,-30.40677261352539,-63.310890197753906,157.40509033203125,-8.747159957885742,4.65974235534668,-3.8900976181030273,2295.445969581604
D4:22:CD:00:05:5D,178.74032592773438,-78.23419189453125,-107.49895477294922,0.9061586856842041,1.965801477432251,-8.491703033447266,2295.476465702057
D4:22:CD:00:05:6B,4.283134460449219,54.52787780761719,-38.379791259765625,-0.5405052900314331,-0.8448389768600464,-15.032075881958008,2295.476465702057
D4:22:CD:00:49:AA,-144.7367706298828,-73.08330535888672,74.51509857177734,0.8894855976104736,1.0782108306884766,-8.133245468139648,2295.476465702057
D4:22:CD:00:05:6E,-30.393402099609375,-49.18598937988281,-149.64598083496094,-1.942260980606079,-6.50518798828125,-6.630804061889648,2295.476465702057
D4:22:CD:00:05:5E,-30.32305145263672,-55.33694839477539,151.9626007080078,-19.943584442138672,8.019105911254883,-2.3672609329223633,2295.476465702057
D4:22:CD:00:05:5D,179.93215942382812,-78.63632202148438,-112.32911682128906,0.7301367521286011,-1.809596061706543,-0.821537971496582,2295.5059099197388
D4:22:CD:00:05:6B,-6.736071586608887,60.39973831176758,-57.19198989868164,0.6625601053237915,0.4577494263648987,-15.04887580871582,2295.5059099197388
D4:22:CD:00:49:AA,-140.5459747314453,-74.64824676513672,71.74395751953125,-2.5149059295654297,0.41235923767089844,-8.21707534790039,2295.5059099197388
D4:22:CD:00:05:6E,-34.0970458984375,-47.188289642333984,-145.28082275390625,-3.5214061737060547,-7.232138633728027,-5.268893241882324,2295.5059099197388
D4:22:CD:00:05:5E,-36.583805084228516,-50.971214294433594,150.3614044189453,-19.39464569091797,13.160116195678711,-15.104516983032227,2295.5059099197388
D4:22:CD:00:05:5D,179.88429260253906,-78.26554107666016,-114.1147232055664,2.7071533203125,-6.218290328979492,-2.0265121459960938,2295.5359106063843
D4:22:CD:00:05:6B,-30.179912567138672,62.054237365722656,-87.48324584960938,-4.510520935058594,-1.4689843654632568,-22.036178588867188,2295.5359106063843
D4:22:CD:00:49:AA,-135.8916015625,-75.46806335449219,69.24153900146484,0.4245373606681824,0.7075715065002441,-4.669782638549805,2295.5359106063843
D4:22:CD:00:05:6E,-37.14265060424805,-44.99018859863281,-141.5532989501953,-3.6123247146606445,-8.278362274169922,-4.441862106323242,2295.5359106063843
D4:22:CD:00:05:5E,-40.008487701416016,-50.18649673461914,150.2476806640625,-9.104307174682617,12.377447128295898,-11.731559753417969,2295.5359106063843
D4:22:CD:00:05:5D,178.89834594726562,-77.4836196899414,-108.89292907714844,-3.426328182220459,-0.011495718732476234,1.5493459701538086,2295.5664613246918
D4:22:CD:00:05:6B,-56.132591247558594,58.52904510498047,-113.20046997070312,-3.513455390930176,2.718008041381836,-23.52749252319336,2295.5664613246918
D4:22:CD:00:49:AA,-136.14556884765625,-76.40234375,70.14674377441406,3.532846450805664,1.2731826305389404,-0.2651338577270508,2295.5664613246918
D4:22:CD:00:05:6E,-39.851871490478516,-43.992713928222656,-137.8311767578125,-3.004464626312256,-9.647201538085938,-4.288970947265625,2295.5664613246918
D4:22:CD:00:05:5E,-39.29798126220703,-52.40058517456055,152.3590545654297,-16.549617767333984,6.412045478820801,-14.777294158935547,2295.5664613246918
D4:22:CD:00:05:5D,175.88311767578125,-77.27564239501953,-104.55885314941406,3.5290260314941406,-3.4781112670898438,3.9992570877075195,2295.5964534282684
D4:22:CD:00:05:6B,-84.86050415039062,58.330650329589844,-121.43864440917969,-6.897543907165527,9.60440444946289,-2.5345821380615234,2295.5964534282684
D4:22:CD:00:49:AA,-140.0036163330078,-77.75274658203125,71.75678253173828,0.7798172235488892,-0.2658422589302063,1.5137157440185547,2295.5964534282684
D4:22:CD:00:05:6E,-45.564727783203125,-44.4271354675293,-133.1645050048828,-0.0454980731010437,-14.476654052734375,-5.1380414962768555,2295.5964534282684
D4:22:CD:00:05:5E,-49.30930709838867,-56.76523971557617,159.93154907226562,-8.198286056518555,-9.514741897583008,8.004692077636719,2295.5964534282684
D4:22:CD:00:05:5D,173.2061004638672,-77.59651184082031,-99.22560119628906,-2.046560287475586,-2.008873462677002,2.8211288452148438,2295.6264622211456
D4:22:CD:00:05:6B,-98.22149658203125,61.2702522277832,-118.23123168945312,-0.07824373245239258,-5.738248825073242,-4.046699523925781,2295.6264622211456
D4:22:CD:00:49:AA,-144.10556030273438,-79.3571548461914,73.0843276977539,-6.231895446777344,-1.9712822437286377,2.859029769897461,2295.6264622211456
D4:22:CD:00:05:6E,-57.15083694458008,-46.127784729003906,-129.04356384277344,-1.989532470703125,-13.22671890258789,-5.205862998962402,2295.6264622211456
D4:22:CD:00:05:5E,-48.54943084716797,-60.06198501586914,162.15011596679688,-1.4906582832336426,-16.41699981689453,8.802310943603516,2295.6264622211456
D4:22:CD:00:05:5D,166.60867309570312,-77.61636352539062,-90.65525817871094,-1.5193939208984375,-1.5522572994232178,2.7310590744018555,2295.6559085845947
D4:22:CD:00:05:6B,-84.51910400390625,64.92871856689453,-104.74639129638672,-10.037111282348633,-2.85221004486084,-4.681214332580566,2295.6559085845947
D4:22:CD:00:49:AA,-150.07595825195312,-80.01286315917969,77.75704956054688,-5.407228469848633,-0.352067768573761,4.595256805419922,2295.6559085845947
D4:22:CD:00:05:6E,-72.08556365966797,-49.01524353027344,-125.8464584350586,-3.2206554412841797,-10.108240127563477,3.5400218963623047,2295.6559085845947
D4:22:CD:00:05:5E,-49.34584426879883,-63.00309371948242,163.41445922851562,-9.042388916015625,8.576522827148438,8.046489715576172,2295.6559085845947
D4:22:CD:00:05:5D,157.0692138671875,-77.10151672363281,-81.13304138183594,0.21488043665885925,-1.3649227619171143,2.455812454223633,2295.7164289951324
D4:22:CD:00:05:6B,-50.38797378540039,66.26578521728516,-73.83281707763672,-8.221475601196289,-5.772052764892578,-12.230062484741211,2295.7164289951324
D4:22:CD:00:49:AA,-154.2965545654297,-80.51866912841797,80.5831069946289,1.1114881038665771,-2.3083157539367676,2.9011363983154297,2295.7164289951324
D4:22:CD:00:05:6E,-83.36767578125,-52.65437698364258,-124.74166107177734,-0.9151872396469116,-5.3079729080200195,7.897193908691406,2295.7164289951324
D4:22:CD:00:05:5E,-53.587547302246094,-65.8680191040039,166.1147918701172,-4.431195259094238,2.678037643432617,3.2646007537841797,2295.7164289951324
D4:22:CD:00:05:5D,146.17640686035156,-76.28162384033203,-71.94779968261719,-0.5196050405502319,-0.8638583421707153,3.1616392135620117,2295.745445251465
D4:22:CD:00:05:6B,-22.81188201904297,57.1683235168457,-48.234432220458984,-5.006906509399414,-2.989500045776367,-7.775835990905762,2295.745445251465
D4:22:CD:00:49:AA,-159.7562713623047,-81.58116912841797,84.60444641113281,0.6114120483398438,-1.9923357963562012,1.2993078231811523,2295.745445251465
D4:22:CD:00:05:6E,-89.8128890991211,-57.25794982910156,-124.22344207763672,-4.846268653869629,-2.4581222534179688,6.823080062866211,2295.745445251465
D4:22:CD:00:05:5E,-48.541648864746094,-68.36235809326172,160.91282653808594,-4.331817626953125,5.868477821350098,-1.8415889739990234,2295.745445251465
D4:22:CD:00:05:5D,132.98532104492188,-75.42861938476562,-63.01723861694336,1.1941192150115967,-4.2908430099487305,3.3578062057495117,2295.7759580612183
D4:22:CD:00:05:6B,-12.183907508850098,42.054718017578125,-38.96680450439453,-1.8353867530822754,-0.4235799312591553,3.4369544982910156,2295.7759580612183
D4:22:CD:00:49:AA,-167.60057067871094,-82.2467041015625,90.5931167602539,0.052886962890625,-0.4207673668861389,2.7690954208374023,2295.7759580612183
D4:22:CD:00:05:6E,-100.87616729736328,-59.9613151550293,-120.9965591430664,3.5597052574157715,10.213851928710938,6.286298751831055,2295.7759580612183
D4:22:CD:00:05:5E,-35.83467483520508,-69.09870147705078,149.82052612304688,-6.876750946044922,1.7490229606628418,-1.2173500061035156,2295.7759580612183
D4:22:CD:00:05:5D,118.83341979980469,-74.2217025756836,-58.0873908996582,3.740711212158203,-2.785953998565674,1.7569503784179688,2295.805958032608
D4:22:CD:00:05:6B,-11.043231010437012,25.191469192504883,-36.975738525390625,-7.1333770751953125,11.002130508422852,8.382007598876953,2295.805958032608
D4:22:CD:00:49:AA,-168.8507080078125,-82.3053207397461,89.90664672851562,3.290555477142334,0.02127061039209366,1.3211250305175781,2295.805958032608
D4:22:CD:00:05:6E,-102.50100708007812,-57.959266662597656,-119.07465362548828,1.1699714660644531,7.303859710693359,0.8593063354492188,2295.805958032608
D4:22:CD:00:05:5E,-24.32605743408203,-69.08358001708984,141.700927734375,-5.041666030883789,3.472254753112793,-0.31727027893066406,2295.805958032608
D4:22:CD:00:05:5D,117.34007263183594,-71.4614486694336,-67.47779846191406,18.10578155517578,8.787786483764648,3.0943498611450195,2295.8359620571136
D4:22:CD:00:05:6B,-16.011180877685547,4.4798688888549805,-35.348567962646484,-4.654905319213867,3.054713726043701,-14.952192306518555,2295.8359620571136
D4:22:CD:00:49:AA,-169.62945556640625,-80.70005798339844,88.44453430175781,10.084794998168945,2.3988122940063477,-3.533686637878418,2295.8359620571136
D4:22:CD:00:05:6E,-95.56326293945312,-54.641876220703125,-120.47920989990234,-14.10245132446289,-2.6400604248046875,-3.1679282188415527,2295.8359620571136
D4:22:CD:00:05:5E,-16.958772659301758,-68.7160873413086,136.4025115966797,-6.917074203491211,1.711850881576538,-3.1931095123291016,2295.8359620571136
D4:22:CD:00:05:5D,129.85333251953125,-65.79114532470703,-85.28888702392578,16.482086181640625,8.723012924194336,5.936418533325195,2295.8663580417633
D4:22:CD:00:05:6B,-21.367589950561523,-18.693620681762695,-30.861568450927734,12.697965621948242,-5.981950759887695,-10.358406066894531,2295.8663580417633
D4:22:CD:00:49:AA,-171.00485229492188,-78.76688385009766,84.98968505859375,8.23255729675293,-0.4905751347541809,-1.122701644897461,2295.8663580417633
D4:22:CD:00:05:6E,-93.23743438720703,-52.4409294128418,-122.10552215576172,-14.644197463989258,-3.5241880416870117,-7.7624311447143555,2295.8663580417633
D4:22:CD:00:05:5E,-13.228379249572754,-68.5344467163086,133.78726196289062,-5.83286190032959,0.9069527387619019,-2.812744140625,2295.8663580417633
D4:22:CD:00:05:5D,141.65504455566406,-57.644229888916016,-100.6636962890625,8.62687873840332,3.6354851722717285,1.078312873840332,2295.8963634967804
D4:22:CD:00:05:6B,-27.000316619873047,-37.90196990966797,-22.754192352294922,2.6039657592773438,-11.251327514648438,4.958041191101074,2295.8963634967804
D4:22:CD:00:49:AA,-170.99269104003906,-78.19937896728516,81.78223419189453,-2.5552735328674316,0.3054729104042053,6.133925437927246,2295.8963634967804
D4:22:CD:00:05:6E,-95.92137908935547,-51.77176284790039,-121.4156265258789,-5.115083694458008,-2.133025646209717,-4.083691596984863,2295.8963634967804
D4:22:CD:00:05:5E,-12.13651180267334,-69.2856216430664,133.4251251220703,-4.577281951904297,0.683594822883606,-2.398979663848877,2295.8963634967804
D4:22:CD:00:05:5D,148.71583557128906,-48.833839416503906,-112.60948181152344,3.0514426231384277,-1.2999768257141113,-3.9622583389282227,2295.9263632297516
D4:22:CD:00:05:6B,-28.49578285217285,-46.33879852294922,-9.941582679748535,-3.6181468963623047,-5.906827926635742,12.176946640014648,2295.9263632297516
D4:22:CD:00:49:AA,-171.5088348388672,-78.17168426513672,83.22672271728516,-1.474177598953247,2.678283214569092,-1.1237287521362305,2295.9263632297516
D4:22:CD:00:05:6E,-93.68922424316406,-52.13483428955078,-120.8698959350586,-2.728682041168213,-3.5059151649475098,-3.489741325378418,2295.9263632297516
D4:22:CD:00:05:5E,-14.161577224731445,-71.18573760986328,136.010009765625,-5.5647382736206055,0.716468334197998,-3.6421055793762207,2295.9263632297516
D4:22:CD:00:05:5D,154.27923583984375,-40.12483596801758,-120.91902160644531,-2.715743064880371,-0.5576605796813965,-7.567419052124023,2295.955367088318
D4:22:CD:00:05:6B,-29.922218322753906,-42.65505599975586,2.081944227218628,1.031092882156372,3.5400543212890625,4.365242004394531,2295.955367088318
D4:22:CD:00:49:AA,-172.76979064941406,-78.5257568359375,84.8291015625,2.4437408447265625,0.44837522506713867,-2.7225003242492676,2295.955367088318
D4:22:CD:00:05:6E,-85.91868591308594,-53.62507629394531,-121.85523223876953,-3.428795337677002,-3.000507354736328,-6.0393266677856445,2295.955367088318
D4:22:CD:00:05:5E,-22.576900482177734,-74.06241607666016,143.98422241210938,-5.09716796875,0.45406943559646606,-1.8452949523925781,2295.955367088318
D4:22:CD:00:05:5D,159.6429901123047,-32.4410285949707,-126.5028076171875,-5.005948066711426,0.09006465971469879,-9.356924057006836,2296.0158836841583
D4:22:CD:00:05:6B,-33.18991470336914,-34.373531341552734,7.6726531982421875,-2.229217529296875,2.0156774520874023,-5.528092384338379,2296.0158836841583
D4:22:CD:00:49:AA,-176.32435607910156,-79.3111343383789,89.20437622070312,1.409425973892212,1.408783197402954,-2.928183078765869,2296.0158836841583
D4:22:CD:00:05:6E,-76.47773742675781,-56.128509521484375,-123.85220336914062,-3.196352481842041,-3.9545788764953613,-7.198129653930664,2296.0158836841583
D4:22:CD:00:05:5E,-43.563899993896484,-77.18408203125,163.0084228515625,-5.345797538757324,3.866056442260742,-3.6462936401367188,2296.0158836841583
D4:22:CD:00:05:5D,163.2161865234375,-27.41996955871582,-130.64111328125,-3.048879623413086,1.4673190116882324,-9.980796813964844,2296.0459020137787
D4:22:CD:00:05:6B,-36.402156829833984,-27.810523986816406,10.119884490966797,-4.804067611694336,-1.7024955749511719,-6.673061370849609,2296.0459020137787
D4:22:CD:00:49:AA,-179.78900146484375,-80.32544708251953,94.11917114257812,-0.16999858617782593,1.7473790645599365,-5.619290351867676,2296.0459020137787
D4:22:CD:00:05:6E,-66.20114135742188,-58.9903564453125,-127.38734436035156,-2.622951030731201,-6.03713321685791,-6.745798110961914,2296.0459020137787
D4:22:CD:00:05:5E,-74.80343627929688,-77.66986083984375,-167.84495544433594,-6.048700332641602,0.3138984441757202,-2.2995476722717285,2296.0459020137787
D4:22:CD:00:05:5D,164.4005126953125,-25.140300750732422,-134.32696533203125,-5.802286148071289,0.7566213607788086,-9.467140197753906,2296.0764305591583
D4:22:CD:00:05:6B,-39.364219665527344,-25.7464599609375,11.622623443603516,-4.423480987548828,0.7685306072235107,-11.792098999023438,2296.0764305591583
D4:22:CD:00:49:AA,178.96754455566406,-81.03888702392578,97.25648498535156,1.0691945552825928,1.3408432006835938,-4.544883728027344,2296.0764305591583
D4:22:CD:00:05:6E,-56.15931701660156,-61.09994888305664,-132.8820037841797,-2.750575542449951,-9.303670883178711,-4.959961891174316,2296.0764305591583
D4:22:CD:00:05:5E,-98.81509399414062,-75.79341125488281,-145.1660919189453,-4.965611457824707,2.645127773284912,-0.6692104339599609,2296.0764305591583
D4:22:CD:00:05:5D,164.0001983642578,-26.28046417236328,-136.91665649414062,-8.80343246459961,-4.735686302185059,-8.447612762451172,2296.1064307689667
D4:22:CD:00:05:6B,-47.007083892822266,-30.694541931152344,10.930782318115234,1.856191635131836,-4.402493476867676,-11.980844497680664,2296.1064307689667
D4:22:CD:00:49:AA,-179.26051330566406,-81.82860565185547,97.13246154785156,3.8470845222473145,0.657530665397644,-3.624774932861328,2296.1064307689667
D4:22:CD:00:05:6E,-49.47123336791992,-61.84706497192383,-140.0125732421875,-7.676323890686035,-14.721073150634766,-6.133837699890137,2296.1064307689667
D4:22:CD:00:05:5E,-112.05433654785156,-73.70067596435547,-132.16998291015625,-4.9812164306640625,4.060752868652344,0.18168258666992188,2296.1064307689667
D4:22:CD:00:05:5D,166.01405334472656,-28.761938095092773,-137.15985107421875,-12.747180938720703,1.278944730758667,13.789932250976562,2296.1364307403564
D4:22:CD:00:05:6B,-44.84176254272461,-46.10973358154297,8.214507102966309,8.263568878173828,-9.862140655517578,8.990079879760742,2296.1364307403564
D4:22:CD:00:49:AA,-175.3909149169922,-83.00697326660156,94.1956558227539,3.8133678436279297,2.009157180786133,-2.0627589225769043,2296.1364307403564
D4:22:CD:00:05:6E,-54.41945266723633,-62.99808120727539,-147.1962127685547,-7.521958351135254,-18.145030975341797,1.4186553955078125,2296.1364307403564
D4:22:CD:00:05:5E,-118.45864868164062,-72.72305297851562,-124.88431549072266,-4.595245361328125,3.8712873458862305,-0.009404182434082031,2296.1364307403564
D4:22:CD:00:05:5D,165.28431701660156,-27.760740280151367,-134.42578125,-17.558982849121094,-7.721105575561523,13.630664825439453,2296.165982723236
D4:22:CD:00:05:6B,-3.999082326889038,-63.47666931152344,-17.13145637512207,16.488407135009766,5.282756805419922,45.28057861328125,2296.165982723236
D4:22:CD:00:49:AA,-170.838623046875,-84.98796081542969,88.78358459472656,4.342341423034668,-1.613243818283081,1.3437786102294922,2296.165982723236
D4:22:CD:00:05:6E,-54.334712982177734,-65.19013977050781,-162.3368377685547,-4.569170951843262,-11.812845230102539,14.593727111816406,2296.165982723236
D4:22:CD:00:05:5E,-123.17634582519531,-73.43256378173828,-119.36668395996094,-3.991283416748047,5.156719207763672,-0.19231224060058594,2296.165982723236
D4:22:CD:00:05:5D,163.90158081054688,-22.503910064697266,-129.54966735839844,-10.992666244506836,-8.600976943969727,19.53165054321289,2296.1959834098816
D4:22:CD:00:05:6B,32.631778717041016,-65.04222869873047,-38.14363479614258,35.07572937011719,1.3854598999023438,4.233349800109863,2296.1959834098816
D4:22:CD:00:49:AA,-164.7501678466797,-85.16893005371094,82.2183609008789,-1.7881042957305908,-2.799558162689209,4.226788520812988,2296.1959834098816
D4:22:CD:00:05:6E,-32.25380325317383,-66.54619598388672,167.67684936523438,0.4356086254119873,-10.3199462890625,25.91982650756836,2296.1959834098816
D4:22:CD:00:05:5E,-126.19546508789062,-75.32330322265625,-115.3564453125,-6.055764198303223,3.9366440773010254,-0.6348762512207031,2296.1959834098816
D4:22:CD:00:05:5D,161.72482299804688,-14.310214042663574,-126.8896713256836,-14.354635238647461,-6.593644142150879,13.220674514770508,2296.225982904434
D4:22:CD:00:05:6B,13.320005416870117,-66.05215454101562,-19.047405242919922,14.472576141357422,5.294351577758789,17.430591583251953,2296.225982904434
D4:22:CD:00:49:AA,-160.6517333984375,-85.61180114746094,79.3844985961914,-0.7808653116226196,1.7611534595489502,2.552623748779297,2296.225982904434
D4:22:CD:00:05:6E,-1.3526010513305664,-59.429866790771484,137.1599578857422,-3.057770252227783,-15.126558303833008,20.80901336669922,2296.225982904434
D4:22:CD:00:05:5E,-125.35722351074219,-77.5265884399414,-115.68038940429688,-6.531528472900391,4.272028923034668,-1.6415576934814453,2296.225982904434
D4:22:CD:00:05:5D,158.3265380859375,-6.017576217651367,-125.94459533691406,-10.50457763671875,-6.568388938903809,2.585280418395996,2296.255338191986
D4:22:CD:00:05:6B,-8.206074714660645,-59.898956298828125,-2.7778048515319824,10.59994888305664,-9.101938247680664,13.08674430847168,2296.255338191986
D4:22:CD:00:49:AA,-159.09959411621094,-84.49925231933594,80.13694763183594,1.919299840927124,3.9712796211242676,6.794582366943359,2296.255338191986
D4:22:CD:00:05:6E,14.917135238647461,-45.55327224731445,120.29824829101562,-3.8402886390686035,-7.247973442077637,16.487060546875,2296.255338191986
D4:22:CD:00:05:5E,-114.85655975341797,-79.79299926757812,-126.59396362304688,-7.212930679321289,3.8020143508911133,0.6895637512207031,2296.255338191986
D4:22:CD:00:05:5D,156.43215942382812,-0.32398489117622375,-125.22119140625,-7.342619895935059,-2.5164284706115723,-6.216933250427246,2296.3158671855927
D4:22:CD:00:05:6B,-17.019760131835938,-54.14316177368164,-0.5984036326408386,10.793357849121094,-2.735515594482422,1.6044816970825195,2296.3158671855927
D4:22:CD:00:49:AA,-164.06443786621094,-83.6317367553711,86.7461166381836,4.9084014892578125,-0.21069782972335815,10.093610763549805,2296.3158671855927
D4:22:CD:00:05:6E,21.65828514099121,-27.895217895507812,113.77587127685547,0.31616348028182983,2.316105842590332,2.7484779357910156,2296.3158671855927
D4:22:CD:00:05:5E,-89.53851318359375,-80.85626220703125,-153.413330078125,-6.788116455078125,3.3351993560791016,5.27659797668457,2296.3158671855927
D4:22:CD:00:05:5D,155.9960174560547,0.8279629945755005,-123.96112823486328,-4.81435489654541,0.3739491105079651,-11.024410247802734,2296.3462176322937
D4:22:CD:00:05:6B,-26.69140625,-51.58281326293945,-3.8133091926574707,1.4550361633300781,-7.2604522705078125,0.2985963821411133,2296.3462176322937
D4:22:CD:00:49:AA,-169.38185119628906,-84.45221710205078,93.55733489990234,5.031675338745117,4.119815826416016,8.026300430297852,2296.3462176322937
D4:22:CD:00:05:6E,22.2091007232666,-9.304855346679688,111.68295288085938,-10.54692268371582,-3.4520888328552246,-5.12584114074707,2296.3462176322937
D4:22:CD:00:05:5E,-47.50172805786133,-77.88655853271484,163.38900756835938,-4.35533332824707,-6.070090293884277,12.317790985107422,2296.3462176322937
D4:22:CD:00:05:5D,156.02633666992188,-3.3311119079589844,-122.12019348144531,-2.8068418502807617,-0.4260876178741455,-16.127323150634766,2296.3757433891296
D4:22:CD:00:05:6B,-30.588777542114258,-52.75226974487305,-12.12756061553955,-3.9171409606933594,-5.588798522949219,-0.15214824676513672,2296.3757433891296
D4:22:CD:00:49:AA,-179.31484985351562,-84.6091537475586,103.53604888916016,4.716791152954102,2.7625350952148438,7.088817596435547,2296.3757433891296
D4:22:CD:00:05:6E,9.382067680358887,7.353610515594482,110.13672637939453,-6.706906318664551,-3.1401586532592773,-5.924076080322266,2296.3757433891296
D4:22:CD:00:05:5E,-41.15430450439453,-74.02971649169922,155.643798828125,-4.028871536254883,2.8638577461242676,-5.045629501342773,2296.3757433891296
D4:22:CD:00:05:5D,156.46824645996094,-12.475227355957031,-119.60735321044922,-4.205410003662109,-4.411714553833008,-18.864856719970703,2296.4057433605194
D4:22:CD:00:05:6B,-37.04837417602539,-56.10546875,-21.076974868774414,-4.267760276794434,-4.43656063079834,-2.6398978233337402,2296.4057433605194
D4:22:CD:00:49:AA,170.23117065429688,-84.52203369140625,113.43330383300781,4.181926727294922,1.1460390090942383,3.2598724365234375,2296.4057433605194
D4:22:CD:00:05:6E,0.2644205093383789,22.455944061279297,106.75350189208984,-3.966801166534424,4.782313346862793,-0.9638948440551758,2296.4057433605194
D4:22:CD:00:05:5E,-49.373294830322266,-71.95632934570312,154.8601837158203,-4.0557355880737305,0.5714728832244873,-5.155241012573242,2296.4057433605194
D4:22:CD:00:05:5D,157.90182495117188,-25.628097534179688,-115.97145080566406,-4.041599273681641,-9.910032272338867,-18.176982879638672,2296.4357435703278
D4:22:CD:00:05:6B,-42.00263977050781,-60.799522399902344,-31.530860900878906,-7.102277755737305,-1.588135004043579,-1.7955036163330078,2296.4357435703278
D4:22:CD:00:49:AA,163.80812072753906,-84.49319458007812,119.70380401611328,1.8334729671478271,-0.08545011281967163,-1.336533546447754,2296.4357435703278
D4:22:CD:00:05:6E,1.6985386610031128,34.59356689453125,99.5096664428711,-7.408530235290527,-7.112295150756836,-8.60310173034668,2296.4357435703278
D4:22:CD:00:05:5E,-52.644248962402344,-70.16117858886719,151.70948791503906,-2.275217056274414,3.142838478088379,-9.358100891113281,2296.4357435703278
D4:22:CD:00:05:5D,158.76324462890625,-43.01967239379883,-111.40465545654297,-5.831000328063965,-12.116619110107422,-10.503446578979492,2296.4662816524506
D4:22:CD:00:05:6B,-39.99495315551758,-65.99554443359375,-43.975093841552734,-4.767315864562988,0.9446347951889038,-5.932039260864258,2296.4662816524506
D4:22:CD:00:49:AA,165.3094024658203,-84.8699722290039,117.648193359375,1.3272614479064941,1.2153229713439941,-7.070966720581055,2296.4662816524506
D4:22:CD:00:05:6E,0.029297029599547386,42.24604415893555,92.49407958984375,-7.754164695739746,-5.102126121520996,-8.762176513671875,2296.4662816524506
D4:22:CD:00:05:5E,-50.49498748779297,-69.11923217773438,148.2174072265625,-3.740664482116699,8.37037467956543,-12.919105529785156,2296.4662816524506
D4:22:CD:00:05:5D,155.15562438964844,-64.27961730957031,-104.61942291259766,1.5307204723358154,-13.569625854492188,17.651607513427734,2296.4962828159332
D4:22:CD:00:05:6B,-38.00856399536133,-70.51487731933594,-54.15660095214844,-2.8770360946655273,2.2224621772766113,-7.878774642944336,2296.4962828159332
D4:22:CD:00:49:AA,165.2168426513672,-84.9651107788086,116.38861083984375,2.9315905570983887,2.5795326232910156,-11.166597366333008,2296.4962828159332
D4:22:CD:00:05:6E,-2.871938467025757,46.9142951965332,90.01505279541016,-2.9327235221862793,-5.2129669189453125,-9.512765884399414,2296.4962828159332
D4:22:CD:00:05:5E,-51.46951675415039,-69.20841979980469,149.58419799804688,-8.73623275756836,4.200392723083496,-9.208719253540039,2296.4962828159332
D4:22:CD:00:05:5D,116.36920928955078,-84.04596710205078,-59.89588928222656,18.77231216430664,9.465921401977539,36.18412780761719,2296.526282787323
D4:22:CD:00:05:6B,-33.9619255065918,-74.11522674560547,-62.80889129638672,-2.589285373687744,3.384430408477783,-7.070594787597656,2296.526282787323
D4:22:CD:00:49:AA,160.48654174804688,-84.5086669921875,118.74424743652344,0.5491931438446045,0.8509010076522827,-12.183526992797852,2296.526282787323
D4:22:CD:00:05:6E,0.19333244860172272,49.21449661254883,96.84568786621094,-2.0140881538391113,-1.8710918426513672,-12.32452392578125,2296.526282787323
D4:22:CD:00:05:5E,-58.48777770996094,-69.94574737548828,155.4687042236328,-2.180398941040039,1.5214967727661133,-4.479976654052734,2296.526282787323
D4:22:CD:00:05:5D,9.675080299377441,-78.78268432617188,45.21962356567383,-1.451803207397461,37.74314880371094,-21.383712768554688,2296.555390357971
D4:22:CD:00:05:6B,-25.761533737182617,-76.59638977050781,-71.6479721069336,-2.2349700927734375,3.0305981636047363,-6.811786651611328,2296.555390357971
D4:22:CD:00:49:AA,159.34031677246094,-83.89863586425781,117.88504028320312,-2.765247344970703,-2.304936408996582,-7.945743560791016,2296.555390357971
D4:22:CD:00:05:6E,9.634468078613281,48.7033805847168,113.75247955322266,-8.717273712158203,6.8865766525268555,-21.437633514404297,2296.555390357971
D4:22:CD:00:05:5E,-68.208984375,-70.41229248046875,163.74276733398438,-4.058416366577148,0.5438472032546997,0.5517425537109375,2296.555390357971
D4:22:CD:00:05:5D,4.585404396057129,-77.13504791259766,41.52611541748047,12.67154312133789,10.171693801879883,-9.36192512512207,2296.616004705429
D4:22:CD:00:05:6B,-18.566421508789062,-78.82035827636719,-78.91547393798828,-1.4133119583129883,1.7382769584655762,-4.843597412109375,2296.616004705429
D4:22:CD:00:49:AA,161.81576538085938,-83.8663330078125,114.40010070800781,-1.381014347076416,-2.6294398307800293,-3.9917850494384766,2296.616004705429
D4:22:CD:00:05:6E,20.399471282958984,45.91496276855469,128.8997344970703,-20.83755111694336,8.705265045166016,-25.106712341308594,2296.616004705429
D4:22:CD:00:05:5E,-78.13229370117188,-69.6968002319336,172.22314453125,-4.717543601989746,-0.13096585869789124,1.7972745895385742,2296.616004705429
D4:22:CD:00:05:5D,22.512004852294922,-81.19877624511719,20.068254470825195,6.484295845031738,7.521100997924805,-1.8054819107055664,2296.646008014679
D4:22:CD:00:05:6B,-12.860676765441895,-80.67667388916016,-86.05879974365234,-1.9351460933685303,1.7340326309204102,0.5310029983520508,2296.646008014679
D4:22:CD:00:49:AA,166.8400421142578,-83.24288940429688,108.55947875976562,4.683480262756348,-1.186089277267456,0.3906288146972656,2296.646008014679
D4:22:CD:00:05:6E,16.54922103881836,46.090511322021484,125.80880737304688,2.219390869140625,-8.809089660644531,-11.532617568969727,2296.646008014679
D4:22:CD:00:05:5E,-84.7138900756836,-68.07434844970703,178.12510681152344,-8.754898071289062,0.7503830194473267,4.020016670227051,2296.646008014679
D4:22:CD:00:05:5D,83.87394714355469,-82.33844757080078,-37.3853874206543,10.734220504760742,-2.0075511932373047,-0.009002685546875,2296.705526828766
D4:22:CD:00:05:6B,-5.734585762023926,-81.6017837524414,-94.0050048828125,-4.7336320877075195,0.32230424880981445,1.621962547302246,2296.705526828766
D4:22:CD:00:49:AA,167.92630004882812,-83.62452697753906,107.5070571899414,-0.14586633443832397,0.05892673134803772,1.7347545623779297,2296.705526828766
D4:22:CD:00:05:6E,8.799519538879395,43.62479019165039,109.40867614746094,2.83914852142334,2.932276725769043,-11.171751022338867,2296.705526828766
D4:22:CD:00:05:5E,-84.64295959472656,-66.10713195800781,179.6463165283203,-7.113900184631348,0.808003306388855,4.965088844299316,2296.705526828766
D4:22:CD:00:05:5D,127.49479675292969,-77.91558074951172,-70.9099349975586,-4.774340629577637,-9.909090042114258,1.9359350204467773,2296.7095263004303
D4:22:CD:00:05:6B,-0.718734622001648,-83.03533935546875,-98.9041976928711,-1.00209641456604,-1.5008337497711182,3.145702362060547,2296.7095263004303
D4:22:CD:00:49:AA,173.9009552001953,-84.13502502441406,102.15855407714844,-0.14531022310256958,1.2373225688934326,-0.30916309356689453,2296.7095263004303
D4:22:CD:00:05:6E,3.0425896644592285,37.23389434814453,88.04369354248047,-10.466886520385742,4.952108383178711,-17.659343719482422,2296.7095263004303
D4:22:CD:00:05:5E,-80.14248657226562,-63.849891662597656,179.08351135253906,-9.372228622436523,-3.7895188331604004,7.74720573425293,2296.7095263004303
D4:22:CD:00:05:5D,139.37303161621094,-76.17236328125,-81.58578491210938,4.233708381652832,2.801743507385254,4.916407585144043,2296.73597574234
D4:22:CD:00:05:6B,-11.03496265411377,-85.50813293457031,-91.10968017578125,-1.6363437175750732,-0.0001361370086669922,6.42803955078125,2296.73597574234
D4:22:CD:00:49:AA,-173.6840057373047,-83.6051254272461,92.39221954345703,4.034168243408203,2.1725382804870605,4.815868377685547,2296.73597574234
D4:22:CD:00:05:6E,3.9145193099975586,25.25337028503418,69.92190551757812,-1.7646114826202393,2.2660961151123047,-15.664426803588867,2296.73597574234
D4:22:CD:00:05:5E,-67.54793548583984,-62.421756744384766,176.48809814453125,-12.544563293457031,-3.638730049133301,-1.8486762046813965,2296.73597574234
D4:22:CD:00:05:5D,150.15538024902344,-75.35994720458984,-92.80994415283203,-1.2409429550170898,-5.021575927734375,2.631650924682617,2296.7665207386017
D4:22:CD:00:05:6B,-41.224727630615234,-87.85917663574219,-60.66923904418945,-1.5031182765960693,1.193467378616333,8.376678466796875,2296.7665207386017
D4:22:CD:00:49:AA,-164.7533416748047,-81.54032897949219,87.15184020996094,4.452959060668945,-2.1013946533203125,4.650696754455566,2296.7665207386017
D4:22:CD:00:05:6E,10.095283508300781,11.939291000366211,56.76585006713867,-7.561298370361328,3.110415458679199,-12.720998764038086,2296.7665207386017
D4:22:CD:00:05:5E,-61.84059524536133,-62.94990539550781,-179.08038330078125,-25.128318786621094,18.729267120361328,-9.496829986572266,2296.7665207386017
D4:22:CD:00:05:5D,159.10482788085938,-74.80278778076172,-97.27935791015625,-9.094018936157227,1.5902695655822754,4.940042495727539,2296.795528650284
D4:22:CD:00:05:6B,-90.20185089111328,-87.39360809326172,-9.048663139343262,4.519713401794434,-2.0608062744140625,2.726898193359375,2296.795528650284
D4:22:CD:00:49:AA,-160.6377410888672,-78.9484634399414,87.13996124267578,-1.341555118560791,-3.7914586067199707,1.3918123245239258,2296.795528650284
D4:22:CD:00:05:6E,15.111743927001953,-1.2822455167770386,44.88969421386719,4.719701766967773,0.43140900135040283,-8.668251037597656,2296.795528650284
D4:22:CD:00:05:5E,-64.21769714355469,-65.32260131835938,-166.80430603027344,-15.420110702514648,11.916007995605469,-2.341233730316162,2296.795528650284
D4:22:CD:00:05:5D,169.2679443359375,-74.06828308105469,-104.35649108886719,-3.3759803771972656,-0.06118085980415344,2.000490188598633,2296.825528383255
D4:22:CD:00:05:6B,-100.3528060913086,-85.52880096435547,1.9830039739608765,3.6539149284362793,-2.066188335418701,-3.8665976524353027,2296.825528383255
D4:22:CD:00:49:AA,-160.91139221191406,-76.84197998046875,93.41358947753906,-6.527012825012207,-2.5194826126098633,-0.9156599044799805,2296.825528383255
D4:22:CD:00:05:6E,26.778688430786133,-11.327012062072754,33.745262145996094,12.115243911743164,-13.384004592895508,2.0226612091064453,2296.825528383255
D4:22:CD:00:05:5E,-74.82698059082031,-67.09960174560547,-147.5500946044922,-11.358896255493164,1.6511080265045166,-4.173419952392578,2296.825528383255
D4:22:CD:00:05:5D,176.4009552001953,-73.21060943603516,-112.75597381591797,3.0415425300598145,-1.2356421947479248,-0.11881732940673828,2296.856236219406
D4:22:CD:00:05:6B,-98.04167175292969,-85.36582946777344,2.4810898303985596,1.2122068405151367,-5.655657768249512,-4.186168670654297,2296.856236219406
D4:22:CD:00:49:AA,-162.2653045654297,-74.33740234375,100.5596923828125,-3.3554697036743164,2.843503475189209,-4.473587989807129,2296.856236219406
D4:22:CD:00:05:6E,48.139007568359375,-17.34056282043457,27.371074676513672,5.752703666687012,-14.211999893188477,-11.040721893310547,2296.856236219406
D4:22:CD:00:05:5E,-93.84282684326172,-66.84547424316406,-125.09813690185547,-4.475742340087891,-0.0582294836640358,-11.155977249145508,2296.856236219406
D4:22:CD:00:05:5D,-179.12315368652344,-73.01555633544922,-118.45980834960938,0.7363728284835815,-1.0989031791687012,0.55255126953125,2296.9158301353455
D4:22:CD:00:05:6B,-91.47331237792969,-87.16890716552734,-0.8694455027580261,-4.098367691040039,-6.823053359985352,-1.1379632949829102,2296.9158301353455
D4:22:CD:00:49:AA,-164.72109985351562,-72.69119262695312,104.75619506835938,5.811618804931641,3.12697696685791,-0.025976181030273438,2296.9158301353455
D4:22:CD:00:05:6E,65.95796203613281,-24.682348251342773,25.772302627563477,-12.560567855834961,5.135902404785156,3.39595890045166,2296.9158301353455
D4:22:CD:00:05:5E,-112.99143981933594,-64.9374008178711,-106.43008422851562,-0.10044537484645844,2.766125202178955,-16.543228149414062,2296.9158301353455
D4:22:CD:00:05:5D,-177.09268188476562,-72.45018005371094,-121.23078918457031,-1.964263916015625,1.450897216796875,0.6910791397094727,2296.9458417892456
D4:22:CD:00:05:6B,-87.99036407470703,-89.17149353027344,-1.4206151962280273,-4.129347801208496,-6.303606986999512,0.0740804672241211,2296.9458417892456
D4:22:CD:00:49:AA,-167.96327209472656,-71.45972442626953,107.89199829101562,2.581301689147949,0.9136146306991577,-0.8100786209106445,2296.9458417892456
D4:22:CD:00:05:6E,69.08623504638672,-32.39867401123047,24.300071716308594,-6.334980010986328,-9.808000564575195,1.065469741821289,2296.9458417892456
D4:22:CD:00:05:5E,-130.05174255371094,-61.91709899902344,-92.02536010742188,1.0906982421875,6.214527130126953,-15.719701766967773,2296.9458417892456
D4:22:CD:00:05:5D,-175.2216339111328,-71.72311401367188,-124.4089584350586,-1.4999618530273438,1.240009069442749,0.6611051559448242,2296.976364850998
D4:22:CD:00:05:6B,-169.56747436523438,-89.48149108886719,80.42105865478516,-2.266590118408203,-3.8024415969848633,-0.07909870147705078,2296.976364850998
D4:22:CD:00:49:AA,-171.4459228515625,-69.51432037353516,111.68871307373047,-5.1352338790893555,-0.04369186609983444,-1.229994773864746,2296.976364850998
D4:22:CD:00:05:6E,72.30708312988281,-41.21786117553711,23.395977020263672,-3.965078353881836,-5.50504207611084,-3.482351303100586,2296.976364850998
D4:22:CD:00:05:5E,-143.38136291503906,-58.928077697753906,-81.28668212890625,0.16222423315048218,5.706883430480957,-13.212303161621094,2296.976364850998
D4:22:CD:00:05:5D,-173.47462463378906,-71.0400161743164,-127.25672912597656,0.5349022150039673,-0.06822039186954498,0.06634998321533203,2297.006370782852
D4:22:CD:00:05:6B,-155.09925842285156,-88.69718933105469,64.00912475585938,-3.7255163192749023,-3.329072952270508,-0.9583349227905273,2297.006370782852
D4:22:CD:00:49:AA,-172.97586059570312,-67.23955535888672,113.27359008789062,-3.089413642883301,-0.49160826206207275,2.0842695236206055,2297.006370782852
D4:22:CD:00:05:6E,76.43624877929688,-54.40546798706055,17.312519073486328,-2.6851954460144043,-1.7510550022125244,1.0370807647705078,2297.006370782852
D4:22:CD:00:05:5E,-154.1620330810547,-57.2371940612793,-72.43720245361328,-1.986180305480957,3.4466819763183594,-9.054315567016602,2297.006370782852
D4:22:CD:00:05:5D,-172.65057373046875,-70.29942321777344,-128.8369903564453,-1.1676218509674072,-0.17548203468322754,-0.5337038040161133,2297.0363705158234
D4:22:CD:00:05:6B,-135.39242553710938,-88.15623474121094,40.7702522277832,0.032337725162506104,-1.2240054607391357,-0.9050693511962891,2297.0363705158234
D4:22:CD:00:49:AA,-174.8099822998047,-65.5215835571289,114.44834899902344,1.0877230167388916,1.4352753162384033,-0.604609489440918,2297.0363705158234
D4:22:CD:00:05:6E,87.1283950805664,-72.65057373046875,0.11490771919488907,8.823341369628906,-7.866393089294434,21.059494018554688,2297.0363705158234
D4:22:CD:00:05:5E,-162.9230194091797,-57.716007232666016,-64.58026885986328,-1.1056232452392578,2.219595432281494,-4.8010711669921875,2297.0363705158234
D4:22:CD:00:05:5D,-173.3475341796875,-68.99059295654297,-129.3263397216797,0.49974745512008667,-2.4721217155456543,-0.7163276672363281,2297.0659177303314
D4:22:CD:00:05:6B,-91.5475845336914,-88.30846405029297,-6.618932247161865,-2.0823898315429688,0.5821100473403931,-0.12665462493896484,2297.0659177303314
D4:22:CD:00:49:AA,-178.83937072753906,-64.1163558959961,116.5982437133789,-0.488492488861084,4.224660873413086,-1.3974580764770508,2297.0659177303314
D4:22:CD:00:05:6E,164.49148559570312,-85.20637512207031,-81.88107299804688,-7.429496765136719,-20.647842407226562,38.10124206542969,2297.0659177303314
D4:22:CD:00:05:5E,-168.69570922851562,-62.12062454223633,-57.46918487548828,6.420198440551758,-5.2999067306518555,-0.3261260986328125,2297.0659177303314
D4:22:CD:00:05:5D,-174.95828247070312,-66.8786849975586,-127.82535552978516,1.3465232849121094,-2.045572280883789,-0.8762741088867188,2297.0963435173035
D4:22:CD:00:05:6B,-47.32297134399414,-85.83200073242188,-53.73540115356445,-4.286496162414551,2.905153274536133,1.3348054885864258,2297.0963435173035
D4:22:CD:00:49:AA,176.93075561523438,-63.696895599365234,118.22974395751953,-1.4534742832183838,2.61429500579834,-0.02035808563232422,2297.0963435173035
D4:22:CD:00:05:6E,173.84417724609375,-84.54806518554688,-94.10780334472656,5.681182861328125,-3.215498447418213,1.896291732788086,2297.0963435173035
D4:22:CD:00:05:5E,-166.2624053955078,-69.41057586669922,-50.95612335205078,-26.982601165771484,27.214141845703125,43.12904357910156,2297.0963435173035
D4:22:CD:00:05:5D,-177.33192443847656,-64.11058044433594,-124.75444793701172,1.9616491794586182,-2.2596774101257324,-1.2077770233154297,2297.1263434886932
D4:22:CD:00:05:6B,-43.56293869018555,-79.44393157958984,-61.23841857910156,-3.9797534942626953,1.4412305355072021,1.3528423309326172,2297.1263434886932
D4:22:CD:00:49:AA,172.98501586914062,-64.39007568359375,119.6275405883789,-0.5176917314529419,1.8302783966064453,-0.7505483627319336,2297.1263434886932
D4:22:CD:00:05:6E,149.3842010498047,-82.99311065673828,-66.84273529052734,10.351797103881836,-5.9687957763671875,4.882847785949707,2297.1263434886932
D4:22:CD:00:05:5E,-164.6427459716797,-73.23070526123047,-49.9276123046875,6.049508094787598,-13.506534576416016,7.725797653198242,2297.1263434886932
D4:22:CD:00:05:5D,-179.52479553222656,-61.067405700683594,-121.0699691772461,-0.7462372779846191,0.34002959728240967,0.12174129486083984,2297.1563584804535
D4:22:CD:00:05:6B,-45.03605270385742,-69.70291137695312,-61.945552825927734,-1.5591697692871094,-1.373842477798462,5.746607780456543,2297.1563584804535
D4:22:CD:00:49:AA,169.57345581054688,-65.9681396484375,120.32769012451172,0.4899119734764099,2.055453300476074,-0.3019723892211914,2297.1563584804535
D4:22:CD:00:05:6E,119.16019439697266,-85.89153289794922,-31.522371292114258,2.2904200553894043,-8.435909271240234,6.887582778930664,2297.1563584804535
D4:22:CD:00:05:5E,-169.430908203125,-74.41824340820312,-49.68600082397461,5.214075088500977,-4.158084869384766,24.282062530517578,2297.1563584804535
