Device,EulerX,EulerY,EulerZ,FreeAccX,FreeAccY,FreeAccZ,Timestamp
D4:22:CD:00:05:5D,178.80206298828125,-57.726375579833984,-117.3684310913086,-0.5701694488525391,0.6836800575256348,1.011408805847168,2299.201780796051
D4:22:CD:00:05:6B,-50.58354187011719,-57.33649444580078,-58.261207580566406,-8.049165725708008,5.211406707763672,8.281822204589844,2299.201780796051
D4:22:CD:00:49:AA,165.41989135742188,-68.27096557617188,122.05525207519531,-3.5898990631103516,0.12838047742843628,1.7504777908325195,2299.201780796051
D4:22:CD:00:05:6E,74.3747329711914,-83.28326416015625,23.537580490112305,7.792413711547852,4.655402183532715,14.769134521484375,2299.201780796051
D4:22:CD:00:05:5E,-164.1321563720703,-71.93728637695312,-54.53562545776367,2.8380885124206543,-9.371454238891602,18.083293914794922,2299.201780796051
D4:22:CD:00:05:5D,177.9459991455078,-55.07142639160156,-114.33212280273438,-1.6303682327270508,1.750995397567749,1.5859832763671875,2299.2047889232635
D4:22:CD:00:05:6B,-55.11638259887695,-44.485565185546875,-52.58451461791992,-4.803825378417969,13.952810287475586,14.01472282409668,2299.2047889232635
D4:22:CD:00:49:AA,162.18106079101562,-69.07996368408203,124.08914184570312,-7.228695869445801,-1.342118263244629,2.8987483978271484,2299.2047889232635
D4:22:CD:00:05:6E,73.89806365966797,-75.60074615478516,33.134029388427734,-1.966869592666626,9.707906723022461,16.931804656982422,2299.2047889232635
D4:22:CD:00:05:5E,-159.95806884765625,-68.5644760131836,-56.332252502441406,0.38271474838256836,-10.425127029418945,13.620346069335938,2299.2047889232635
D4:22:CD:00:05:5D,178.5091094970703,-54.16565704345703,-113.2697982788086,-1.3827447891235352,2.1051206588745117,2.422994613647461,2299.2077889442444
D4:22:CD:00:05:6B,-53.67257308959961,-29.100595474243164,-46.20351028442383,4.902637481689453,12.481048583984375,24.457984924316406,2299.2077889442444
D4:22:CD:00:49:AA,161.4374237060547,-69.37269592285156,124.8114242553711,0.1197117418050766,-4.965777397155762,9.388458251953125,2299.2077889442444
D4:22:CD:00:05:6E,73.18153381347656,-70.09345245361328,37.4686393737793,0.5573574304580688,3.6371617317199707,8.739351272583008,2299.2077889442444
D4:22:CD:00:05:5E,-157.47085571289062,-67.95171356201172,-55.95695877075195,2.250614643096924,-2.874660015106201,11.67485237121582,2299.2077889442444
D4:22:CD:00:05:6B,-43.04726791381836,-12.940376281738281,-40.546287536621094,8.315301895141602,0.21170616149902344,25.574527740478516,2299.210788965225
D4:22:CD:00:49:AA,162.5161895751953,-68.96585845947266,124.62486267089844,1.3753046989440918,-1.92331862449646,10.581056594848633,2299.210788965225
D4:22:CD:00:05:6E,68.81119537353516,-70.61495971679688,49.44748306274414,-0.9674904346466064,0.47428667545318604,-0.6436567306518555,2299.210788965225
D4:22:CD:00:05:5E,-153.0504608154297,-69.93975067138672,-58.92475128173828,1.343092441558838,3.668470859527588,3.9959850311279297,2299.210788965225
D4:22:CD:00:05:5D,178.00839233398438,-48.692344665527344,-97.81705474853516,0.008100556209683418,0.9371262788772583,1.8758039474487305,2299.212790489197
D4:22:CD:00:05:6B,-69.49129486083984,8.65941333770752,-43.610958099365234,5.717372894287109,-5.31764030456543,31.01055145263672,2299.212790489197
D4:22:CD:00:49:AA,-178.17108154296875,-75.80353546142578,103.07750701904297,4.081847190856934,-0.2499498426914215,7.7664794921875,2299.212790489197
D4:22:CD:00:05:6E,55.689632415771484,-74.94346618652344,75.84294128417969,-4.747199058532715,0.5486358404159546,-6.160374641418457,2299.212790489197
D4:22:CD:00:05:5D,176.2509002685547,-46.93490219116211,-95.37752532958984,-0.4459606409072876,-0.13587084412574768,1.1312427520751953,2299.2567949295044
D4:22:CD:00:05:6B,-65.68783569335938,19.529460906982422,-35.67551803588867,14.86865234375,-12.761505126953125,26.679901123046875,2299.2567949295044
D4:22:CD:00:49:AA,164.22398376464844,-75.05218505859375,120.85173034667969,2.6239233016967773,-2.305238723754883,9.241058349609375,2299.2567949295044
D4:22:CD:00:05:6E,116.2714614868164,-74.8707046508789,19.492647171020508,-3.915546417236328,-1.0470592975616455,13.99618911743164,2299.2567949295044
D4:22:CD:00:05:5E,141.72598266601562,-76.47150421142578,29.004976272583008,0.27943509817123413,6.070484161376953,11.95655632019043,2299.2567949295044
D4:22:CD:00:05:5D,175.82229614257812,-46.78460693359375,-95.0645980834961,-0.9230488538742065,0.3994710445404053,1.725534439086914,2299.286337852478
D4:22:CD:00:05:6B,-58.36676788330078,25.916400909423828,-23.785037994384766,12.716573715209961,-13.715856552124023,18.14102554321289,2299.286337852478
D4:22:CD:00:49:AA,156.09629821777344,-71.43949890136719,129.04083251953125,-3.6674318313598633,0.9906158447265625,7.087985992431641,2299.286337852478
D4:22:CD:00:05:6E,112.30181121826172,-68.40084075927734,26.376018524169922,-2.9760398864746094,-1.3394434452056885,10.57017707824707,2299.286337852478
D4:22:CD:00:05:5E,177.07359313964844,-76.80955505371094,-3.4909615516662598,-2.620727062225342,4.327235221862793,3.1182947158813477,2299.286337852478
D4:22:CD:00:05:5D,175.77487182617188,-48.125160217285156,-95.50066375732422,-0.5978949069976807,0.6357256174087524,2.31719970703125,2299.3163356781006
D4:22:CD:00:05:6B,-46.68324279785156,30.543014526367188,-12.348722457885742,17.706363677978516,-9.73602294921875,13.655136108398438,2299.3163356781006
D4:22:CD:00:49:AA,162.35067749023438,-73.20047760009766,123.36414337158203,-4.020364761352539,2.302316188812256,9.035573959350586,2299.3163356781006
D4:22:CD:00:05:6E,110.34059143066406,-62.61220932006836,33.88816833496094,-1.895430564880371,-1.2628040313720703,1.4604883193969727,2299.3163356781006
D4:22:CD:00:05:5E,-160.27420043945312,-74.17048645019531,-26.686595916748047,-0.38435471057891846,6.1067399978637695,-4.546028137207031,2299.3163356781006
D4:22:CD:00:05:5D,175.74974060058594,-51.05619430541992,-96.38127899169922,0.7271944284439087,0.5986950397491455,3.58328914642334,2299.3758792877197
D4:22:CD:00:05:6B,-26.898603439331055,33.57167434692383,-9.625496864318848,13.980194091796875,-9.603628158569336,0.5546321868896484,2299.3758792877197
D4:22:CD:00:49:AA,174.06690979003906,-76.65272521972656,113.62266540527344,-4.158608436584473,0.9121514558792114,8.349822998046875,2299.3758792877197
D4:22:CD:00:05:6E,111.96282958984375,-65.02606964111328,39.74435806274414,-2.6683459281921387,-2.4928417205810547,-1.5590190887451172,2299.3758792877197
D4:22:CD:00:05:5E,-141.2735595703125,-74.07271575927734,-48.39229202270508,2.0774989128112793,7.947848320007324,-7.063998222351074,2299.3758792877197
D4:22:CD:00:05:5D,175.81961059570312,-55.696434020996094,-97.00875091552734,-2.855210781097412,-2.0967812538146973,7.665262222290039,2299.405880689621
D4:22:CD:00:05:6B,-11.56173324584961,37.38045120239258,-14.677448272705078,3.009843349456787,-3.3404698371887207,-7.351278305053711,2299.405880689621
D4:22:CD:00:49:AA,-166.53515625,-79.65286254882812,98.46812438964844,-1.0764312744140625,0.6017152070999146,3.107607841491699,2299.405880689621
D4:22:CD:00:05:6E,117.3428955078125,-72.02255249023438,44.27326965332031,-3.9865870475769043,-2.8081398010253906,-4.059577941894531,2299.405880689621
D4:22:CD:00:05:5E,-110.87596130371094,-73.89019775390625,-81.67212677001953,4.471538543701172,7.460476875305176,-7.086883544921875,2299.405880689621
D4:22:CD:00:05:5D,168.4322509765625,-63.27091979980469,-96.8973388671875,-6.585014343261719,-1.512192964553833,6.073897361755371,2299.435873031616
D4:22:CD:00:05:6B,-4.818619251251221,41.53450393676758,-19.65335464477539,-0.026667118072509766,-5.235959053039551,-3.6078224182128906,2299.435873031616
D4:22:CD:00:49:AA,-144.86065673828125,-80.4123306274414,80.03215789794922,-1.0340297222137451,1.4209797382354736,-2.3096609115600586,2299.435873031616
D4:22:CD:00:05:6E,134.19058227539062,-81.17627716064453,40.176387786865234,-6.811310768127441,-5.441267013549805,-4.652379989624023,2299.435873031616
D4:22:CD:00:05:5E,-79.11634063720703,-69.18368530273438,-114.8907241821289,2.8819193840026855,5.197846412658691,-6.514982223510742,2299.435873031616
D4:22:CD:00:05:5D,160.2653350830078,-65.66200256347656,-88.02082061767578,-1.992739200592041,-0.5463552474975586,-3.225644111633301,2299.466429710388
D4:22:CD:00:05:6B,-2.1166672706604004,44.17742156982422,-23.909921646118164,-1.2216212749481201,-1.5804486274719238,-4.109895706176758,2299.466429710388
D4:22:CD:00:49:AA,-129.09254455566406,-79.54312133789062,67.22587585449219,-0.7825504541397095,1.8560233116149902,-6.701577186584473,2299.466429710388
D4:22:CD:00:05:6E,-141.57008361816406,-85.89329528808594,-34.426090240478516,-4.242729187011719,-10.967948913574219,-7.01508903503418,2299.466429710388
D4:22:CD:00:05:5E,-60.954315185546875,-61.73981475830078,-134.7516326904297,-4.135442733764648,-1.4211926460266113,-13.112892150878906,2299.466429710388
D4:22:CD:00:05:5D,154.1598663330078,-64.66169738769531,-77.31969451904297,8.079526901245117,4.075697898864746,-6.026388168334961,2299.495527982712
D4:22:CD:00:05:6B,-4.276770114898682,44.810325622558594,-28.980562210083008,-1.7070934772491455,-4.097557067871094,-6.972931861877441,2299.495527982712
D4:22:CD:00:49:AA,-116.25591278076172,-78.95336151123047,57.03606033325195,-0.7554813623428345,4.072700500488281,-10.567708969116211,2299.495527982712
D4:22:CD:00:05:6E,-98.5880355834961,-81.4048843383789,-74.15644073486328,-0.9233286380767822,-6.851810455322266,-10.64190673828125,2299.495527982712
D4:22:CD:00:05:5E,-52.89081573486328,-55.35083770751953,-148.51026916503906,-7.109723091125488,1.459629774093628,-8.373821258544922,2299.495527982712
D4:22:CD:00:05:5D,153.0087127685547,-64.30391693115234,-67.84925842285156,11.623870849609375,-7.356878280639648,-17.267520904541016,2299.5255279541016
D4:22:CD:00:05:6B,-8.43466854095459,42.05710983276367,-36.50153350830078,-3.0744428634643555,-3.329458713531494,-10.78634262084961,2299.5255279541016
D4:22:CD:00:49:AA,-98.58073425292969,-80.33110809326172,42.63511276245117,1.9430949687957764,1.671393871307373,-10.150188446044922,2299.5255279541016
D4:22:CD:00:05:6E,-92.19908905029297,-76.3864974975586,-78.77262878417969,-0.7828693389892578,-5.10957145690918,-6.283968925476074,2299.5255279541016
D4:22:CD:00:05:5E,-48.738616943359375,-49.33056640625,-159.8824920654297,-12.731611251831055,-1.569108486175537,-10.353910446166992,2299.5255279541016
D4:22:CD:00:05:5D,158.05984497070312,-66.49268341064453,-63.91758728027344,0.8715493679046631,18.528167724609375,-0.9235572814941406,2299.5565400123596
D4:22:CD:00:05:6B,-12.40539264678955,34.92638397216797,-47.48541259765625,0.26672762632369995,-1.8937337398529053,-12.391788482666016,2299.5565400123596
D4:22:CD:00:49:AA,-78.13044738769531,-81.52921295166016,25.624237060546875,0.19527482986450195,-2.2405948638916016,-9.33140754699707,2299.5565400123596
D4:22:CD:00:05:6E,-85.48026275634766,-72.21160888671875,-80.86499786376953,0.08585862815380096,-6.675311088562012,-7.671374320983887,2299.5565400123596
D4:22:CD:00:05:5E,-51.20331954956055,-44.739227294921875,-166.93724060058594,-18.037925720214844,5.413158416748047,-8.056968688964844,2299.5565400123596
D4:22:CD:00:05:5D,157.26644897460938,-66.08902740478516,-65.97855377197266,-0.05486728996038437,-1.360731601715088,-5.707318305969238,2299.5860731601715
D4:22:CD:00:05:6B,-11.199237823486328,24.859853744506836,-61.27037811279297,3.1466259956359863,-17.06612777709961,-11.12922477722168,2299.5860731601715
D4:22:CD:00:49:AA,-65.16209411621094,-81.08519744873047,15.63280200958252,-1.1919548511505127,-2.0765504837036133,-5.929294586181641,2299.5860731601715
D4:22:CD:00:05:6E,-81.68018341064453,-69.42755126953125,-80.74295043945312,1.8530058860778809,-8.132791519165039,-8.946022033691406,2299.5860731601715
D4:22:CD:00:05:5E,-55.52304458618164,-42.52181625366211,-169.69435119628906,-19.765514373779297,0.5538852214813232,-16.57967758178711,2299.5860731601715
D4:22:CD:00:05:5D,157.73928833007812,-65.50421905517578,-66.6125259399414,-3.7631688117980957,-5.676220893859863,0.8708353042602539,2299.6160695552826
D4:22:CD:00:05:6B,-4.626778602600098,16.3655948638916,-75.39630126953125,0.454226016998291,-14.165666580200195,-22.6962890625,2299.6160695552826
D4:22:CD:00:49:AA,-52.846046447753906,-80.24845123291016,5.542670726776123,1.0810275077819824,0.5606026649475098,0.6834383010864258,2299.6160695552826
D4:22:CD:00:05:6E,-82.0335922241211,-67.38478088378906,-78.6871109008789,5.804874420166016,-8.778261184692383,-4.594961166381836,2299.6160695552826
D4:22:CD:00:05:5E,-60.52642059326172,-44.96669006347656,-169.19683837890625,-18.831588745117188,7.394840240478516,-16.508563995361328,2299.6160695552826
D4:22:CD:00:05:5D,159.8663330078125,-65.1232681274414,-64.0934066772461,0.6255128383636475,-2.756160259246826,3.1267337799072266,2299.6756253242493
D4:22:CD:00:05:6B,-8.63845157623291,14.088810920715332,-80.43672943115234,1.268092155456543,10.689088821411133,-19.76138687133789,2299.6756253242493
D4:22:CD:00:49:AA,-42.453224182128906,-79.61834716796875,-5.022472858428955,3.007478713989258,0.8297830820083618,0.5175867080688477,2299.6756253242493
D4:22:CD:00:05:6E,-81.3385009765625,-65.9658203125,-77.34151458740234,7.809203147888184,-9.82464599609375,-3.581118106842041,2299.6756253242493
D4:22:CD:00:05:5E,-71.5853271484375,-50.1782341003418,-160.9777069091797,-19.762386322021484,0.12856823205947876,-2.789248466491699,2299.6756253242493
D4:22:CD:00:05:5D,159.49481201171875,-64.837890625,-61.81711959838867,4.005481719970703,-1.4067027568817139,1.3496379852294922,2299.705722808838
D4:22:CD:00:05:6B,-28.741430282592773,17.52267837524414,-71.78633880615234,-17.817123413085938,-0.3184342384338379,-5.11788272857666,2299.705722808838
D4:22:CD:00:49:AA,-34.775909423828125,-79.91291046142578,-14.484389305114746,-1.7535696029663086,-1.6268794536590576,-0.47670650482177734,2299.705722808838
D4:22:CD:00:05:6E,-81.67310333251953,-65.85736846923828,-75.13721466064453,8.934318542480469,-10.488656997680664,-2.1439733505249023,2299.705722808838
D4:22:CD:00:05:5E,-79.14839935302734,-54.8768424987793,-152.70269775390625,-5.523650169372559,-15.425779342651367,-3.0446581840515137,2299.705722808838
D4:22:CD:00:05:5D,157.06451416015625,-64.52195739746094,-58.83024978637695,0.7049088478088379,-2.930384635925293,4.3061065673828125,2299.7358963489532
D4:22:CD:00:05:6B,-28.143718719482422,22.765880584716797,-61.57063674926758,-5.098139762878418,-14.047269821166992,-10.529678344726562,2299.7358963489532
D4:22:CD:00:49:AA,-28.548168182373047,-80.65914916992188,-21.985427856445312,-4.002063751220703,-4.184327125549316,6.358430862426758,2299.7358963489532
D4:22:CD:00:05:6E,-83.64015197753906,-68.121826171875,-71.84446716308594,11.096704483032227,-8.401687622070312,1.9703683853149414,2299.7358963489532
D4:22:CD:00:05:5E,-88.67384338378906,-58.04029083251953,-144.343994140625,1.6110763549804688,-4.078056335449219,22.001651763916016,2299.7358963489532
D4:22:CD:00:05:5D,153.0648651123047,-64.03182220458984,-54.93203353881836,-0.4196023941040039,-1.9852125644683838,3.918026924133301,2299.7664263248444
D4:22:CD:00:05:6B,-23.361221313476562,27.205585479736328,-45.47378158569336,2.5051703453063965,-9.652044296264648,-10.556358337402344,2299.7664263248444
D4:22:CD:00:49:AA,-26.301631927490234,-81.5970230102539,-25.15442657470703,0.9127379655838013,-1.7206320762634277,3.6056299209594727,2299.7664263248444
D4:22:CD:00:05:6E,-86.42761993408203,-71.03215789794922,-67.50904083251953,10.841217041015625,-9.251766204833984,1.6116180419921875,2299.7664263248444
D4:22:CD:00:05:5E,-101.47430419921875,-57.95772171020508,-135.17654418945312,-6.105984687805176,1.2052080631256104,-0.35175132751464844,2299.7664263248444
D4:22:CD:00:05:5D,147.208740234375,-63.65451431274414,-50.5899772644043,1.1219635009765625,-0.9899194240570068,2.8809728622436523,2299.7964265346527
D4:22:CD:00:05:6B,-16.382909774780273,26.437719345092773,-27.9271183013916,-9.693130493164062,-12.92890739440918,-1.800522804260254,2299.7964265346527
D4:22:CD:00:49:AA,-23.723644256591797,-82.86925506591797,-29.392011642456055,3.100616455078125,-0.2774643898010254,0.98077392578125,2299.7964265346527
D4:22:CD:00:05:6E,-96.57991790771484,-74.2261734008789,-60.096553802490234,8.13985824584961,-10.90005111694336,1.0031490325927734,2299.7964265346527
D4:22:CD:00:05:5E,-105.62743377685547,-59.32764434814453,-131.04989624023438,-5.320196151733398,1.874912977218628,-3.7513909339904785,2299.7964265346527
D4:22:CD:00:05:5D,140.2047576904297,-63.44017791748047,-46.022239685058594,1.2568881511688232,-1.9418866634368896,1.9901189804077148,2299.8254265785217
D4:22:CD:00:05:6B,-2.5901541709899902,20.35403060913086,-12.316362380981445,-8.213689804077148,-1.4238049983978271,-1.9854607582092285,2299.8254265785217
D4:22:CD:00:49:AA,-28.98890495300293,-84.66094970703125,-26.15182113647461,3.4703540802001953,-2.3736023902893066,2.3165884017944336,2299.8254265785217
D4:22:CD:00:05:6E,-120.16642761230469,-77.53221893310547,-45.409263610839844,5.054594039916992,-5.420379638671875,2.8904333114624023,2299.8254265785217
D4:22:CD:00:05:5E,-107.63372039794922,-61.43990707397461,-129.40940856933594,-7.076918601989746,-4.419136047363281,-0.08255958557128906,2299.8254265785217
D4:22:CD:00:05:5D,129.93894958496094,-63.34906768798828,-40.72719955444336,5.258774757385254,-2.473830223083496,0.18021678924560547,2299.855537414551
D4:22:CD:00:05:6B,6.626145839691162,10.941410064697266,2.9282169342041016,-4.73944091796875,14.172920227050781,-3.400855541229248,2299.855537414551
D4:22:CD:00:49:AA,-51.25002670288086,-86.08458709716797,-7.027376174926758,4.994209289550781,4.685059547424316,-0.8233480453491211,2299.855537414551
D4:22:CD:00:05:6E,-154.50933837890625,-79.4988784790039,-19.164987564086914,1.5073320865631104,0.3187482953071594,3.300509452819824,2299.855537414551
D4:22:CD:00:05:5E,-110.38612365722656,-63.15861129760742,-128.2784881591797,-5.487819671630859,-2.4184341430664062,-1.8298563957214355,2299.855537414551
D4:22:CD:00:05:5D,123.3830795288086,-62.00958251953125,-41.37752151489258,9.37605094909668,2.6529269218444824,2.874940872192383,2299.8856995105743
D4:22:CD:00:05:6B,-6.019210338592529,-0.3510664403438568,18.324800491333008,-16.843158721923828,34.71662139892578,-10.728462219238281,2299.8856995105743
D4:22:CD:00:49:AA,-97.52342224121094,-85.8434829711914,33.69355392456055,7.198332786560059,-0.6815164089202881,-3.294215202331543,2299.8856995105743
D4:22:CD:00:05:6E,173.1598663330078,-78.5857162475586,8.978216171264648,-1.0734484195709229,2.1148624420166016,1.3432416915893555,2299.8856995105743
D4:22:CD:00:05:5E,-111.62913513183594,-65.07560729980469,-127.7845458984375,-4.066046714782715,-2.2405591011047363,-0.6931476593017578,2299.8856995105743
D4:22:CD:00:05:5D,123.79711151123047,-59.42304229736328,-49.6705436706543,12.173580169677734,15.77695083618164,5.318367958068848,2299.915695667267
D4:22:CD:00:05:6B,-32.06867980957031,-9.647482872009277,31.54924774169922,5.636623382568359,-7.802875518798828,1.4689674377441406,2299.915695667267
D4:22:CD:00:49:AA,-129.05557250976562,-83.0639877319336,61.179691314697266,3.7864766120910645,-3.8208212852478027,2.3761539459228516,2299.915695667267
D4:22:CD:00:05:6E,159.09910583496094,-77.22203063964844,15.747206687927246,-1.5745563507080078,8.375869750976562,-2.5274429321289062,2299.915695667267
D4:22:CD:00:05:5E,-111.3031997680664,-66.93453979492188,-128.16900634765625,-5.549180030822754,-2.517022132873535,-1.6585197448730469,2299.915695667267
D4:22:CD:00:05:5D,130.0521240234375,-53.8343620300293,-62.34764099121094,11.269453048706055,14.281486511230469,5.082060813903809,2299.976322412491
D4:22:CD:00:05:6B,-43.06865310668945,-16.125938415527344,40.443668365478516,-2.3760852813720703,5.413749694824219,4.667095184326172,2299.976322412491
D4:22:CD:00:49:AA,-138.24761962890625,-81.79259490966797,68.35729217529297,0.5141910314559937,0.5555293560028076,2.5022506713867188,2299.976322412491
D4:22:CD:00:05:6E,154.63095092773438,-76.82177734375,13.344067573547363,-0.5930212736129761,6.18306827545166,-1.9105472564697266,2299.976322412491
D4:22:CD:00:05:5E,-109.87177276611328,-68.81549835205078,-129.66807556152344,-4.120273590087891,-4.194868087768555,-0.5173912048339844,2299.976322412491
D4:22:CD:00:05:5D,137.39625549316406,-46.65664291381836,-77.15321350097656,8.199447631835938,2.883315086364746,-1.1315898895263672,2300.006321668625
D4:22:CD:00:05:6B,-52.103065490722656,-19.03253746032715,47.25985336303711,-4.641685485839844,4.924127578735352,5.947551727294922,2300.006321668625
D4:22:CD:00:49:AA,-139.91310119628906,-81.34696960449219,69.2876205444336,0.4912179708480835,2.0382585525512695,-1.3928470611572266,2300.006321668625
D4:22:CD:00:05:6E,159.02720642089844,-76.92643737792969,9.637612342834473,-2.230529308319092,2.156564235687256,0.9706478118896484,2300.006321668625
D4:22:CD:00:05:5E,-103.3100357055664,-71.04351806640625,-133.70986938476562,-3.2356581687927246,-1.548151969909668,-2.419525623321533,2300.006321668625
D4:22:CD:00:05:5D,143.799072265625,-38.697776794433594,-88.96702575683594,2.5001583099365234,-1.1623518466949463,-4.659486770629883,2300.036323785782
D4:22:CD:00:05:6B,-57.295372009277344,-20.305593490600586,51.87348556518555,-5.118539810180664,4.829978942871094,0.049346923828125,2300.036323785782
D4:22:CD:00:49:AA,-143.72402954101562,-80.3637924194336,72.75973510742188,2.329853057861328,2.057781219482422,-1.74688720703125,2300.036323785782
D4:22:CD:00:05:6E,164.4376678466797,-77.50069427490234,8.298702239990234,-2.5938825607299805,-1.7678537368774414,0.7033910751342773,2300.036323785782
D4:22:CD:00:05:5E,-103.01355743408203,-71.23080444335938,-132.46714782714844,-3.380667209625244,-2.417755603790283,-3.075223445892334,2300.036323785782
D4:22:CD:00:05:5D,149.4854736328125,-31.068410873413086,-98.2969970703125,-2.3456239700317383,-1.8541700839996338,-8.505880355834961,2300.0658526420593
D4:22:CD:00:05:6B,-62.148983001708984,-22.377172470092773,54.68032455444336,-3.8027548789978027,3.7068629264831543,-6.013559341430664,2300.0658526420593
D4:22:CD:00:49:AA,-148.3617401123047,-79.89192962646484,77.64363861083984,2.615525245666504,0.5819172859191895,-3.0155234336853027,2300.0658526420593
D4:22:CD:00:05:6E,164.97537231445312,-78.1714096069336,10.936271667480469,2.611586570739746,-0.4802894592285156,-1.8411149978637695,2300.0658526420593
D4:22:CD:00:05:5E,-107.74893951416016,-70.18138122558594,-126.71672058105469,-4.3237504959106445,-3.371687889099121,-2.992827892303467,2300.0658526420593
D4:22:CD:00:05:5D,153.80958557128906,-24.93855857849121,-106.03286743164062,-3.738168716430664,-0.13049915432929993,-10.563730239868164,2300.095852136612
D4:22:CD:00:05:6B,-69.21349334716797,-26.90672492980957,58.5272102355957,-1.741349220275879,2.689204692840576,-7.30522346496582,2300.095852136612
D4:22:CD:00:49:AA,-151.83961486816406,-79.44020080566406,82.02354431152344,0.7490171194076538,-0.2872586250305176,-3.6890006065368652,2300.095852136612
D4:22:CD:00:05:6E,161.38865661621094,-79.14663696289062,19.343639373779297,3.4168272018432617,-2.355132579803467,-3.076498031616211,2300.095852136612
D4:22:CD:00:05:5E,-115.79703521728516,-67.57434844970703,-117.64454650878906,-4.920188903808594,-5.531659126281738,-3.6388726234436035,2300.095852136612
D4:22:CD:00:05:5D,155.589111328125,-21.332860946655273,-112.83434295654297,-9.771417617797852,-2.0866012573242188,-7.72237491607666,2300.125852584839
D4:22:CD:00:05:6B,-83.35592651367188,-34.9434814453125,67.0164794921875,4.476325035095215,8.013132095336914,-9.559762954711914,2300.125852584839
D4:22:CD:00:49:AA,-153.80230712890625,-79.59911346435547,84.95824432373047,0.8452388048171997,1.3091177940368652,-3.900932788848877,2300.125852584839
D4:22:CD:00:05:6E,152.05889892578125,-79.71317291259766,32.46553039550781,1.3111379146575928,-3.819028377532959,-4.831109046936035,2300.125852584839
D4:22:CD:00:05:5E,-124.51708221435547,-63.352684020996094,-108.61278533935547,-4.089441299438477,-1.1589913368225098,-1.8997764587402344,2300.125852584839
D4:22:CD:00:05:5D,152.00047302246094,-21.854795455932617,-117.81632232666016,-13.585504531860352,-4.829054832458496,-13.014720916748047,2300.1561603546143
D4:22:CD:00:05:6B,-109.81159210205078,-44.27911376953125,80.84508514404297,4.875197410583496,18.696239471435547,12.373485565185547,2300.1561603546143
D4:22:CD:00:49:AA,-151.176513671875,-80.59191131591797,82.73321533203125,2.9498157501220703,1.8411540985107422,-3.167238235473633,2300.1561603546143
D4:22:CD:00:05:6E,140.63246154785156,-79.30736541748047,46.02168655395508,2.0978145599365234,-2.7323355674743652,-5.574487686157227,2300.1561603546143
D4:22:CD:00:05:5E,-132.0712890625,-58.46011734008789,-101.6712875366211,-6.091948509216309,-1.8931608200073242,-2.588944911956787,2300.1561603546143
D4:22:CD:00:05:5D,148.03079223632812,-25.781997680664062,-119.25331115722656,-13.473651885986328,-7.419129371643066,-8.563226699829102,2300.1856887340546
D4:22:CD:00:05:6B,-129.48036193847656,-52.5753288269043,90.52685546875,-11.496610641479492,18.91962432861328,23.298206329345703,2300.1856887340546
D4:22:CD:00:49:AA,-145.14019775390625,-81.60225677490234,75.93341827392578,5.915410041809082,1.9401583671569824,-1.104008674621582,2300.1856887340546
D4:22:CD:00:05:6E,129.6305389404297,-78.1921615600586,59.367149353027344,3.8416600227355957,-5.550166130065918,-3.085850715637207,2300.1856887340546
D4:22:CD:00:05:5E,-137.22695922851562,-53.81753158569336,-97.0096435546875,-5.512226104736328,-0.8521521091461182,-1.0411291122436523,2300.1856887340546
D4:22:CD:00:05:5D,147.86199951171875,-26.723690032958984,-118.7859115600586,-7.561877250671387,-4.552883148193359,30.110065460205078,2300.2156884670258
D4:22:CD:00:05:6B,-130.1022491455078,-54.19007873535156,89.43567657470703,3.70200777053833,12.983236312866211,1.6479005813598633,2300.2156884670258
D4:22:CD:00:49:AA,-140.86268615722656,-82.67517852783203,69.13508605957031,0.9390898942947388,0.11436532437801361,-0.13836002349853516,2300.2156884670258
D4:22:CD:00:05:6E,112.11637878417969,-75.88308715820312,78.43997955322266,6.793067932128906,-8.778604507446289,3.778654098510742,2300.2156884670258
D4:22:CD:00:05:5E,-140.5999298095703,-50.58515548706055,-94.87230682373047,-4.728470802307129,-1.6357753276824951,0.21318340301513672,2300.2156884670258
D4:22:CD:00:05:5D,154.4563446044922,-23.89990997314453,-113.85669708251953,-17.481510162353516,-7.384157180786133,12.450605392456055,2300.276246547699
D4:22:CD:00:05:6B,-129.35061645507812,-46.36432647705078,79.42028045654297,6.562382698059082,17.898155212402344,9.655363082885742,2300.276246547699
D4:22:CD:00:49:AA,-138.15814208984375,-83.07929992675781,64.22991180419922,-0.005067038349807262,-2.5866847038269043,0.7880029678344727,2300.276246547699
D4:22:CD:00:05:6E,93.7696762084961,-69.85069274902344,98.6295166015625,9.424545288085938,-6.42717170715332,10.827903747558594,2300.276246547699
D4:22:CD:00:05:5E,-142.6028594970703,-49.099937438964844,-93.90074157714844,-4.273143768310547,-2.117417335510254,2.1042490005493164,2300.276246547699
D4:22:CD:00:05:5D,153.76687622070312,-17.21255874633789,-109.46049499511719,-0.7122901678085327,-20.653148651123047,9.128427505493164,2300.306241750717
D4:22:CD:00:05:6B,-130.3662872314453,-37.62327575683594,67.34989929199219,3.9561257362365723,11.986204147338867,12.569576263427734,2300.306241750717
D4:22:CD:00:49:AA,-148.86373901367188,-81.75212097167969,72.80870056152344,2.396440029144287,-2.1684632301330566,8.581987380981445,2300.306241750717
D4:22:CD:00:05:6E,87.56390380859375,-58.37044906616211,112.24435424804688,15.943517684936523,-15.862756729125977,20.469459533691406,2300.306241750717
D4:22:CD:00:05:5E,-143.6997528076172,-49.492523193359375,-93.24488067626953,-4.913654327392578,-1.058046579360962,1.4265108108520508,2300.306241750717
D4:22:CD:00:05:5D,152.2996063232422,-9.665474891662598,-108.05982208251953,-6.7596282958984375,-14.415542602539062,13.35114860534668,2300.33624792099
D4:22:CD:00:05:6B,-129.0136260986328,-32.39826583862305,56.20680236816406,6.458539962768555,3.974287509918213,6.939308166503906,2300.33624792099
D4:22:CD:00:49:AA,-150.29415893554688,-81.96498107910156,72.75890350341797,2.4394044876098633,0.3797306418418884,7.36842155456543,2300.33624792099
D4:22:CD:00:05:6E,81.8497543334961,-41.12720489501953,119.223388671875,16.899112701416016,-14.139299392700195,25.05144500732422,2300.33624792099
D4:22:CD:00:05:5E,-143.9846649169922,-51.686649322509766,-93.77901458740234,-6.599061965942383,-0.9476519823074341,1.4418363571166992,2300.33624792099
D4:22:CD:00:05:5D,149.21795654296875,-3.532310962677002,-109.30496978759766,-2.1547789573669434,-8.276107788085938,0.27463722229003906,2300.365790605545
D4:22:CD:00:05:6B,-128.30442810058594,-32.08561706542969,47.26546859741211,4.410972595214844,-1.6972975730895996,-0.24945545196533203,2300.365790605545
D4:22:CD:00:49:AA,-154.776611328125,-82.55518341064453,76.3601303100586,5.42369270324707,2.257014751434326,10.080564498901367,2300.365790605545
D4:22:CD:00:05:6E,74.5166015625,-20.934762954711914,120.7835922241211,7.946183204650879,1.845304012298584,13.406942367553711,2300.365790605545
D4:22:CD:00:05:5E,-143.12899780273438,-55.16643524169922,-97.1507797241211,-7.8989973068237305,-2.2992944717407227,2.531177520751953,2300.365790605545
D4:22:CD:00:05:5D,148.91500854492188,-1.2251585721969604,-112.23601531982422,-3.5979928970336914,-1.4240388870239258,-6.731234550476074,2300.395789861679
D4:22:CD:00:05:6B,-132.46505737304688,-37.15101623535156,42.03169250488281,-4.335549354553223,-2.4347610473632812,-0.19501018524169922,2300.395789861679
D4:22:CD:00:49:AA,-163.3870391845703,-83.11461639404297,83.4617919921875,3.9879660606384277,2.4567227363586426,9.72956657409668,2300.395789861679
D4:22:CD:00:05:6E,69.63995361328125,-1.4920988082885742,120.47604370117188,5.140164375305176,3.6940674781799316,7.606515884399414,2300.395789861679
D4:22:CD:00:05:5E,-139.9220733642578,-59.77457809448242,-103.86188507080078,-4.539636611938477,-7.629225730895996,9.200748443603516,2300.395789861679
D4:22:CD:00:05:5D,149.79832458496094,-3.785719871520996,-114.91656494140625,-5.436728477478027,1.6899538040161133,-13.498424530029297,2300.426784992218
D4:22:CD:00:05:6B,-136.93359375,-46.60273742675781,42.19795608520508,-9.344207763671875,1.1055200099945068,-1.1412134170532227,2300.426784992218
D4:22:CD:00:49:AA,-174.04830932617188,-83.46793365478516,92.48351287841797,2.339188575744629,1.5936000347137451,5.92404842376709,2300.426784992218
D4:22:CD:00:05:6E,62.79917907714844,14.333662986755371,120.15158081054688,-1.4033284187316895,0.8240370750427246,3.915675163269043,2300.426784992218
D4:22:CD:00:05:5E,-121.56890106201172,-67.33880615234375,-118.61109924316406,-0.048894017934799194,0.5098016262054443,2.058403968811035,2300.426784992218
D4:22:CD:00:05:5D,151.4687042236328,-11.126093864440918,-116.09625244140625,-8.46757698059082,1.0069966316223145,-18.39398956298828,2300.4558806419373
D4:22:CD:00:05:6B,-143.47349548339844,-57.6611328125,48.866912841796875,-5.611553192138672,1.785945177078247,-4.367827415466309,2300.4558806419373
D4:22:CD:00:49:AA,172.29830932617188,-83.19257354736328,104.49932861328125,2.8700428009033203,0.5597777366638184,0.49086570739746094,2300.4558806419373
D4:22:CD:00:05:6E,62.22481918334961,26.556533813476562,119.7334213256836,0.385614275932312,-2.376378059387207,-5.445904731750488,2300.4558806419373
D4:22:CD:00:05:5E,-110.42399597167969,-69.26036834716797,-127.45556640625,-2.3598432540893555,0.988676905632019,-8.222862243652344,2300.4558806419373
D4:22:CD:00:05:5D,152.88377380371094,-22.541324615478516,-115.7324447631836,-8.298341751098633,-2.6333813667297363,-17.102642059326172,2300.486428499222
D4:22:CD:00:05:6B,-161.07000732421875,-67.02484893798828,64.89144897460938,-2.578409194946289,-0.23427700996398926,-3.9264578819274902,2300.486428499222
D4:22:CD:00:49:AA,160.80569458007812,-81.65898895263672,114.39415740966797,1.3515279293060303,-0.5522727966308594,-5.203304290771484,2300.486428499222
D4:22:CD:00:05:6E,73.24322509765625,37.304569244384766,120.17667388916016,-3.3581180572509766,-4.08034610748291,-4.585065841674805,2300.486428499222
D4:22:CD:00:05:5E,-104.95800018310547,-70.15727233886719,-134.34173583984375,-4.499760627746582,-2.346595287322998,-8.532855987548828,2300.486428499222
D4:22:CD:00:05:5D,152.6615753173828,-36.85403060913086,-114.06468200683594,-6.5665283203125,-4.266933441162109,-10.108278274536133,2300.5164144039154
D4:22:CD:00:05:6B,167.55230712890625,-71.13545227050781,89.30081176757812,-5.069708824157715,-0.31600379943847656,-5.705864906311035,2300.5164144039154
D4:22:CD:00:49:AA,156.5608673095703,-80.11724090576172,118.15765380859375,-3.606142997741699,-0.08459025621414185,-10.223043441772461,2300.5164144039154
D4:22:CD:00:05:6E,86.82353210449219,45.84156799316406,122.87264251708984,-3.3143062591552734,-2.006967544555664,-6.952686309814453,2300.5164144039154
D4:22:CD:00:05:5E,-100.71882629394531,-70.43814086914062,-141.08445739746094,-1.5376009941101074,1.551926851272583,-9.872894287109375,2300.5164144039154
D4:22:CD:00:05:5D,149.3065185546875,-53.41633605957031,-110.84954833984375,-4.585506439208984,-4.154860496520996,-1.7701749801635742,2300.5759625434875
D4:22:CD:00:05:6B,137.06935119628906,-73.3136215209961,102.51403045654297,-12.362586975097656,3.081027030944824,-9.583356857299805,2300.5759625434875
D4:22:CD:00:49:AA,153.82720947265625,-79.37033081054688,120.3652114868164,-0.7818435430526733,1.5844600200653076,-10.762928009033203,2300.5759625434875
D4:22:CD:00:05:6E,95.56892395019531,50.31160354614258,128.08580017089844,-4.432735443115234,-0.47781306505203247,-8.520105361938477,2300.5759625434875
D4:22:CD:00:05:5E,-102.49284362792969,-70.24236297607422,-141.9420166015625,-6.6413726806640625,12.747861862182617,-6.837693214416504,2300.5759625434875
D4:22:CD:00:05:5D,139.68777465820312,-71.43989562988281,-102.49356842041016,-2.1068410873413086,-3.4664206504821777,9.053960800170898,2300.6059622764587
D4:22:CD:00:05:6B,118.80352020263672,-76.3586196899414,113.5461196899414,-12.876422882080078,12.61053466796875,-13.15019416809082,2300.6059622764587
D4:22:CD:00:49:AA,152.38209533691406,-78.92589569091797,120.57693481445312,1.7836263179779053,1.0069317817687988,-9.92049789428711,2300.6059622764587
D4:22:CD:00:05:6E,97.5208511352539,48.99245071411133,134.42361450195312,-3.7109508514404297,-1.8012025356292725,-9.475578308105469,2300.6059622764587
D4:22:CD:00:05:5E,-108.05192565917969,-69.63202667236328,-138.21678161621094,-3.599841594696045,-1.8804314136505127,-6.309876441955566,2300.6059622764587
D4:22:CD:00:05:5D,56.988285064697266,-84.95306396484375,-17.727148056030273,8.62645149230957,1.3904154300689697,20.83517837524414,2300.63596200943
D4:22:CD:00:05:6B,110.65353393554688,-78.00740814208984,127.84742736816406,-2.3319311141967773,2.549563407897949,-10.438669204711914,2300.63596200943
D4:22:CD:00:49:AA,152.48312377929688,-78.56000518798828,119.79434967041016,0.6890556812286377,1.0741004943847656,-8.841529846191406,2300.63596200943
D4:22:CD:00:05:6E,95.7763442993164,41.847293853759766,140.5142059326172,-7.133049011230469,1.4567346572875977,-12.053955078125,2300.63596200943
D4:22:CD:00:05:5E,-114.78775024414062,-68.57421875,-132.80364990234375,-5.894742965698242,-6.074516296386719,-3.3686652183532715,2300.63596200943
D4:22:CD:00:05:5D,10.105853080749512,-72.7291030883789,37.78382110595703,9.800529479980469,21.76471710205078,3.34698486328125,2300.6665110588074
D4:22:CD:00:05:6B,104.97160339355469,-78.36578369140625,139.10250854492188,0.24626076221466064,0.6463056802749634,-7.692990303039551,2300.6665110588074
D4:22:CD:00:49:AA,155.02157592773438,-78.6415786743164,116.00990295410156,0.09426647424697876,0.6254913806915283,-6.66847038269043,2300.6665110588074
D4:22:CD:00:05:6E,92.16284942626953,30.48729705810547,146.0127410888672,-25.13748550415039,13.638429641723633,-13.438177108764648,2300.6665110588074
D4:22:CD:00:05:5E,-123.70755767822266,-65.95689392089844,-126.34845733642578,-3.184701442718506,-5.576300621032715,-2.039590358734131,2300.6665110588074
D4:22:CD:00:05:5D,16.594362258911133,-70.1374282836914,32.6331901550293,9.109455108642578,16.463211059570312,-8.75863265991211,2300.696513414383
D4:22:CD:00:05:6B,99.7788314819336,-77.98090362548828,144.97708129882812,-1.2751224040985107,1.3137924671173096,-6.287825584411621,2300.696513414383
D4:22:CD:00:49:AA,165.91378784179688,-77.72946166992188,105.24722290039062,3.1278347969055176,-3.2896175384521484,-1.6545076370239258,2300.696513414383
D4:22:CD:00:05:6E,97.12108612060547,23.904712677001953,150.25767517089844,-4.593191146850586,-2.9388790130615234,-30.056621551513672,2300.696513414383
D4:22:CD:00:05:5E,-128.7554931640625,-62.94983673095703,-123.40350341796875,-8.99172592163086,-5.122086524963379,3.0630569458007812,2300.696513414383
D4:22:CD:00:05:5D,32.657981872558594,-72.33016204833984,18.042760848999023,11.927484512329102,9.14488410949707,-6.881756782531738,2300.7255957126617
D4:22:CD:00:05:6B,99.3116455078125,-76.82563781738281,142.3362274169922,-4.011447906494141,3.5229973793029785,-3.0557007789611816,2300.7255957126617
D4:22:CD:00:49:AA,176.03961181640625,-74.9552993774414,95.61701202392578,5.747467041015625,-2.8092904090881348,8.416078567504883,2300.7255957126617
D4:22:CD:00:05:6E,117.01559448242188,30.069068908691406,150.2742462158203,3.0805511474609375,3.429144859313965,12.403633117675781,2300.7255957126617
D4:22:CD:00:05:5E,-128.09744262695312,-61.21246337890625,-124.40628051757812,-5.756072044372559,-3.005375862121582,4.6599273681640625,2300.7255957126617
D4:22:CD:00:05:5D,70.19827270507812,-74.23213195800781,-12.437251091003418,18.137741088867188,10.762134552001953,-1.7902898788452148,2300.756716489792
D4:22:CD:00:05:6B,105.10295104980469,-73.67566680908203,134.53298950195312,-6.419898986816406,7.4740142822265625,5.0601606369018555,2300.756716489792
D4:22:CD:00:49:AA,178.22581481933594,-75.01596069335938,92.206787109375,2.677393913269043,0.7484034299850464,5.665299415588379,2300.756716489792
D4:22:CD:00:05:6E,112.0937728881836,36.193939208984375,144.79319763183594,0.9511831998825073,3.159343719482422,-3.6569952964782715,2300.756716489792
D4:22:CD:00:05:5E,-124.94548797607422,-59.98812484741211,-127.86417388916016,-6.194766044616699,-5.099390029907227,3.6610260009765625,2300.756716489792
D4:22:CD:00:05:5D,107.64025115966797,-73.20211791992188,-43.81319808959961,-5.002181053161621,-2.923769950866699,11.155790328979492,2300.7862544059753
D4:22:CD:00:05:6B,112.96199035644531,-68.39120483398438,128.6107635498047,-8.409976959228516,10.460927963256836,9.758941650390625,2300.7862544059753
D4:22:CD:00:49:AA,-175.35499572753906,-74.85215759277344,86.52761840820312,4.560053825378418,1.7805423736572266,3.9714889526367188,2300.7862544059753
D4:22:CD:00:05:6E,105.55940246582031,43.826866149902344,136.27987670898438,0.41301214694976807,2.5462799072265625,-8.518774032592773,2300.7862544059753
D4:22:CD:00:05:5E,-117.9177017211914,-58.915260314941406,-132.83035278320312,-6.706450462341309,-6.678716659545898,2.3510684967041016,2300.7862544059753
D4:22:CD:00:05:5D,118.12659454345703,-73.80207824707031,-58.750022888183594,6.832365036010742,-16.025737762451172,-2.815154552459717,2300.816254377365
D4:22:CD:00:05:6B,123.83675384521484,-62.89519500732422,125.83042907714844,-8.95931625366211,13.725536346435547,7.618448257446289,2300.816254377365
D4:22:CD:00:49:AA,-172.0192108154297,-74.59745788574219,85.38529968261719,2.218841552734375,-2.1265316009521484,7.5923309326171875,2300.816254377365
D4:22:CD:00:05:6E,97.0782699584961,51.40827941894531,122.5491714477539,-8.795293807983398,7.196846008300781,-0.23419952392578125,2300.816254377365
D4:22:CD:00:05:5E,-107.4993667602539,-57.82856750488281,-140.0490264892578,-7.928589820861816,-11.010913848876953,-1.732137680053711,2300.816254377365
D4:22:CD:00:05:5D,131.00326538085938,-75.1040267944336,-70.47655487060547,-8.703926086425781,4.013909339904785,7.520750045776367,2300.875807762146
D4:22:CD:00:05:6B,136.9550323486328,-59.418556213378906,122.62052917480469,0.002406597137451172,8.225927352905273,3.9972476959228516,2300.875807762146
D4:22:CD:00:49:AA,-170.11341857910156,-74.63984680175781,86.76564025878906,-0.768010139465332,-0.9902520179748535,-0.5208711624145508,2300.875807762146
D4:22:CD:00:05:6E,80.61381530761719,55.40239715576172,102.25086212158203,-1.063840389251709,-3.5176291465759277,-6.564406394958496,2300.875807762146
D4:22:CD:00:05:5E,-92.03814697265625,-57.26352310180664,-145.13931274414062,-14.651224136352539,9.399312973022461,-5.019594192504883,2300.875807762146
D4:22:CD:00:05:5D,141.35862731933594,-74.67388916015625,-75.98429107666016,-6.343081474304199,-2.170656681060791,2.6532506942749023,2300.9058089256287
D4:22:CD:00:05:6B,148.6424102783203,-57.68326187133789,115.8542709350586,-1.2923126220703125,5.28044319152832,0.22413349151611328,2300.9058089256287
D4:22:CD:00:49:AA,-166.4976043701172,-72.87422180175781,87.44801330566406,-2.1236705780029297,-0.8815761804580688,-1.3721494674682617,2300.9058089256287
D4:22:CD:00:05:6E,65.86412811279297,53.06755828857422,77.54995727539062,-10.30296516418457,-4.285816192626953,-4.03378963470459,2300.9058089256287
D4:22:CD:00:05:5E,-75.88059997558594,-55.64179229736328,-145.4892120361328,-22.689250946044922,12.246337890625,-5.440521240234375,2300.9058089256287
D4:22:CD:00:05:5D,153.86485290527344,-74.174560546875,-84.20740509033203,-2.151721477508545,1.4394419193267822,1.9776124954223633,2300.9358093738556
D4:22:CD:00:05:6B,159.89793395996094,-56.66452407836914,108.60752868652344,-5.4771318435668945,2.386967182159424,-1.590907096862793,2300.9358093738556
D4:22:CD:00:49:AA,-164.56199645996094,-70.84518432617188,91.12478637695312,-4.777647972106934,2.6085853576660156,-1.8908958435058594,2300.9358093738556
D4:22:CD:00:05:6E,52.57457733154297,45.941139221191406,55.49046325683594,-1.7202858924865723,1.567549228668213,-8.513181686401367,2300.9358093738556
D4:22:CD:00:05:5E,-74.20018005371094,-54.47425842285156,-134.25340270996094,-23.423412322998047,1.8783469200134277,-8.337188720703125,2300.9358093738556
D4:22:CD:00:05:5D,163.19786071777344,-74.57737731933594,-95.80113983154297,0.9138903617858887,0.05138026177883148,0.5493955612182617,2300.9663512706757
D4:22:CD:00:05:6B,167.17527770996094,-56.13197708129883,104.48388671875,-4.184165954589844,-0.268094539642334,-2.02119779586792,2300.9663512706757
D4:22:CD:00:49:AA,-167.2266082763672,-69.66923522949219,96.85508728027344,-1.9536068439483643,2.217895030975342,-1.489699363708496,2300.9663512706757
D4:22:CD:00:05:6E,41.32808303833008,37.936092376708984,39.050106048583984,11.820566177368164,-5.383818626403809,-6.633596420288086,2300.9663512706757
D4:22:CD:00:05:5E,-84.43938446044922,-53.44441223144531,-117.09078216552734,-12.892425537109375,-0.4534416198730469,-6.99901008605957,2300.9663512706757
D4:22:CD:00:05:5D,171.1186981201172,-74.27582550048828,-104.54227447509766,2.9436116218566895,-1.1371870040893555,0.11476516723632812,2300.9963450431824
D4:22:CD:00:05:6B,166.8609161376953,-56.49407196044922,103.1258544921875,-6.457435607910156,-2.3049588203430176,-3.1546287536621094,2300.9963450431824
D4:22:CD:00:49:AA,-172.01483154296875,-68.84000396728516,101.49490356445312,1.832975149154663,-1.8035342693328857,2.776392936706543,2300.9963450431824
D4:22:CD:00:05:6E,41.837467193603516,30.932382583618164,28.998842239379883,15.147727966308594,-22.209434509277344,-7.6538848876953125,2300.9963450431824
D4:22:CD:00:05:5E,-96.22203826904297,-51.631404876708984,-99.67830657958984,-5.972658157348633,-1.888601541519165,-9.760705947875977,2300.9963450431824
D4:22:CD:00:05:5D,175.77931213378906,-73.97257995605469,-109.2130126953125,1.1970341205596924,0.41362011432647705,0.46010684967041016,2301.026350736618
D4:22:CD:00:05:6B,165.11392211914062,-57.75596237182617,102.0154037475586,-6.347552299499512,-1.9641053676605225,-4.508466720581055,2301.026350736618
D4:22:CD:00:49:AA,-174.3976287841797,-68.27294921875,105.14564514160156,-4.3442277908325195,1.8015904426574707,0.6300487518310547,2301.026350736618
D4:22:CD:00:05:6E,61.923282623291016,24.53262710571289,25.984203338623047,-1.9292981624603271,-2.2908124923706055,-11.123144149780273,2301.026350736618
D4:22:CD:00:05:5E,-108.83174133300781,-49.17951202392578,-84.0277328491211,-0.4509008526802063,-1.2708745002746582,-10.602848052978516,2301.026350736618
D4:22:CD:00:05:5D,178.1905517578125,-73.80243682861328,-112.01091766357422,-0.12091648578643799,-0.2423023283481598,0.19155406951904297,2301.0563564300537
D4:22:CD:00:05:6B,164.53553771972656,-59.96723937988281,99.73246002197266,-5.03436279296875,0.37947559356689453,-4.952169418334961,2301.0563564300537
D4:22:CD:00:49:AA,-176.55352783203125,-68.39654541015625,108.61089324951172,-4.142157554626465,1.324127435684204,-0.650054931640625,2301.0563564300537
D4:22:CD:00:05:6E,77.04549407958984,19.282459259033203,22.319063186645508,-0.5805710554122925,11.574268341064453,14.631399154663086,2301.0563564300537
D4:22:CD:00:05:5E,-122.16365814208984,-46.631690979003906,-71.23086547851562,1.0449047088623047,-0.9111471176147461,-10.822793960571289,2301.0563564300537
D4:22:CD:00:05:5D,179.37973022460938,-73.18177032470703,-113.4351577758789,0.01327488012611866,-0.8052773475646973,-1.0445308685302734,2301.086899280548
D4:22:CD:00:05:6B,164.6844482421875,-63.223270416259766,96.2311019897461,-6.139127731323242,1.534501075744629,-6.14772891998291,2301.086899280548
D4:22:CD:00:49:AA,-179.21742248535156,-68.81299591064453,112.09370422363281,-0.6266614198684692,0.7150838375091553,-2.0998306274414062,2301.086899280548
D4:22:CD:00:05:6E,82.72747039794922,15.003668785095215,17.103778839111328,0.5071765184402466,-2.9687790870666504,-2.1071224212646484,2301.086899280548
D4:22:CD:00:05:5E,-133.9466552734375,-45.37073516845703,-61.65071487426758,0.4844149351119995,-1.8140099048614502,-7.272071838378906,2301.086899280548
D4:22:CD:00:05:5D,179.66026306152344,-71.7579574584961,-113.32958984375,0.03828061372041702,-1.6245038509368896,-0.6175537109375,2301.1159031391144
D4:22:CD:00:05:6B,167.516845703125,-67.77429962158203,92.11908721923828,-5.255059242248535,2.8874592781066895,-6.850332260131836,2301.1159031391144
D4:22:CD:00:49:AA,177.00003051757812,-69.09883117675781,115.75379943847656,0.07089048624038696,1.2506883144378662,-4.986660957336426,2301.1159031391144
D4:22:CD:00:05:6E,93.44561004638672,8.43254280090332,13.16972827911377,5.738624572753906,0.25250279903411865,-6.462338447570801,2301.1159031391144
D4:22:CD:00:05:5E,-143.4295654296875,-46.66038513183594,-54.659576416015625,4.451471328735352,-3.711885452270508,-4.436758041381836,2301.1159031391144
D4:22:CD:00:05:5D,178.4131622314453,-68.9669189453125,-111.2220458984375,-0.4231191873550415,-1.0195279121398926,-1.2334299087524414,2301.1756823062897
D4:22:CD:00:05:6B,173.1058807373047,-73.50580596923828,86.89234924316406,-0.8962374925613403,-0.5093121528625488,-8.10892105102539,2301.1756823062897
D4:22:CD:00:49:AA,171.23524475097656,-69.19955444335938,120.21875,-0.612317681312561,1.1939475536346436,-3.75081729888916,2301.1756823062897
D4:22:CD:00:05:6E,104.97166442871094,-0.7436965703964233,10.72390365600586,12.734392166137695,-2.6001601219177246,-0.7201461791992188,2301.1756823062897
D4:22:CD:00:05:5E,-147.01931762695312,-52.52708053588867,-50.5654411315918,11.236888885498047,-2.4900026321411133,-3.3636155128479004,2301.1756823062897
D4:22:CD:00:05:5D,175.7828826904297,-64.71592712402344,-108.19667053222656,-0.6477946043014526,-2.5059351921081543,0.2701425552368164,2301.2057683467865
D4:22:CD:00:05:6B,-178.18515014648438,-79.22992706298828,74.87590789794922,-2.920346736907959,-1.2763259410858154,-10.17076301574707,2301.2057683467865
D4:22:CD:00:49:AA,165.2987823486328,-70.14434814453125,124.55094909667969,-2.457487106323242,-0.23872435092926025,-1.124246597290039,2301.2057683467865
D4:22:CD:00:05:6E,110.91273498535156,-12.373533248901367,12.036685943603516,16.427261352539062,-2.2654800415039062,6.813543319702148,2301.2057683467865
D4:22:CD:00:05:5E,-141.6598663330078,-56.116966247558594,-49.149417877197266,-3.4046759605407715,-3.0322656631469727,28.635211944580078,2301.2057683467865
D4:22:CD:00:05:5D,172.86135864257812,-59.767906188964844,-105.45143127441406,-1.0999631881713867,-3.468956470489502,-0.05551624298095703,2301.2359414100647
D4:22:CD:00:05:6B,-154.34347534179688,-83.76480102539062,47.550498962402344,-7.431546211242676,3.458253860473633,-8.327667236328125,2301.2359414100647
D4:22:CD:00:49:AA,159.88438415527344,-72.22759246826172,128.83468627929688,-2.4039878845214844,0.23571428656578064,-2.8940277099609375,2301.2359414100647
D4:22:CD:00:05:6E,111.40666198730469,-25.286151885986328,14.941812515258789,13.737812042236328,4.235838890075684,6.791131973266602,2301.2359414100647
D4:22:CD:00:05:5E,-141.6364288330078,-57.04814529418945,-52.1950798034668,9.61025619506836,-17.129405975341797,0.1383228302001953,2301.2359414100647
D4:22:CD:00:05:5D,170.91064453125,-54.9326057434082,-101.9048080444336,-3.0028181076049805,1.9624919891357422,-0.9380121231079102,2301.2664790153503
D4:22:CD:00:05:6B,-102.53520202636719,-84.59188079833984,-6.640965461730957,-8.137813568115234,8.50752067565918,-4.531532287597656,2301.2664790153503
D4:22:CD:00:49:AA,153.73448181152344,-73.79448699951172,135.15182495117188,-1.4910271167755127,-0.817889928817749,-3.072037696838379,2301.2664790153503
D4:22:CD:00:05:6E,111.94854736328125,-36.476226806640625,16.185298919677734,20.981029510498047,-8.403451919555664,11.561782836914062,2301.2664790153503
D4:22:CD:00:05:5E,-148.47650146484375,-55.593563079833984,-53.61668014526367,11.629655838012695,-4.324193954467773,18.719097137451172,2301.2664790153503
