Device,EulerX,EulerY,EulerZ,FreeAccX,FreeAccY,FreeAccZ,Timestamp
D4:22:CD:00:05:5D,168.5947265625,-68.31272888183594,-93.724609375,-1.4268288612365723,-1.9942545890808105,-0.5710020065307617,2278.1109285354614
D4:22:CD:00:05:6B,36.33344268798828,58.63676452636719,-74.3686294555664,3.277514934539795,1.4598171710968018,-5.74153995513916,2278.1109285354614
D4:22:CD:00:49:AA,178.7834014892578,-76.14312744140625,121.78227233886719,0.044006794691085815,3.088130474090576,-4.257063865661621,2278.1109285354614
D4:22:CD:00:05:6E,-42.745872497558594,-40.01716995239258,-83.97077178955078,5.1831254959106445,-6.833898544311523,-10.435117721557617,2278.1109285354614
D4:22:CD:00:05:5E,2.4813082218170166,-78.03083038330078,170.44288635253906,-8.316095352172852,-2.3340702056884766,-4.756186485290527,2278.1109285354614
D4:22:CD:00:05:5D,162.59442138671875,-71.4954833984375,-89.96401977539062,0.7278131246566772,3.015331745147705,-4.244756698608398,2278.1149282455444
D4:22:CD:00:05:6B,22.68124771118164,60.73097610473633,-93.77859497070312,4.546219825744629,-3.451575756072998,-8.931974411010742,2278.1149282455444
D4:22:CD:00:49:AA,178.28335571289062,-76.49808502197266,122.00947570800781,-0.462180495262146,1.6392030715942383,-5.2748308181762695,2278.1149282455444
D4:22:CD:00:05:6E,-41.92893981933594,-35.98822021484375,-81.67127990722656,5.573605537414551,-5.295595169067383,-11.63621711730957,2278.1149282455444
D4:22:CD:00:05:5E,-1.901442050933838,-68.78484344482422,169.85162353515625,-14.080150604248047,-1.9246840476989746,-2.1464247703552246,2278.1149282455444
D4:22:CD:00:05:6B,0.16831721365451813,59.7891731262207,-124.0828857421875,4.126272201538086,-3.5512375831604004,-13.757528305053711,2278.1179282665253
D4:22:CD:00:49:AA,172.1593780517578,-77.62047576904297,127.56855010986328,-0.765735387802124,0.8100053071975708,-7.603819847106934,2278.1179282665253
D4:22:CD:00:05:6E,-43.579559326171875,-33.931129455566406,-80.33911895751953,5.565185546875,-3.193486213684082,-11.216592788696289,2278.1179282665253
D4:22:CD:00:05:5E,-9.803784370422363,-62.174678802490234,171.19943237304688,-15.98153305053711,-1.0494983196258545,-7.5462446212768555,2278.1179282665253
D4:22:CD:00:05:5D,154.9363555908203,-59.46100616455078,-103.72225952148438,0.6295515298843384,-1.0135767459869385,0.35102272033691406,2278.1199321746826
D4:22:CD:00:49:AA,162.6533203125,-78.81594848632812,135.92527770996094,-0.32825589179992676,-0.27911925315856934,-7.6593217849731445,2278.1199321746826
D4:22:CD:00:05:6E,-45.94729232788086,-33.6497917175293,-80.11743927001953,4.468567848205566,-3.0917224884033203,-10.246942520141602,2278.1199321746826
D4:22:CD:00:05:5E,-13.087687492370605,-58.52436065673828,171.95535278320312,-18.20458221435547,-0.7564049959182739,-11.85693359375,2278.1199321746826
D4:22:CD:00:05:5D,161.2783966064453,-60.11705017089844,-111.7688217163086,0.6773940324783325,-0.04453696310520172,0.6764717102050781,2278.122945547104
D4:22:CD:00:05:6B,161.2855682373047,-74.7236328125,-15.40318489074707,-0.5325794219970703,-0.49910688400268555,4.656581878662109,2278.122945547104
D4:22:CD:00:05:5E,-9.56517219543457,-59.53573989868164,172.2138214111328,-15.850761413574219,-6.339012145996094,-16.354225158691406,2278.122945547104
D4:22:CD:00:05:5D,167.2259521484375,-59.78689193725586,-118.51665496826172,1.771162986755371,0.02608954906463623,0.8612508773803711,2278.1964478492737
D4:22:CD:00:05:6B,154.71348571777344,-74.46358489990234,-14.62559700012207,1.9969687461853027,1.2743799686431885,3.494365692138672,2278.1964478492737
D4:22:CD:00:49:AA,133.26089477539062,-83.18206024169922,164.1615753173828,-2.329805374145508,-2.2451114654541016,3.4768753051757812,2278.1964478492737
D4:22:CD:00:05:6E,-0.8867076635360718,14.19687557220459,-159.8857879638672,2.0943965911865234,-9.349895477294922,0.07025432586669922,2278.1964478492737
D4:22:CD:00:05:5E,10.135747909545898,72.17794799804688,-144.46929931640625,0.9419134855270386,2.9266700744628906,-7.107085227966309,2278.1964478492737
D4:22:CD:00:05:5D,172.6814422607422,-59.498626708984375,-123.80286407470703,1.0600295066833496,-0.21145206689834595,1.058262825012207,2278.2264704704285
D4:22:CD:00:05:6B,151.77259826660156,-75.22897338867188,-15.538330078125,5.380533218383789,5.04184627532959,4.883225440979004,2278.2264704704285
D4:22:CD:00:49:AA,-161.33804321289062,-82.75102233886719,98.2810287475586,0.31741517782211304,-1.7499146461486816,4.839552879333496,2278.2264704704285
D4:22:CD:00:05:6E,14.825772285461426,8.94919204711914,-154.2855224609375,0.31794673204421997,-4.595917701721191,2.3366928100585938,2278.2264704704285
D4:22:CD:00:05:5E,-26.43454933166504,73.31021881103516,-176.10427856445312,4.731053352355957,6.094213485717773,-10.062885284423828,2278.2264704704285
D4:22:CD:00:05:5D,176.77914428710938,-59.91722869873047,-127.06649017333984,1.1224656105041504,-0.4588669538497925,0.6120090484619141,2278.2859964370728
D4:22:CD:00:05:6B,166.08203125,-76.46492004394531,-26.75264549255371,4.3160505294799805,3.8394522666931152,3.9974308013916016,2278.2859964370728
D4:22:CD:00:49:AA,-156.0233154296875,-79.73714447021484,93.10472869873047,0.42180734872817993,1.098343849182129,3.7471303939819336,2278.2859964370728
D4:22:CD:00:05:6E,31.4599609375,-2.52174973487854,-146.89028930664062,-6.123593330383301,-1.5189862251281738,-0.19096946716308594,2278.2859964370728
D4:22:CD:00:05:5E,-70.33016967773438,73.24767303466797,143.2428436279297,0.7934895753860474,7.246668815612793,-13.623329162597656,2278.2859964370728
D4:22:CD:00:05:5D,-179.18585205078125,-60.69108200073242,-129.05491638183594,-0.2557430863380432,0.2303052842617035,0.5071468353271484,2278.3160037994385
D4:22:CD:00:05:6B,-173.53103637695312,-77.37122344970703,-43.38865661621094,0.9181504249572754,-1.1825032234191895,1.6484870910644531,2278.3160037994385
D4:22:CD:00:49:AA,-159.06005859375,-79.76042175292969,95.0748291015625,0.11342522501945496,1.7536308765411377,2.394123077392578,2278.3160037994385
D4:22:CD:00:05:6E,38.16850662231445,-15.245525360107422,-137.99130249023438,-1.7010762691497803,-10.971546173095703,1.4656744003295898,2278.3160037994385
D4:22:CD:00:05:5E,-99.22376251220703,67.65443420410156,113.8493423461914,-1.047590970993042,4.845165252685547,-18.115863800048828,2278.3160037994385
D4:22:CD:00:05:5D,-176.28738403320312,-61.709510803222656,-130.01614379882812,-0.19854387640953064,-1.1149845123291016,0.08516597747802734,2278.346551179886
D4:22:CD:00:05:6B,-154.65061950683594,-77.81935119628906,-64.39888000488281,1.6221582889556885,0.8168823719024658,-0.42470359802246094,2278.346551179886
D4:22:CD:00:49:AA,-162.39727783203125,-81.01972198486328,96.61549377441406,-0.5979518890380859,0.370913028717041,-0.2047882080078125,2278.346551179886
D4:22:CD:00:05:6E,40.91714096069336,-29.408353805541992,-126.15037536621094,-5.262332916259766,-13.594572067260742,2.1511287689208984,2278.346551179886
D4:22:CD:00:05:5E,-113.26909637451172,58.850379943847656,95.6216812133789,6.174001693725586,14.925748825073242,-19.263809204101562,2278.346551179886
D4:22:CD:00:05:5D,-173.45989990234375,-63.17433166503906,-130.8053436279297,1.6961517333984375,-3.2498373985290527,-1.0551233291625977,2278.3765428066254
D4:22:CD:00:05:6B,-132.92703247070312,-77.2294921875,-88.67555236816406,1.7799758911132812,1.250823974609375,-3.2978906631469727,2278.3765428066254
D4:22:CD:00:49:AA,-165.24330139160156,-82.36668395996094,96.65906524658203,0.0705382227897644,-0.18574461340904236,-3.819345474243164,2278.3765428066254
D4:22:CD:00:05:6E,36.920921325683594,-45.65543746948242,-111.92015075683594,5.379417419433594,-14.718633651733398,23.56671905517578,2278.3765428066254
D4:22:CD:00:05:5E,-121.10199737548828,47.82402038574219,83.48344421386719,11.002584457397461,17.66781997680664,-22.263938903808594,2278.3765428066254
D4:22:CD:00:05:5D,-170.65509033203125,-64.35897827148438,-130.8394012451172,-1.242326259613037,-1.1379249095916748,-1.3413143157958984,2278.406551837921
D4:22:CD:00:05:6B,-113.33220672607422,-74.48358917236328,-112.11286926269531,0.6036254167556763,0.9464093446731567,-5.195725440979004,2278.406551837921
D4:22:CD:00:49:AA,-169.72755432128906,-83.47869110107422,97.93599700927734,0.4762268662452698,-0.03452056646347046,-5.710577964782715,2278.406551837921
D4:22:CD:00:05:6E,26.047393798828125,-58.088218688964844,-104.9533462524414,-1.4849472045898438,-0.8446346521377563,14.209165573120117,2278.406551837921
D4:22:CD:00:05:5E,-132.5465545654297,37.489295959472656,77.35955047607422,-1.2800843715667725,6.227047920227051,-26.318950653076172,2278.406551837921
D4:22:CD:00:05:5D,-171.583251953125,-63.8445930480957,-128.97549438476562,-3.0641703605651855,-3.3259243965148926,-1.9059276580810547,2278.4355680942535
D4:22:CD:00:05:6B,-100.01338195800781,-68.82376861572266,-129.47207641601562,2.898885726928711,2.817345142364502,-3.882685661315918,2278.4355680942535
D4:22:CD:00:49:AA,-172.61373901367188,-84.6307144165039,98.0489501953125,1.327045202255249,-1.0282084941864014,-7.713000297546387,2278.4355680942535
D4:22:CD:00:05:6E,33.249935150146484,-63.30825424194336,-114.30354309082031,-13.241294860839844,0.09595276415348053,0.22004222869873047,2278.4355680942535
D4:22:CD:00:05:5E,-142.3412322998047,31.540529251098633,76.62987518310547,-3.1977763175964355,22.884735107421875,-20.415130615234375,2278.4355680942535
D4:22:CD:00:05:5D,-173.62014770507812,-61.772701263427734,-125.9628677368164,-1.646524429321289,1.3743715286254883,-1.301072120666504,2278.466089248657
D4:22:CD:00:05:6B,-92.95751953125,-58.719539642333984,-140.2867431640625,3.3911919593811035,1.0069193840026855,3.218576431274414,2278.466089248657
D4:22:CD:00:49:AA,176.91903686523438,-84.89447021484375,105.56861114501953,-0.9881230592727661,-2.094534397125244,-5.680620193481445,2278.466089248657
D4:22:CD:00:05:6E,43.88559341430664,-63.338531494140625,-121.07705688476562,-3.125518321990967,-2.030735969543457,-1.9706268310546875,2278.466089248657
D4:22:CD:00:05:5E,-141.2255096435547,29.588247299194336,76.89763641357422,5.271431922912598,16.49933624267578,-20.78055191040039,2278.466089248657
D4:22:CD:00:05:5D,-175.35397338867188,-59.411842346191406,-122.91058349609375,-1.3657937049865723,0.5375651121139526,-0.7803153991699219,2278.4960882663727
D4:22:CD:00:05:6B,-91.58578491210938,-44.54661560058594,-146.829833984375,7.829485893249512,-1.2709417343139648,13.081209182739258,2278.4960882663727
D4:22:CD:00:49:AA,164.9984893798828,-84.16011047363281,116.4983139038086,-3.7088422775268555,-1.9593446254730225,2.423921585083008,2278.4960882663727
D4:22:CD:00:05:6E,44.688594818115234,-62.035247802734375,-119.03704071044922,-8.701904296875,-7.660048484802246,1.1398839950561523,2278.4960882663727
D4:22:CD:00:05:5E,-137.3671875,29.825393676757812,78.98124694824219,9.45721435546875,17.83792495727539,-25.498371124267578,2278.4960882663727
D4:22:CD:00:05:5D,-176.2667236328125,-56.98582458496094,-119.8347396850586,2.4176411628723145,-1.5003409385681152,1.4893503189086914,2278.5261013507843
D4:22:CD:00:05:6B,-88.75894927978516,-28.125795364379883,-149.9207000732422,11.179292678833008,-2.855058193206787,20.519474029541016,2278.5261013507843
D4:22:CD:00:49:AA,164.15338134765625,-83.14082336425781,118.84589385986328,2.4897947311401367,-5.160104751586914,0.1326160430908203,2278.5261013507843
D4:22:CD:00:05:6E,51.999290466308594,-59.12626266479492,-115.17707061767578,-4.881229400634766,-13.873449325561523,5.030796051025391,2278.5261013507843
D4:22:CD:00:05:5E,-128.43507385253906,28.622642517089844,80.4648208618164,4.252859115600586,19.976398468017578,-21.141223907470703,2278.5261013507843
D4:22:CD:00:05:5D,-177.45578002929688,-55.063072204589844,-117.3609390258789,0.13973113894462585,0.23905056715011597,0.6193485260009766,2278.5866482257843
D4:22:CD:00:05:6B,-82.08588409423828,-9.101631164550781,-149.82261657714844,5.802970886230469,-11.309280395507812,18.865604400634766,2278.5866482257843
D4:22:CD:00:49:AA,171.9236602783203,-81.9997787475586,112.85707092285156,4.904698371887207,-3.3362555503845215,6.751316070556641,2278.5866482257843
D4:22:CD:00:05:6E,60.488441467285156,-55.62069320678711,-111.49758911132812,8.694122314453125,-9.39063835144043,6.785030364990234,2278.5866482257843
D4:22:CD:00:05:5E,-122.41510772705078,25.561784744262695,81.15060424804688,3.4570956230163574,12.638198852539062,-16.206363677978516,2278.5866482257843
D4:22:CD:00:05:5D,-178.24855041503906,-53.8624267578125,-114.8324203491211,-0.858161211013794,1.1559817790985107,1.6452178955078125,2278.6156454086304
D4:22:CD:00:05:6B,-66.2038803100586,10.1927490234375,-145.40576171875,-8.80268669128418,-17.374591827392578,12.262491226196289,2278.6156454086304
D4:22:CD:00:49:AA,176.2265625,-82.78131866455078,109.23761749267578,1.4072253704071045,1.9681096076965332,7.22700309753418,2278.6156454086304
D4:22:CD:00:05:6E,60.95415115356445,-55.023067474365234,-107.71566009521484,6.375763893127441,0.8011347055435181,5.644914627075195,2278.6156454086304
D4:22:CD:00:05:5E,-122.74590301513672,20.552265167236328,79.87821960449219,-1.9887685775756836,8.230255126953125,-10.23019790649414,2278.6156454086304
D4:22:CD:00:05:5D,-178.8916778564453,-53.62273406982422,-112.87870025634766,-2.750642776489258,2.4601616859436035,2.3304481506347656,2278.646332025528
D4:22:CD:00:05:6B,-42.16822052001953,24.24309730529785,-137.7314453125,-5.75813102722168,-9.746829986572266,1.2817058563232422,2278.646332025528
D4:22:CD:00:49:AA,-179.41867065429688,-84.2639389038086,105.47079467773438,-2.500429153442383,1.1242151260375977,5.99637508392334,2278.646332025528
D4:22:CD:00:05:6E,54.20414352416992,-57.41952896118164,-98.70732116699219,4.477712631225586,4.968544006347656,1.0639095306396484,2278.646332025528
D4:22:CD:00:05:5E,-126.30943298339844,13.465685844421387,75.90815734863281,-3.550412654876709,7.52418327331543,-7.807012557983398,2278.646332025528
D4:22:CD:00:05:5D,-179.2538299560547,-54.7655143737793,-111.47051239013672,-1.9177775382995605,2.134406089782715,2.6513023376464844,2278.676340341568
D4:22:CD:00:05:6B,-25.106117248535156,31.721221923828125,-131.53805541992188,-4.7528276443481445,1.1135194301605225,-0.7469596862792969,2278.676340341568
D4:22:CD:00:49:AA,-167.214599609375,-85.27184295654297,95.19962310791016,-3.2888169288635254,0.03854793310165405,6.918283462524414,2278.676340341568
D4:22:CD:00:05:6E,44.20597457885742,-60.37006759643555,-81.69884490966797,3.416853427886963,4.92585563659668,-1.5492534637451172,2278.676340341568
D4:22:CD:00:05:5E,-127.43327331542969,4.4211812019348145,69.53607177734375,-1.0727720260620117,9.061540603637695,-7.419830322265625,2278.676340341568
D4:22:CD:00:05:5D,-179.6261749267578,-57.31190490722656,-110.12410736083984,-2.0336413383483887,1.314535140991211,2.9230966567993164,2278.7063314914703
D4:22:CD:00:05:6B,-18.353240966796875,35.864349365234375,-129.79055786132812,-5.939960479736328,4.154546737670898,-3.143435478210449,2278.7063314914703
D4:22:CD:00:49:AA,-147.35488891601562,-86.11128234863281,77.8148193359375,0.2622066140174866,-0.03478822857141495,3.3844070434570312,2278.7063314914703
D4:22:CD:00:05:6E,35.146820068359375,-61.07425308227539,-59.85750961303711,5.51497745513916,6.355912208557129,-0.08231639862060547,2278.7063314914703
D4:22:CD:00:05:5E,-127.90433502197266,-4.798443794250488,61.57719421386719,9.930627822875977,6.217870712280273,-8.223260879516602,2278.7063314914703
D4:22:CD:00:05:5D,179.92800903320312,-60.51736068725586,-108.88982391357422,-0.9075349569320679,-1.9621782302856445,4.851346969604492,2278.735572576523
D4:22:CD:00:05:6B,-16.24997329711914,39.679344177246094,-131.4440460205078,-7.629716873168945,4.378562927246094,-2.5066652297973633,2278.735572576523
D4:22:CD:00:49:AA,-127.4329833984375,-86.03543090820312,60.48445510864258,0.5288379192352295,-0.07536566257476807,-0.8950490951538086,2278.735572576523
D4:22:CD:00:05:6E,26.836177825927734,-59.56497573852539,-38.15226364135742,6.618862152099609,10.310846328735352,-2.0919675827026367,2278.735572576523
D4:22:CD:00:05:5E,-134.04458618164062,-13.575170516967773,54.490299224853516,15.760417938232422,-0.5858551263809204,-3.2982935905456543,2278.735572576523
D4:22:CD:00:05:5D,178.85702514648438,-63.38230514526367,-109.03376770019531,-0.5136327743530273,-2.676718235015869,1.6366729736328125,2278.7660989761353
D4:22:CD:00:05:6B,-13.12460708618164,43.99474334716797,-136.443603515625,-5.416051864624023,3.465208053588867,-5.339149475097656,2278.7660989761353
D4:22:CD:00:49:AA,-122.8750228881836,-85.32345581054688,58.572601318359375,-0.64156174659729,0.02561849355697632,-3.174920082092285,2278.7660989761353
D4:22:CD:00:05:6E,17.38039207458496,-57.48603439331055,-18.311683654785156,2.689018726348877,7.914519309997559,-4.96511173248291,2278.7660989761353
D4:22:CD:00:05:5E,-143.4822540283203,-21.124683380126953,49.21148681640625,13.563892364501953,-1.9084951877593994,2.3191776275634766,2278.7660989761353
D4:22:CD:00:05:5D,176.75762939453125,-65.88057708740234,-109.49494934082031,-0.8666377067565918,0.36180686950683594,-1.894205093383789,2278.7960991859436
D4:22:CD:00:05:6B,-11.114472389221191,48.85728073120117,-144.75209045410156,-0.5688074827194214,1.806699275970459,-8.489418029785156,2278.7960991859436
D4:22:CD:00:49:AA,-124.9100112915039,-84.60094451904297,62.42302703857422,-0.02701578661799431,0.3553001880645752,-2.389704704284668,2278.7960991859436
D4:22:CD:00:05:6E,10.006746292114258,-55.77012634277344,-1.337139368057251,0.8657478094100952,7.733443260192871,-6.486536979675293,2278.7960991859436
D4:22:CD:00:05:5E,-149.7377471923828,-26.067461013793945,44.804988861083984,6.753960609436035,-7.990490913391113,1.5481033325195312,2278.7960991859436
D4:22:CD:00:05:5D,173.61907958984375,-68.32140350341797,-108.86943054199219,-0.022603865712881088,1.5002479553222656,-3.1432409286499023,2278.8261189460754
D4:22:CD:00:05:6B,-15.134923934936523,53.878787994384766,-157.1504364013672,0.43079161643981934,0.38410860300064087,-9.51340103149414,2278.8261189460754
D4:22:CD:00:49:AA,-123.10108947753906,-84.41008758544922,61.42133712768555,-0.07575345039367676,0.1948406994342804,-4.247063636779785,2278.8261189460754
D4:22:CD:00:05:6E,3.4501094818115234,-55.141021728515625,11.9180908203125,-1.9659574031829834,11.009145736694336,-4.471926689147949,2278.8261189460754
D4:22:CD:00:05:5E,-153.67381286621094,-28.440038681030273,43.24726486206055,6.118929862976074,-14.703496932983398,-1.161005973815918,2278.8261189460754
D4:22:CD:00:05:5D,169.37210083007812,-70.60648345947266,-106.00507354736328,0.45798051357269287,2.6776537895202637,-4.461050033569336,2278.886113882065
D4:22:CD:00:05:6B,-27.72947120666504,57.856319427490234,-177.46792602539062,0.27394694089889526,-1.4065394401550293,-10.889522552490234,2278.886113882065
D4:22:CD:00:49:AA,-115.99468994140625,-84.78120422363281,55.03561782836914,-0.28526216745376587,0.25888514518737793,-6.327759742736816,2278.886113882065
D4:22:CD:00:05:6E,-4.087679386138916,-55.16188049316406,21.00279426574707,-2.2929768562316895,7.380722999572754,-6.338651657104492,2278.886113882065
D4:22:CD:00:05:5E,-158.10769653320312,-27.363115310668945,44.73987579345703,2.76041841506958,-13.585800170898438,4.061220169067383,2278.886113882065
D4:22:CD:00:05:5D,165.05690002441406,-72.43647766113281,-101.61837005615234,2.1162567138671875,2.4032468795776367,-3.573350429534912,2278.91628074646
D4:22:CD:00:05:6B,-49.43269729614258,56.39177703857422,153.10385131835938,1.3566949367523193,4.666616439819336,-17.621082305908203,2278.91628074646
D4:22:CD:00:49:AA,-105.54578399658203,-85.29218292236328,44.44085693359375,0.5607067346572876,0.14846846461296082,-6.548818588256836,2278.91628074646
D4:22:CD:00:05:6E,-10.546527862548828,-54.87049102783203,27.45589828491211,-0.7511739730834961,5.09279727935791,-7.063076019287109,2278.91628074646
D4:22:CD:00:05:5E,-161.92950439453125,-21.36367416381836,47.78019714355469,15.74252700805664,8.837356567382812,-12.078981399536133,2278.91628074646
D4:22:CD:00:05:5D,160.14697265625,-73.67884826660156,-97.6450424194336,0.5521717071533203,1.22819185256958,-2.216851234436035,2278.9458363056183
D4:22:CD:00:05:6B,-66.63385009765625,46.98201370239258,131.34506225585938,-3.7379965782165527,16.386112213134766,-22.199893951416016,2278.9458363056183
D4:22:CD:00:49:AA,-89.4734878540039,-85.7327651977539,27.313142776489258,0.6886224746704102,-0.41717779636383057,-5.48345947265625,2278.9458363056183
D4:22:CD:00:05:6E,-16.128507614135742,-53.886844635009766,32.38916778564453,-1.1625514030456543,6.838162422180176,-6.277880668640137,2278.9458363056183
D4:22:CD:00:05:5E,-160.85113525390625,-16.778488159179688,50.80672073364258,10.73238754272461,6.63166618347168,-14.551694869995117,2278.9458363056183
D4:22:CD:00:05:5D,151.73114013671875,-73.79683685302734,-91.67642211914062,-1.8979640007019043,-2.1088390350341797,-4.182065963745117,2278.976836204529
D4:22:CD:00:05:6B,-78.05072784423828,39.047271728515625,122.08445739746094,4.945136070251465,6.813940048217773,-14.850425720214844,2278.976836204529
D4:22:CD:00:49:AA,-72.29425811767578,-85.89640045166016,8.652795791625977,-0.18699806928634644,-0.5095622539520264,-3.6957240104675293,2278.976836204529
D4:22:CD:00:05:6E,-21.791475296020508,-52.78319549560547,36.503318786621094,-0.8787715435028076,6.946829795837402,-4.844734191894531,2278.976836204529
D4:22:CD:00:05:5E,-159.3754119873047,-12.8983793258667,53.17716598510742,8.794363021850586,14.812583923339844,-6.797995567321777,2278.976836204529
D4:22:CD:00:05:5D,146.08985900878906,-72.28075408935547,-85.34349822998047,4.618224143981934,-2.8905463218688965,1.152547836303711,2279.005835533142
D4:22:CD:00:05:6B,-90.89147186279297,42.80424880981445,125.12287902832031,-1.7050485610961914,2.795161247253418,4.891389846801758,2279.005835533142
D4:22:CD:00:49:AA,-61.387474060058594,-85.89029693603516,-4.361753463745117,0.4517527222633362,-2.196228504180908,-1.598862648010254,2279.005835533142
D4:22:CD:00:05:6E,-26.820518493652344,-52.48613739013672,40.313438415527344,0.9677321910858154,8.983930587768555,-1.8895835876464844,2279.005835533142
D4:22:CD:00:05:5E,-162.2603302001953,-7.690818786621094,53.92617416381836,8.623807907104492,7.357098579406738,-5.775392532348633,2279.005835533142
D4:22:CD:00:05:5D,138.09959411621094,-71.33592987060547,-79.6463623046875,-1.8278143405914307,1.729161024093628,5.276737213134766,2279.035851240158
D4:22:CD:00:05:6B,-75.97643280029297,49.30610275268555,136.99124145507812,-5.635700225830078,13.442197799682617,-0.8105144500732422,2279.035851240158
D4:22:CD:00:49:AA,-46.39360809326172,-86.04893493652344,-20.714092254638672,-0.2745440602302551,-3.1156601905822754,5.128040313720703,2279.035851240158
D4:22:CD:00:05:6E,-30.830459594726562,-53.020851135253906,43.80711364746094,1.7904410362243652,10.603693008422852,1.3184528350830078,2279.035851240158
D4:22:CD:00:05:5E,-164.2867889404297,-4.761898040771484,55.56566619873047,5.129884719848633,4.640082359313965,-4.4322614669799805,2279.035851240158
D4:22:CD:00:05:5D,127.61873626708984,-70.76628112792969,-74.07477569580078,-0.7541563510894775,-6.177404403686523,1.5877408981323242,2279.066385984421
D4:22:CD:00:05:6B,-47.82294464111328,53.08589172363281,162.5481414794922,1.2657012939453125,5.144289970397949,-18.52669906616211,2279.066385984421
D4:22:CD:00:49:AA,-22.814863204956055,-86.16222381591797,-45.7232780456543,1.1466281414031982,-1.168581485748291,4.786548614501953,2279.066385984421
D4:22:CD:00:05:6E,-33.33481979370117,-53.85757064819336,46.22235107421875,4.407488822937012,11.61917495727539,3.381161689758301,2279.066385984421
D4:22:CD:00:05:5E,-164.91162109375,-4.125441551208496,57.32002639770508,7.361719131469727,6.8084869384765625,-3.7693676948547363,2279.066385984421
D4:22:CD:00:05:5D,120.3176498413086,-68.96240997314453,-72.20784759521484,-1.145977258682251,-5.087676048278809,2.4913558959960938,2279.0963830947876
D4:22:CD:00:05:6B,-26.89098358154297,46.75322723388672,-171.58395385742188,-3.6705002784729004,4.210833549499512,-5.372389793395996,2279.0963830947876
D4:22:CD:00:49:AA,-18.68609046936035,-86.55906677246094,-52.49775695800781,7.899950981140137,2.1599502563476562,4.252679824829102,2279.0963830947876
D4:22:CD:00:05:6E,-35.378108978271484,-55.80694580078125,46.4725341796875,5.070038795471191,9.800970077514648,0.1578216552734375,2279.0963830947876
D4:22:CD:00:05:5E,-165.947265625,-4.432802200317383,58.995765686035156,6.128775596618652,7.605257034301758,-4.581819534301758,2279.0963830947876
D4:22:CD:00:05:5D,116.30937957763672,-66.24069213867188,-74.96469116210938,2.5498385429382324,-7.699897766113281,7.048656463623047,2279.1263995170593
D4:22:CD:00:05:6B,-15.728269577026367,34.32170104980469,-156.13197326660156,0.37990260124206543,2.4323158264160156,-1.499943733215332,2279.1263995170593
D4:22:CD:00:49:AA,-30.618911743164062,-87.4760971069336,-44.845829010009766,6.87172794342041,1.7945013046264648,-1.0969657897949219,2279.1263995170593
D4:22:CD:00:05:6E,-40.290550231933594,-59.10954284667969,46.0892448425293,4.364330291748047,5.3659868240356445,-0.8517284393310547,2279.1263995170593
D4:22:CD:00:05:5E,-166.0494842529297,-6.381137371063232,60.7332763671875,6.561789512634277,6.819431304931641,-4.828263282775879,2279.1263995170593
D4:22:CD:00:05:5D,118.19418334960938,-63.35161209106445,-82.5981674194336,10.447273254394531,-2.617762565612793,6.079302787780762,2279.185959815979
D4:22:CD:00:05:6B,-9.742691993713379,20.115480422973633,-143.7263946533203,-4.482927322387695,3.286284923553467,-3.876354694366455,2279.185959815979
D4:22:CD:00:49:AA,-96.57479095458984,-88.34176635742188,16.13815689086914,4.646336555480957,-2.407029151916504,0.14886093139648438,2279.185959815979
D4:22:CD:00:05:6E,-45.94110870361328,-62.06511688232422,46.793174743652344,2.7650346755981445,3.0587315559387207,-1.6154308319091797,2279.185959815979
D4:22:CD:00:05:5E,-163.86972045898438,-10.590119361877441,62.46636199951172,4.905917167663574,9.177614212036133,-4.793739318847656,2279.185959815979
D4:22:CD:00:05:5D,126.73822021484375,-58.67110061645508,-92.8390884399414,14.845342636108398,7.647855758666992,5.29014778137207,2279.2159600257874
D4:22:CD:00:05:6B,0.5813378691673279,6.297263145446777,-132.1490478515625,-9.74135971069336,-3.202082633972168,-3.092184066772461,2279.2159600257874
D4:22:CD:00:49:AA,-144.33676147460938,-87.32907104492188,60.88148498535156,0.745927095413208,-1.5197649002075195,4.850639343261719,2279.2159600257874
D4:22:CD:00:05:6E,-49.702178955078125,-63.4033088684082,47.21186447143555,4.281734466552734,4.950504302978516,-0.9816179275512695,2279.2159600257874
D4:22:CD:00:05:5E,-159.87107849121094,-14.288555145263672,64.12039947509766,4.965895652770996,6.694790840148926,-1.5071792602539062,2279.2159600257874
D4:22:CD:00:05:5D,134.78457641601562,-53.573421478271484,-104.68927764892578,11.214536666870117,6.912289619445801,1.3216018676757812,2279.246507167816
D4:22:CD:00:05:6B,11.507248878479004,-5.833095550537109,-121.10731506347656,4.181781768798828,-14.376764297485352,-3.49906063079834,2279.246507167816
D4:22:CD:00:49:AA,-154.9942169189453,-87.21476745605469,70.85785675048828,0.174699068069458,2.266810894012451,3.55556583404541,2279.246507167816
D4:22:CD:00:05:6E,-50.817955017089844,-63.64353942871094,46.02350997924805,7.510493278503418,4.166844367980957,0.2712078094482422,2279.246507167816
D4:22:CD:00:05:5E,-157.41624450683594,-17.536033630371094,64.8920669555664,6.295592308044434,5.862314224243164,-5.237234115600586,2279.246507167816
D4:22:CD:00:05:5D,140.1008758544922,-47.5877685546875,-116.38313293457031,3.1457085609436035,2.9380416870117188,-3.85886812210083,2279.276507139206
D4:22:CD:00:05:6B,6.960575580596924,-14.358307838439941,-110.70490264892578,6.912249565124512,-5.321396827697754,8.314399719238281,2279.276507139206
D4:22:CD:00:49:AA,-158.91810607910156,-86.61736297607422,74.64063262939453,4.035516738891602,2.412128448486328,1.3919944763183594,2279.276507139206
D4:22:CD:00:05:6E,-47.85040283203125,-64.1589126586914,43.398223876953125,7.1622314453125,3.55503511428833,-0.10694599151611328,2279.276507139206
D4:22:CD:00:05:5E,-153.86660766601562,-20.883249282836914,64.67827606201172,7.772204399108887,3.8784408569335938,-8.661659240722656,2279.276507139206
D4:22:CD:00:05:5D,145.54844665527344,-41.273475646972656,-125.78641510009766,-1.6314671039581299,2.127161979675293,-8.470878601074219,2279.3065073490143
D4:22:CD:00:05:6B,-3.409834623336792,-17.369291305541992,-101.62451171875,-6.434568405151367,5.056944847106934,7.268962860107422,2279.3065073490143
D4:22:CD:00:49:AA,-164.36778259277344,-85.90003204345703,80.43099975585938,3.6581106185913086,0.4648743271827698,-1.0428600311279297,2279.3065073490143
D4:22:CD:00:05:6E,-40.852928161621094,-65.5926742553711,39.253883361816406,5.361175537109375,3.7324323654174805,-3.1979188919067383,2279.3065073490143
D4:22:CD:00:05:5E,-151.34805297851562,-22.57931137084961,64.18401336669922,7.5734968185424805,4.3771562576293945,-8.247978210449219,2279.3065073490143
D4:22:CD:00:05:5D,151.80929565429688,-35.66362380981445,-133.2600555419922,-3.5387024879455566,2.347693920135498,-11.075544357299805,2279.3357021808624
D4:22:CD:00:05:6B,-6.748464107513428,-18.496726989746094,-96.53004455566406,4.288480758666992,3.2879114151000977,1.0353679656982422,2279.3357021808624
D4:22:CD:00:49:AA,-170.43881225585938,-85.39649200439453,87.16739654541016,-0.3163067102432251,-0.0005753223085775971,-3.490656852722168,2279.3357021808624
D4:22:CD:00:05:6E,-35.41743087768555,-67.81365203857422,35.993900299072266,2.907217025756836,5.009732246398926,-7.424070358276367,2279.3357021808624
D4:22:CD:00:05:5E,-151.3910369873047,-21.151731491088867,64.3180923461914,5.686817169189453,6.543410301208496,-9.877054214477539,2279.3357021808624
D4:22:CD:00:05:5D,158.08006286621094,-31.77521514892578,-139.1311798095703,-5.637304306030273,3.7347936630249023,-8.436460494995117,2279.366236448288
D4:22:CD:00:05:6B,-11.874978065490723,-21.242002487182617,-94.79910278320312,3.557126998901367,1.030207872390747,-2.6634092330932617,2279.366236448288
D4:22:CD:00:49:AA,-176.12252807617188,-85.06997680664062,94.22708129882812,-1.473137617111206,-0.08137916028499603,-4.762737274169922,2279.366236448288
D4:22:CD:00:05:6E,-35.812286376953125,-70.02305603027344,33.47490310668945,0.13157913088798523,4.426268577575684,-9.28565788269043,2279.366236448288
D4:22:CD:00:05:5E,-154.1427001953125,-17.187416076660156,64.16362762451172,4.791674613952637,4.484030723571777,-4.829505920410156,2279.366236448288
D4:22:CD:00:05:5D,161.10797119140625,-30.633535385131836,-143.80792236328125,-7.013086318969727,2.637857437133789,-6.909221649169922,2279.3962366580963
D4:22:CD:00:05:6B,-13.943744659423828,-28.549762725830078,-98.5522689819336,2.311710834503174,-3.928757667541504,-7.172031402587891,2279.3962366580963
D4:22:CD:00:49:AA,179.67431640625,-84.76636505126953,100.409912109375,0.291886568069458,-1.1447656154632568,-6.337621688842773,2279.3962366580963
D4:22:CD:00:05:6E,-39.01392364501953,-71.47840881347656,31.40168571472168,-0.5109133720397949,3.5480451583862305,-5.672374725341797,2279.3962366580963
D4:22:CD:00:05:5E,-157.87867736816406,-13.171652793884277,63.84172439575195,9.299278259277344,3.4351820945739746,-7.721323013305664,2279.3962366580963
D4:22:CD:00:05:5D,159.44317626953125,-32.209754943847656,-146.43109130859375,-17.08965301513672,-0.5102654695510864,-9.078441619873047,2279.4262549877167
D4:22:CD:00:05:6B,-4.9337663650512695,-40.230491638183594,-110.31427001953125,-1.9164276123046875,-16.952648162841797,9.32834243774414,2279.4262549877167
D4:22:CD:00:49:AA,178.33343505859375,-83.95026397705078,104.07725524902344,1.1470022201538086,-0.7554200887680054,-8.057828903198242,2279.4262549877167
D4:22:CD:00:05:6E,-36.98928451538086,-71.3200454711914,25.18564224243164,-0.8433555364608765,7.301059722900391,1.6807994842529297,2279.4262549877167
D4:22:CD:00:05:5E,-158.3338165283203,-9.855072021484375,64.04539489746094,6.381547927856445,7.812287330627441,-4.271180152893066,2279.4262549877167
D4:22:CD:00:05:5D,160.6016387939453,-34.99232482910156,-143.7479248046875,-14.19963264465332,-1.9337518215179443,2.424269676208496,2279.485915660858
D4:22:CD:00:05:6B,7.400051593780518,-49.21562194824219,-125.4658203125,-7.121927261352539,-27.270828247070312,17.30890655517578,2279.485915660858
D4:22:CD:00:49:AA,177.26121520996094,-81.83627319335938,106.64131927490234,4.985164642333984,2.7437620162963867,-4.211051940917969,2279.485915660858
D4:22:CD:00:05:6E,-21.998592376708984,-69.70745086669922,7.388899803161621,4.252664566040039,9.23714828491211,9.86296272277832,2279.485915660858
D4:22:CD:00:05:5E,-158.7574462890625,-7.5587286949157715,64.30133819580078,6.249469757080078,7.68477725982666,-3.733821392059326,2279.485915660858
D4:22:CD:00:05:5D,161.71334838867188,-33.6590461730957,-136.64468383789062,-7.874810218811035,-2.3798131942749023,15.187978744506836,2279.5160126686096
D4:22:CD:00:05:6B,7.7137064933776855,-51.036006927490234,-131.22244262695312,-9.508161544799805,-19.3526611328125,3.889277458190918,2279.5160126686096
D4:22:CD:00:49:AA,172.3954315185547,-80.75907897949219,111.39445495605469,1.814687728881836,-0.6824936866760254,6.6038360595703125,2279.5160126686096
D4:22:CD:00:05:6E,5.798179626464844,-65.33405303955078,-22.64251136779785,6.257464408874512,10.722557067871094,15.661420822143555,2279.5160126686096
D4:22:CD:00:05:5E,-159.43251037597656,-6.524749279022217,64.8398208618164,6.283830642700195,7.4679718017578125,-3.6365275382995605,2279.5160126686096
D4:22:CD:00:05:5D,167.28314208984375,-29.48187255859375,-129.13766479492188,-11.17564582824707,4.407081604003906,21.396827697753906,2279.5465688705444
D4:22:CD:00:05:6B,-2.1588001251220703,-47.467002868652344,-123.21920776367188,-10.484796524047852,-16.858524322509766,10.097284317016602,2279.5465688705444
D4:22:CD:00:49:AA,170.62623596191406,-81.93053436279297,113.39156341552734,-0.022968191653490067,-0.21868059039115906,3.173224449157715,2279.5465688705444
D4:22:CD:00:05:6E,28.114219665527344,-53.06645202636719,-48.11220169067383,0.31774598360061646,5.900470733642578,19.759933471679688,2279.5465688705444
D4:22:CD:00:05:5E,-160.2676239013672,-6.479492664337158,65.10871887207031,6.684121131896973,7.422510147094727,-3.2912158966064453,2279.5465688705444
D4:22:CD:00:05:5D,160.68460083007812,-23.06834602355957,-123.18376159667969,-10.18712043762207,-9.624027252197266,10.08743667602539,2279.5765686035156
D4:22:CD:00:05:6B,-12.141409873962402,-41.4885139465332,-116.70174407958984,-9.21418571472168,-14.163162231445312,4.109432220458984,2279.5765686035156
D4:22:CD:00:49:AA,174.08392333984375,-80.18414306640625,109.98961639404297,1.3206844329833984,0.3315640091896057,6.180870056152344,2279.5765686035156
D4:22:CD:00:05:6E,42.704410552978516,-36.069732666015625,-57.95032501220703,-18.578380584716797,5.586996078491211,9.504417419433594,2279.5765686035156
D4:22:CD:00:05:5E,-160.98574829101562,-7.628953456878662,64.86811828613281,7.756174087524414,6.483222007751465,-4.890655517578125,2279.5765686035156
D4:22:CD:00:05:5D,154.95375061035156,-17.29019546508789,-120.01646423339844,-5.230932235717773,-7.6944475173950195,2.475330352783203,2279.606569290161
D4:22:CD:00:05:6B,-19.5137996673584,-36.71499252319336,-115.0901107788086,-9.258241653442383,-7.080348968505859,-1.7155828475952148,2279.606569290161
D4:22:CD:00:49:AA,173.5695037841797,-80.04327392578125,111.27255249023438,4.855195999145508,0.9018058776855469,8.629823684692383,2279.606569290161
D4:22:CD:00:05:6E,50.54386520385742,-18.915546417236328,-60.27830505371094,0.24945610761642456,11.191179275512695,11.287866592407227,2279.606569290161
D4:22:CD:00:05:5E,-161.85675048828125,-10.094098091125488,64.18641662597656,7.85311222076416,7.05540657043457,-5.162671089172363,2279.606569290161
D4:22:CD:00:05:5D,153.34678649902344,-13.574657440185547,-118.77452850341797,-2.625269889831543,-5.233856201171875,-7.342342376708984,2279.636590719223
D4:22:CD:00:05:6B,-26.169824600219727,-35.108802795410156,-116.44078063964844,-7.756653785705566,-1.7798502445220947,-2.117431640625,2279.636590719223
D4:22:CD:00:49:AA,171.86521911621094,-80.4915771484375,113.28239440917969,6.193841934204102,1.7445414066314697,4.819061279296875,2279.636590719223
D4:22:CD:00:05:6E,53.16717529296875,-3.173194646835327,-62.66227340698242,10.706605911254883,7.144407272338867,11.576568603515625,2279.636590719223
D4:22:CD:00:05:5E,-162.6969451904297,-13.560908317565918,63.39137649536133,8.015058517456055,8.964374542236328,-5.23980712890625,2279.636590719223
D4:22:CD:00:05:5D,153.44956970214844,-13.701743125915527,-118.4983901977539,-4.803363800048828,-0.3316200375556946,-11.10102653503418,2279.6661219596863
D4:22:CD:00:05:6B,-33.28783416748047,-37.195953369140625,-119.26811981201172,-5.009304046630859,0.9985294342041016,1.7627830505371094,2279.6661219596863
D4:22:CD:00:49:AA,170.32025146484375,-80.3051528930664,114.1235122680664,3.8438539505004883,2.6219568252563477,1.863266944885254,2279.6661219596863
D4:22:CD:00:05:6E,46.70719528198242,9.618828773498535,-65.306396484375,12.010919570922852,4.424586296081543,1.5920190811157227,2279.6661219596863
D4:22:CD:00:05:5E,-162.2523956298828,-17.46587371826172,62.63041687011719,7.183224678039551,10.155862808227539,-5.821305274963379,2279.6661219596863
D4:22:CD:00:05:5D,152.5216064453125,-17.811918258666992,-118.08660888671875,-5.831892967224121,0.5489130020141602,-14.300058364868164,2279.696123600006
D4:22:CD:00:05:6B,-39.4830436706543,-41.31462097167969,-122.78046417236328,-4.356203079223633,2.958878993988037,3.0801877975463867,2279.696123600006
D4:22:CD:00:49:AA,168.1069793701172,-79.59550476074219,115.60836791992188,3.1442880630493164,2.1881752014160156,0.9024505615234375,2279.696123600006
D4:22:CD:00:05:6E,39.955623626708984,19.694061279296875,-67.90233612060547,12.411231994628906,2.927286148071289,-6.166670799255371,2279.696123600006
D4:22:CD:00:05:5E,-160.68801879882812,-21.11027717590332,61.84497833251953,5.354448318481445,7.89764404296875,-6.54594612121582,2279.696123600006
D4:22:CD:00:05:5D,149.72808837890625,-25.699373245239258,-117.19892883300781,-5.286189079284668,0.5918914079666138,-11.764387130737305,2279.726137638092
D4:22:CD:00:05:6B,-42.65826416015625,-45.6291618347168,-126.70925903320312,-2.828648567199707,1.9040300846099854,1.8078737258911133,2279.726137638092
D4:22:CD:00:49:AA,165.00315856933594,-78.8481674194336,117.61592864990234,1.694056749343872,1.378122329711914,-0.8002567291259766,2279.726137638092
D4:22:CD:00:05:6E,35.76152801513672,26.630760192871094,-69.79633331298828,6.870745658874512,4.826625823974609,-11.144231796264648,2279.726137638092
D4:22:CD:00:05:5E,-159.0749969482422,-24.1009521484375,60.52805709838867,5.324828147888184,4.644510269165039,-7.080933570861816,2279.726137638092
D4:22:CD:00:05:5D,144.5227508544922,-36.6071662902832,-115.58393096923828,-4.838566780090332,-1.4876961708068848,-8.771490097045898,2279.7856738567352
D4:22:CD:00:05:6B,-45.83903884887695,-49.007869720458984,-130.3497314453125,-1.1615653038024902,2.508917808532715,0.38866329193115234,2279.7856738567352
D4:22:CD:00:49:AA,162.06777954101562,-78.16197204589844,119.14317321777344,0.478010356426239,0.3463324308395386,-2.198154926300049,2279.7856738567352
D4:22:CD:00:05:6E,35.23345184326172,31.006996154785156,-69.14115905761719,6.274393081665039,2.8325657844543457,-11.890312194824219,2279.7856738567352
D4:22:CD:00:05:5E,-158.2047119140625,-26.29507064819336,58.99262619018555,4.5177812576293945,2.5341548919677734,-6.404569625854492,2279.7856738567352
D4:22:CD:00:05:5D,138.8283233642578,-49.61872863769531,-112.03135681152344,-2.5875420570373535,-4.171286582946777,-2.324007034301758,2279.8156745433807
D4:22:CD:00:05:6B,-50.093048095703125,-51.741172790527344,-133.53939819335938,0.38768649101257324,2.50178861618042,-2.2991199493408203,2279.8156745433807
D4:22:CD:00:49:AA,160.88296508789062,-77.91107940673828,119.33578491210938,1.1094200611114502,0.10453532636165619,-2.9768033027648926,2279.8156745433807
D4:22:CD:00:05:6E,35.51845932006836,34.20852279663086,-65.22216033935547,7.2478532791137695,1.653172254562378,-10.892927169799805,2279.8156745433807
D4:22:CD:00:05:5E,-157.828369140625,-27.412729263305664,57.507564544677734,4.183192253112793,0.37863314151763916,-6.382061004638672,2279.8156745433807
D4:22:CD:00:05:5D,130.93255615234375,-64.42761993408203,-103.25703430175781,1.4736332893371582,-5.892841339111328,6.835609436035156,2279.846216917038
D4:22:CD:00:05:6B,-54.371849060058594,-54.117713928222656,-136.37953186035156,1.7854270935058594,2.40557861328125,-4.41989803314209,2279.846216917038
D4:22:CD:00:49:AA,159.43687438964844,-78.01626586914062,119.72090911865234,2.153262138366699,0.9377355575561523,-4.82929801940918,2279.846216917038
D4:22:CD:00:05:6E,33.18174743652344,37.32905960083008,-57.336795806884766,7.433409690856934,0.850350022315979,-10.765161514282227,2279.846216917038
D4:22:CD:00:05:5E,-158.2524871826172,-27.066335678100586,56.25177764892578,6.620856285095215,0.9661223888397217,-8.352493286132812,2279.846216917038
D4:22:CD:00:05:5D,107.3555908203125,-76.81407928466797,-72.85576629638672,9.682840347290039,0.7104718685150146,13.949298858642578,2279.8762168884277
D4:22:CD:00:05:6B,-57.80043411254883,-56.05980682373047,-138.85629272460938,3.8313889503479004,1.913559913635254,-6.669098854064941,2279.8762168884277
D4:22:CD:00:49:AA,157.1426239013672,-78.53850555419922,120.56160736083984,1.9914734363555908,0.6398309469223022,-5.749946594238281,2279.8762168884277
D4:22:CD:00:05:6E,28.90549659729004,40.671871185302734,-44.51900100708008,9.880430221557617,-1.6959385871887207,-20.757526397705078,2279.8762168884277
D4:22:CD:00:05:5E,-159.6203155517578,-25.167116165161133,55.21736526489258,6.158617973327637,4.56032657623291,-8.03459358215332,2279.8762168884277
D4:22:CD:00:05:5D,58.79111862182617,-78.0931396484375,-17.311899185180664,7.404635429382324,11.481451034545898,4.516709327697754,2279.9062173366547
D4:22:CD:00:05:6B,-59.411861419677734,-57.73188781738281,-140.6093292236328,6.8970794677734375,-0.18233776092529297,-6.900208473205566,2279.9062173366547
D4:22:CD:00:49:AA,154.8938751220703,-79.3855209350586,121.80554962158203,0.4681803584098816,-1.1978957653045654,-6.317216873168945,2279.9062173366547
D4:22:CD:00:05:6E,29.227108001708984,41.51258087158203,-29.793893814086914,1.8612351417541504,-12.386972427368164,-18.527690887451172,2279.9062173366547
D4:22:CD:00:05:5E,-161.34999084472656,-22.501123428344727,53.768104553222656,5.338133811950684,9.520030975341797,-5.1749677658081055,2279.9062173366547
D4:22:CD:00:05:5D,35.35840606689453,-75.04215240478516,3.0875275135040283,6.9852800369262695,20.277118682861328,-15.708003997802734,2279.9363458156586
D4:22:CD:00:05:6B,-58.30834197998047,-59.22499465942383,-141.88772583007812,7.794452667236328,-3.5106544494628906,-5.412496566772461,2279.9363458156586
D4:22:CD:00:49:AA,154.0298309326172,-79.8966064453125,122.167236328125,3.6004505157470703,-2.797922134399414,-5.306064605712891,2279.9363458156586
D4:22:CD:00:05:6E,44.23597717285156,45.60115432739258,-32.515296936035156,-1.2922389507293701,-1.558067798614502,-5.519237518310547,2279.9363458156586
D4:22:CD:00:05:5E,-163.33644104003906,-20.081743240356445,51.777244567871094,7.870999336242676,9.571348190307617,-5.164728164672852,2279.9363458156586
D4:22:CD:00:05:5D,38.20684051513672,-75.93714141845703,-5.177948474884033,11.270648956298828,-2.4438886642456055,-6.738273620605469,2279.965895652771
D4:22:CD:00:05:6B,-53.070125579833984,-60.454647064208984,-144.94866943359375,6.112466812133789,-3.104842185974121,-2.955747604370117,2279.965895652771
D4:22:CD:00:49:AA,158.3369903564453,-79.3494644165039,116.0884780883789,6.42710018157959,-4.06101131439209,-0.2762298583984375,2279.965895652771
D4:22:CD:00:05:6E,60.924156188964844,52.891845703125,-42.60154342651367,5.368547439575195,4.687772750854492,-12.65008544921875,2279.965895652771
D4:22:CD:00:05:5E,-163.8493194580078,-19.23147201538086,49.201358795166016,9.407154083251953,10.15815544128418,-4.850323677062988,2279.965895652771
D4:22:CD:00:05:5D,71.73397064208984,-77.01359558105469,-34.620330810546875,17.774471282958984,5.896352767944336,-4.094329833984375,2279.995896577835
D4:22:CD:00:05:6B,-47.17449188232422,-61.844017028808594,-148.4727020263672,1.6277718544006348,-1.7648332118988037,-0.5030689239501953,2279.995896577835
D4:22:CD:00:49:AA,162.58163452148438,-79.21687316894531,109.2025375366211,3.501160144805908,-0.02442951872944832,0.9296903610229492,2279.995896577835
D4:22:CD:00:05:6E,45.15364456176758,57.4156379699707,-61.65391159057617,20.644451141357422,5.948250770568848,-8.43199348449707,2279.995896577835
D4:22:CD:00:05:5E,-161.4553985595703,-19.784318923950195,46.30419158935547,11.473686218261719,10.901615142822266,-7.02400016784668,2279.995896577835
D4:22:CD:00:05:5D,102.15894317626953,-77.05717468261719,-61.03097915649414,-0.7578688859939575,-12.355850219726562,1.8416366577148438,2280.0259091854095
D4:22:CD:00:05:6B,-46.39619064331055,-63.96774673461914,-148.89610290527344,-0.9265655279159546,0.13985326886177063,5.010519981384277,2280.0259091854095
D4:22:CD:00:49:AA,165.97384643554688,-79.25779724121094,105.46214294433594,-0.2686077952384949,-0.9196594953536987,3.3322792053222656,2280.0259091854095
D4:22:CD:00:05:6E,13.467911720275879,54.79794692993164,-87.65536499023438,0.1323026716709137,-5.61716365814209,-14.662267684936523,2280.0259091854095
D4:22:CD:00:05:5E,-155.8821258544922,-19.80866241455078,43.65573501586914,14.649139404296875,10.258871078491211,-9.757335662841797,2280.0259091854095
D4:22:CD:00:05:5D,120.06707763671875,-78.18834686279297,-82.9937744140625,-0.809978723526001,0.5333362817764282,5.678257942199707,2280.0564303398132
D4:22:CD:00:05:6B,-46.422550201416016,-66.45030975341797,-146.59764099121094,-3.760725975036621,-1.5081915855407715,6.78984260559082,2280.0564303398132
D4:22:CD:00:49:AA,170.23342895507812,-79.0102767944336,102.9017105102539,-0.982201337814331,-2.426690101623535,3.549345016479492,2280.0564303398132
D4:22:CD:00:05:6E,-0.1465800404548645,45.336708068847656,-106.8585205078125,3.062317371368408,5.3343353271484375,-10.430530548095703,2280.0564303398132
D4:22:CD:00:05:5E,-152.03433227539062,-18.234804153442383,42.1663703918457,15.392660140991211,-3.9242429733276367,-1.3479022979736328,2280.0564303398132
D4:22:CD:00:05:5D,136.84368896484375,-78.02740478515625,-99.56344604492188,-6.440542221069336,-7.896975517272949,11.881673812866211,2280.1164293289185
D4:22:CD:00:05:6B,-46.94151306152344,-68.35395812988281,-141.59146118164062,-5.072343826293945,-0.7457845211029053,5.718634605407715,2280.1164293289185
D4:22:CD:00:49:AA,176.1262664794922,-78.16834259033203,101.2061767578125,-4.695720672607422,-3.216733932495117,1.3738012313842773,2280.1164293289185
D4:22:CD:00:05:6E,-5.142143249511719,30.682310104370117,-117.4272232055664,-1.4878709316253662,4.833441734313965,-10.635368347167969,2280.1164293289185
D4:22:CD:00:05:5E,-152.2577362060547,-12.043536186218262,43.930519104003906,21.317428588867188,-9.368616104125977,12.31021499633789,2280.1164293289185
D4:22:CD:00:05:5D,151.54299926757812,-76.0993423461914,-107.4074478149414,0.5365781784057617,7.336350440979004,0.010351181030273438,2280.1457393169403
D4:22:CD:00:05:6B,-50.125579833984375,-68.36625671386719,-133.28598022460938,-6.463224411010742,-0.3621556758880615,2.381795883178711,2280.1457393169403
D4:22:CD:00:49:AA,-179.51028442382812,-76.35521697998047,102.891845703125,-5.722375869750977,1.002610683441162,-2.0379891395568848,2280.1457393169403
D4:22:CD:00:05:6E,-2.7132320404052734,15.228294372558594,-124.73686218261719,-17.215145111083984,8.567176818847656,1.1343774795532227,2280.1457393169403
D4:22:CD:00:05:5E,-153.1471710205078,-3.217604637145996,48.773582458496094,12.857612609863281,2.3604211807250977,3.7162399291992188,2280.1457393169403
D4:22:CD:00:05:5D,157.078857421875,-74.2821273803711,-110.92111206054688,3.3257198333740234,-0.9104572534561157,2.5702505111694336,2280.175740003586
D4:22:CD:00:05:6B,-55.30217361450195,-66.5647201538086,-125.329833984375,-6.274298667907715,0.6210393905639648,-0.9204216003417969,2280.175740003586
D4:22:CD:00:49:AA,178.5559539794922,-74.27153778076172,107.44593048095703,-0.5161327123641968,2.687230110168457,-1.619856834411621,2280.175740003586
D4:22:CD:00:05:6E,14.317587852478027,3.865661382675171,-129.26686096191406,-21.106674194335938,18.045677185058594,-3.6082310676574707,2280.175740003586
D4:22:CD:00:05:5E,-147.1441650390625,4.353938579559326,54.14845275878906,6.378842353820801,3.1108150482177734,-4.807519912719727,2280.175740003586
D4:22:CD:00:05:5D,160.69857788085938,-72.87093353271484,-113.32698059082031,-1.5273540019989014,2.6177005767822266,0.9918146133422852,2280.2057390213013
D4:22:CD:00:05:6B,-60.623538970947266,-64.3276596069336,-119.47772979736328,-3.9127702713012695,1.2355916500091553,0.13460922241210938,2280.2057390213013
D4:22:CD:00:49:AA,178.92691040039062,-73.02544403076172,109.25037384033203,1.4318609237670898,1.09810471534729,1.2067327499389648,2280.2057390213013
D4:22:CD:00:05:6E,40.636497497558594,-2.8174691200256348,-130.69253540039062,-6.410553932189941,-3.12672758102417,-7.679816246032715,2280.2057390213013
D4:22:CD:00:05:5E,-140.78016662597656,10.950908660888672,59.274166107177734,0.710694432258606,0.33636415004730225,-8.179071426391602,2280.2057390213013
D4:22:CD:00:05:5D,165.44415283203125,-71.9823226928711,-117.28111267089844,-2.1500954627990723,2.2163920402526855,0.8863039016723633,2280.2357547283173
D4:22:CD:00:05:6B,-64.03543853759766,-62.20767593383789,-116.87202453613281,-3.1803483963012695,0.58738112449646,-0.3309946060180664,2280.2357547283173
D4:22:CD:00:49:AA,178.0384521484375,-71.71793365478516,111.48247528076172,-0.6197137832641602,3.389430522918701,1.376927375793457,2280.2357547283173
D4:22:CD:00:05:6E,57.72698211669922,-5.1697540283203125,-128.86483764648438,8.714559555053711,-2.167109489440918,-0.5528068542480469,2280.2357547283173
D4:22:CD:00:05:5E,-136.62661743164062,16.342119216918945,64.6376953125,-0.2885301113128662,-1.752401351928711,-10.053447723388672,2280.2357547283173
D4:22:CD:00:05:5D,170.7854766845703,-71.7730712890625,-123.03922271728516,-0.3919442296028137,2.1690125465393066,1.528559684753418,2280.2662873268127
D4:22:CD:00:05:6B,-67.98916625976562,-60.39104461669922,-115.9671630859375,-2.5648531913757324,-0.7623852491378784,0.9237518310546875,2280.2662873268127
D4:22:CD:00:49:AA,176.4148712158203,-70.25825500488281,113.51297760009766,-2.4955811500549316,1.2840783596038818,3.1903810501098633,2280.2662873268127
D4:22:CD:00:05:6E,65.86326599121094,-7.215186595916748,-126.85218811035156,8.754512786865234,5.917056083679199,-5.732933044433594,2280.2662873268127
D4:22:CD:00:05:5E,-136.010986328125,20.100276947021484,70.57392120361328,-0.8845767974853516,-1.1515166759490967,-10.02009391784668,2280.2662873268127
D4:22:CD:00:05:5D,176.35653686523438,-72.4079360961914,-129.48727416992188,0.8881477117538452,1.483295202255249,1.083867073059082,2280.2962877750397
D4:22:CD:00:05:6B,-74.09712219238281,-58.36790084838867,-116.27426147460938,-1.0366451740264893,-0.2884616255760193,4.950113296508789,2280.2962877750397
D4:22:CD:00:49:AA,175.09071350097656,-68.78592681884766,114.46817779541016,-2.834897041320801,1.4820599555969238,3.5190296173095703,2280.2962877750397
D4:22:CD:00:05:6E,78.16362762451172,-10.077384948730469,-126.66056060791016,12.721534729003906,4.914787292480469,-7.148687362670898,2280.2962877750397
D4:22:CD:00:05:5E,-137.30471801757812,21.504119873046875,76.53649139404297,-1.116891860961914,0.8131954669952393,-9.43399429321289,2280.2962877750397
D4:22:CD:00:05:5D,-178.20065307617188,-73.61309814453125,-135.64602661132812,1.3397622108459473,-0.24442246556282043,0.40273284912109375,2280.32630109787
D4:22:CD:00:05:6B,-78.16641235351562,-56.01927947998047,-118.99988555908203,-1.424022912979126,0.44276463985443115,4.140552520751953,2280.32630109787
D4:22:CD:00:49:AA,172.916259765625,-67.92179107666016,116.52476501464844,-1.4716041088104248,1.5211281776428223,2.4961156845092773,2280.32630109787
D4:22:CD:00:05:6E,95.81424713134766,-14.192035675048828,-128.7449493408203,12.563133239746094,4.37345027923584,-2.7520203590393066,2280.32630109787
D4:22:CD:00:05:5E,-139.86288452148438,20.734603881835938,81.61842346191406,-0.3515651822090149,2.807013988494873,-9.01755142211914,2280.32630109787
D4:22:CD:00:05:5D,-172.89491271972656,-74.8748550415039,-141.13644409179688,0.004937401041388512,-0.07626843452453613,-0.03369140625,2280.355839252472
D4:22:CD:00:05:6B,-81.49714660644531,-53.37171173095703,-122.4461441040039,-1.436781644821167,-0.5333907604217529,0.8309946060180664,2280.355839252472
D4:22:CD:00:49:AA,170.59762573242188,-67.7068862915039,118.3899917602539,-2.0861258506774902,1.9689545631408691,0.23474693298339844,2280.355839252472
D4:22:CD:00:05:6E,113.16649627685547,-21.388835906982422,-131.6735076904297,7.078100204467773,2.6560206413269043,3.912595748901367,2280.355839252472
D4:22:CD:00:05:5E,-143.89303588867188,18.22471809387207,85.07103729248047,-0.02658485248684883,7.093558311462402,-5.875208854675293,2280.355839252472
D4:22:CD:00:05:5D,-168.1250762939453,-75.67194366455078,-146.18406677246094,-0.3571853041648865,-1.279129981994629,-0.6231517791748047,2280.4158387184143
D4:22:CD:00:05:6B,-83.55014038085938,-50.64038848876953,-126.07167053222656,1.385427474975586,0.6359015703201294,-0.08457183837890625,2280.4158387184143
D4:22:CD:00:49:AA,168.5354766845703,-67.90413665771484,119.95789337158203,-2.932955265045166,2.18966007232666,-1.8298664093017578,2280.4158387184143
D4:22:CD:00:05:6E,123.19083404541016,-32.499271392822266,-136.8885498046875,2.7036185264587402,6.858978271484375,8.910558700561523,2280.4158387184143
D4:22:CD:00:05:5E,-144.99020385742188,13.283658981323242,85.88571166992188,-4.295605659484863,13.392597198486328,-8.477716445922852,2280.4158387184143
D4:22:CD:00:05:5D,-164.41494750976562,-75.76863098144531,-149.8286590576172,0.6623412370681763,-2.776475429534912,-1.164921760559082,2280.4463880062103
D4:22:CD:00:05:6B,-81.89968872070312,-48.1717414855957,-130.40768432617188,-0.019855916500091553,-0.5746752023696899,-4.299572944641113,2280.4463880062103
D4:22:CD:00:49:AA,166.37632751464844,-68.58386993408203,121.40777587890625,-1.3082225322723389,1.8320889472961426,-1.6533308029174805,2280.4463880062103
D4:22:CD:00:05:6E,123.36888885498047,-45.82711410522461,-147.1331787109375,4.812975883483887,7.956766128540039,10.26822280883789,2280.4463880062103
D4:22:CD:00:05:5E,-142.74940490722656,6.577547073364258,84.1538314819336,2.689908504486084,15.810586929321289,0.6808834075927734,2280.4463880062103
D4:22:CD:00:05:5D,-164.5888671875,-75.00435638427734,-148.82516479492188,1.0806457996368408,-4.492964744567871,-1.7400035858154297,2280.4763879776
D4:22:CD:00:05:6B,-80.5982437133789,-45.714256286621094,-134.75942993164062,0.36780041456222534,-0.562111496925354,-6.449758529663086,2280.4763879776
D4:22:CD:00:49:AA,163.03515625,-69.8499526977539,123.78671264648438,0.34902018308639526,0.6166754961013794,-2.854839324951172,2280.4763879776
D4:22:CD:00:05:6E,109.79145050048828,-60.16484069824219,-164.75575256347656,4.11873722076416,10.644489288330078,18.72561264038086,2280.4763879776
D4:22:CD:00:05:5E,-137.49705505371094,3.8496274948120117,83.31376647949219,9.691871643066406,22.301658630371094,-7.593616485595703,2280.4763879776
D4:22:CD:00:05:5D,-168.10174560546875,-72.97271728515625,-143.3512725830078,-0.9862394332885742,-0.4998060464859009,-0.6689920425415039,2280.5063891410828
D4:22:CD:00:05:6B,-78.67115783691406,-42.85043716430664,-138.86788940429688,4.462547302246094,-4.624780654907227,-2.1302480697631836,2280.5063891410828
D4:22:CD:00:49:AA,157.56922912597656,-71.30712127685547,128.64816284179688,-0.54741370677948,0.05526246130466461,-5.077058792114258,2280.5063891410828
D4:22:CD:00:05:6E,71.26927947998047,-75.11634826660156,-172.69467163085938,-41.45679473876953,18.393604278564453,15.211431503295898,2280.5063891410828
D4:22:CD:00:05:5E,-143.08082580566406,5.5558247566223145,82.09678649902344,-0.08509719371795654,16.697036743164062,-12.20509147644043,2280.5063891410828
D4:22:CD:00:05:5D,-173.04727172851562,-69.66548156738281,-136.701416015625,1.3824234008789062,-2.1335535049438477,-1.2853994369506836,2280.5363953113556
D4:22:CD:00:05:6B,-73.23011779785156,-38.180442810058594,-142.6846923828125,6.095219612121582,-7.337608337402344,6.173786163330078,2280.5363953113556
D4:22:CD:00:49:AA,151.5741729736328,-72.56553649902344,133.3202362060547,0.1928858757019043,-0.21881693601608276,-2.912999153137207,2280.5363953113556
D4:22:CD:00:05:6E,67.71195220947266,-79.51171875,-153.86709594726562,-33.09857177734375,11.093433380126953,6.165460586547852,2280.5363953113556
D4:22:CD:00:05:5E,-149.19766235351562,9.01062297821045,80.7533950805664,2.751842975616455,22.236644744873047,-15.152885437011719,2280.5363953113556
D4:22:CD:00:05:5D,-176.8148651123047,-66.16809844970703,-131.62277221679688,-0.27360689640045166,1.4602370262145996,0.7587890625,2280.5661742687225
D4:22:CD:00:05:6B,-63.1849479675293,-29.433618545532227,-147.0967254638672,5.542878150939941,-9.856910705566406,23.809886932373047,2280.5661742687225
D4:22:CD:00:49:AA,145.72329711914062,-73.74239349365234,137.3325958251953,-0.8641756772994995,-0.2696101665496826,-1.8797578811645508,2280.5661742687225
D4:22:CD:00:05:6E,69.08133697509766,-72.78054809570312,-125.16924285888672,25.274654388427734,5.14835262298584,14.305465698242188,2280.5661742687225
D4:22:CD:00:05:5E,-150.2984619140625,14.649823188781738,80.0028076171875,10.57437515258789,23.53118896484375,-10.085018157958984,2280.5661742687225
D4:22:CD:00:05:5D,-178.80911254882812,-63.56072998046875,-128.58755493164062,0.8006576299667358,1.48345947265625,0.24895954132080078,2280.5961759090424
D4:22:CD:00:05:6B,-48.556358337402344,-16.027915954589844,-152.08932495117188,0.41994619369506836,-10.272260665893555,19.35101318359375,2280.5961759090424
D4:22:CD:00:49:AA,143.1535186767578,-73.45394897460938,138.8197784423828,-3.283885955810547,-1.0553443431854248,2.2428207397460938,2280.5961759090424
D4:22:CD:00:05:6E,53.190643310546875,-62.271209716796875,-116.11100769042969,-3.677792549133301,-10.164529800415039,12.043333053588867,2280.5961759090424
D4:22:CD:00:05:5E,-144.6588592529297,20.572492599487305,80.27001190185547,10.921091079711914,24.348983764648438,-8.122245788574219,2280.5961759090424
