Device,EulerX,EulerY,EulerZ,FreeAccX,FreeAccY,FreeAccZ,Timestamp
D4:22:CD:00:05:5D,-178.45114135742188,-48.55769729614258,44.28361892700195,2.6781115531921387,-2.94783878326416,3.27028751373291,1385.1195392608643
D4:22:CD:00:05:6B,-77.65409851074219,-28.740224838256836,-83.19111633300781,-6.812600135803223,17.831737518310547,18.828060150146484,1385.1195392608643
D4:22:CD:00:49:AA,131.3941192626953,-71.07515716552734,143.04312133789062,1.2330842018127441,1.9224648475646973,8.191549301147461,1385.1195392608643
D4:22:CD:00:05:6E,57.78425598144531,-48.87809371948242,3.975069046020508,20.21725845336914,-12.974567413330078,3.579442024230957,1385.1195392608643
D4:22:CD:00:05:5E,-159.5204315185547,-55.58917999267578,-30.391054153442383,3.683330535888672,-10.421653747558594,14.716482162475586,1385.1195392608643
D4:22:CD:00:05:6B,-77.02730560302734,-19.831960678100586,-78.16151428222656,4.6835784912109375,11.362812042236328,21.081851959228516,1385.1275715827942
D4:22:CD:00:49:AA,127.16307067871094,-70.70950317382812,146.47364807128906,-5.850432395935059,0.5480787754058838,12.064620971679688,1385.1275715827942
D4:22:CD:00:05:6E,61.16642761230469,-42.96278762817383,1.2101414203643799,19.49038314819336,-2.0544328689575195,5.39853572845459,1385.1275715827942
D4:22:CD:00:05:5E,-158.71424865722656,-54.33855056762695,-28.954137802124023,5.963092803955078,-9.63128662109375,13.021919250488281,1385.1275715827942
D4:22:CD:00:05:6B,-70.54985046386719,-7.739687919616699,-72.42017364501953,1.16163969039917,7.481229782104492,34.52287292480469,1385.1315767765045
D4:22:CD:00:49:AA,128.13673400878906,-70.55413055419922,145.3076934814453,-1.9572291374206543,0.4469391703605652,11.163774490356445,1385.1315767765045
D4:22:CD:00:05:6E,62.988399505615234,-35.946224212646484,1.9968065023422241,18.09752655029297,4.846586227416992,11.462371826171875,1385.1315767765045
D4:22:CD:00:05:5E,-158.17520141601562,-54.63167190551758,-28.574071884155273,7.144274711608887,-2.8748369216918945,6.684139251708984,1385.1315767765045
D4:22:CD:00:05:5D,164.45289611816406,-67.62606811523438,-111.106689453125,0.25106000900268555,-2.997183322906494,-0.14748096466064453,1385.1345641613007
D4:22:CD:00:49:AA,131.1882781982422,-70.89089965820312,142.35899353027344,-3.1623024940490723,-0.13593298196792603,12.01414680480957,1385.1345641613007
D4:22:CD:00:05:6E,67.44393920898438,-32.64188003540039,4.674856662750244,12.166988372802734,2.907057762145996,1.2381620407104492,1385.1345641613007
D4:22:CD:00:05:5E,-162.30966186523438,-56.7017707824707,-28.9389591217041,10.315187454223633,-8.009527206420898,-0.1490335464477539,1385.1345641613007
D4:22:CD:00:05:5D,-172.15280151367188,-76.76520538330078,-129.40261840820312,-1.1432111263275146,-4.172048568725586,1.0699081420898438,1385.1390736103058
D4:22:CD:00:05:6B,-69.87232208251953,-20.66804313659668,-63.27532958984375,-0.07446795701980591,-1.4769260883331299,-8.572216033935547,1385.1390736103058
D4:22:CD:00:49:AA,-179.11692810058594,-72.69107055664062,104.76564025878906,-0.8880409002304077,-1.7188048362731934,-6.741138458251953,1385.1390736103058
D4:22:CD:00:05:6E,116.62964630126953,-62.00676727294922,-0.4688667058944702,2.9960689544677734,-3.940369129180908,3.7020177841186523,1385.1390736103058
D4:22:CD:00:05:5D,-177.46031188964844,-75.697509765625,-119.48487091064453,-1.491093397140503,-0.3774852156639099,-0.13901042938232422,1385.1882503032684
D4:22:CD:00:05:6B,-70.75067138671875,-20.682445526123047,-66.3584976196289,0.32486140727996826,-0.7925808429718018,-8.238641738891602,1385.1882503032684
D4:22:CD:00:49:AA,-179.24111938476562,-69.89371490478516,104.07965850830078,0.14290791749954224,1.2374982833862305,-3.2823009490966797,1385.1882503032684
D4:22:CD:00:05:6E,103.49940490722656,-73.59318542480469,6.808639049530029,2.310549259185791,-3.679391384124756,9.902776718139648,1385.1882503032684
D4:22:CD:00:05:5E,-167.3188934326172,-46.88404083251953,-64.98697662353516,11.37045669555664,-4.835355758666992,-0.12893199920654297,1385.1882503032684
D4:22:CD:00:05:5D,175.1824188232422,-72.54023742675781,-108.59944915771484,1.2520239353179932,2.4655227661132812,-4.014753341674805,1385.2172558307648
D4:22:CD:00:05:6B,-71.3178482055664,-19.937908172607422,-69.95053100585938,1.3118906021118164,-0.6833850145339966,-6.82535457611084,1385.2172558307648
D4:22:CD:00:49:AA,177.2014923095703,-71.20530700683594,107.96780395507812,1.4333422183990479,2.0242862701416016,-0.11822319030761719,1385.2172558307648
D4:22:CD:00:05:6E,-0.6807001829147339,-80.94461822509766,101.07789611816406,-5.631768226623535,-0.5283712148666382,23.685577392578125,1385.2172558307648
D4:22:CD:00:05:5E,-147.53970336914062,-56.71303939819336,-78.59231567382812,9.36724853515625,-5.7634735107421875,6.776561737060547,1385.2172558307648
D4:22:CD:00:05:5D,172.98326110839844,-67.77714538574219,-106.0098648071289,4.408202171325684,4.437185287475586,-6.0960540771484375,1385.2470843791962
D4:22:CD:00:05:6B,-74.51136779785156,-18.085901260375977,-74.52213287353516,-0.4889445900917053,-1.2556819915771484,0.9668979644775391,1385.2470843791962
D4:22:CD:00:49:AA,173.26736450195312,-72.29004669189453,112.21561431884766,3.2458863258361816,1.9852585792541504,-1.472773551940918,1385.2470843791962
D4:22:CD:00:05:6E,0.3943595588207245,-75.79255676269531,100.10374450683594,5.248183250427246,-0.5806405544281006,11.468090057373047,1385.2470843791962
D4:22:CD:00:05:5E,-110.84210968017578,-66.79310607910156,-107.49202728271484,-9.154932022094727,-6.11412239074707,13.365827560424805,1385.2470843791962
D4:22:CD:00:05:5D,174.7179412841797,-62.07843017578125,-107.7166748046875,6.561817169189453,2.2041501998901367,-3.7708425521850586,1385.2771577835083
D4:22:CD:00:05:6B,-81.86615753173828,-13.301834106445312,-79.0146255493164,-2.557445526123047,4.576584815979004,18.30916976928711,1385.2771577835083
D4:22:CD:00:49:AA,172.4857940673828,-70.53280639648438,113.63777923583984,0.5038210153579712,1.6438500881195068,9.921422958374023,1385.2771577835083
D4:22:CD:00:05:6E,35.977298736572266,-70.8579330444336,72.14372253417969,-2.1546974182128906,7.517352104187012,14.78084945678711,1385.2771577835083
D4:22:CD:00:05:5E,-118.47412872314453,-72.89588928222656,-97.86214447021484,-10.795961380004883,-7.808338165283203,16.42003631591797,1385.2771577835083
D4:22:CD:00:05:5D,178.17880249023438,-57.549076080322266,-110.3713150024414,3.965087413787842,-0.29524147510528564,3.8294620513916016,1385.3072290420532
D4:22:CD:00:05:6B,-88.81433868408203,-3.966092348098755,-79.65628814697266,11.266828536987305,12.536613464355469,27.096359252929688,1385.3072290420532
D4:22:CD:00:49:AA,174.121826171875,-68.7150650024414,112.74995422363281,2.4545044898986816,-0.6246726512908936,16.25859832763672,1385.3072290420532
D4:22:CD:00:05:6E,52.249488830566406,-60.728858947753906,56.542274475097656,-0.04376852512359619,9.622613906860352,17.79596710205078,1385.3072290420532
D4:22:CD:00:05:5E,-146.14620971679688,-74.28936004638672,-67.24811553955078,-8.002004623413086,-4.563687324523926,13.587589263916016,1385.3072290420532
D4:22:CD:00:05:5D,-179.51437377929688,-55.88587188720703,-111.06875610351562,-1.2546777725219727,2.347207546234131,4.184741020202637,1385.3371794223785
D4:22:CD:00:05:6B,-82.55126953125,9.712451934814453,-74.47142791748047,17.931377410888672,-0.14473438262939453,26.54555892944336,1385.3371794223785
D4:22:CD:00:49:AA,174.34719848632812,-68.58987426757812,113.17461395263672,-0.7883274555206299,0.4317282438278198,10.338983535766602,1385.3371794223785
D4:22:CD:00:05:6E,59.87898635864258,-51.15546417236328,55.920108795166016,3.4184141159057617,10.747848510742188,8.546655654907227,1385.3371794223785
D4:22:CD:00:05:5E,-169.21258544921875,-72.14694213867188,-44.75731658935547,4.894094467163086,-1.3243131637573242,8.297622680664062,1385.3371794223785
D4:22:CD:00:05:5D,-178.12400817871094,-56.11826705932617,-110.60614013671875,-1.175105333328247,3.031087875366211,2.5429792404174805,1385.3676886558533
D4:22:CD:00:05:6B,-63.431175231933594,21.603322982788086,-64.20757293701172,12.45297622680664,-6.564949989318848,13.065263748168945,1385.3676886558533
D4:22:CD:00:49:AA,177.848388671875,-69.5325698852539,111.86324310302734,-3.7602996826171875,3.0717215538024902,10.728181838989258,1385.3676886558533
D4:22:CD:00:05:6E,63.56520462036133,-46.85642623901367,63.712249755859375,-12.084444046020508,5.075207710266113,7.614696502685547,1385.3676886558533
D4:22:CD:00:05:5E,-179.46224975585938,-74.04287719726562,-34.23992919921875,2.603285312652588,3.8181772232055664,1.509385108947754,1385.3676886558533
D4:22:CD:00:05:5D,-177.2133026123047,-57.7942008972168,-110.61839294433594,-2.077451229095459,2.4152588844299316,3.7604761123657227,1385.3971424102783
D4:22:CD:00:05:6B,-39.0919303894043,26.546560287475586,-52.9136962890625,2.2079458236694336,-5.72144889831543,9.100534439086914,1385.3971424102783
D4:22:CD:00:49:AA,-175.3559112548828,-70.87128448486328,108.94554138183594,-1.8908390998840332,1.8336381912231445,10.718944549560547,1385.3971424102783
D4:22:CD:00:05:6E,60.24205017089844,-47.209503173828125,74.64313507080078,-5.141636848449707,-1.360567569732666,0.7854270935058594,1385.3971424102783
D4:22:CD:00:05:5E,169.27667236328125,-79.43089294433594,-22.714027404785156,3.487211227416992,6.550294876098633,-4.516328811645508,1385.3971424102783
D4:22:CD:00:05:5D,-176.11416625976562,-60.94028091430664,-111.35303497314453,-1.1954154968261719,1.6612656116485596,5.420282363891602,1385.4570727348328
D4:22:CD:00:05:6B,-16.42264175415039,26.298240661621094,-47.41519546508789,-1.0437002182006836,-7.731545448303223,5.127889633178711,1385.4570727348328
D4:22:CD:00:49:AA,-166.92184448242188,-73.41685485839844,104.86357116699219,1.6410386562347412,1.8451848030090332,2.744049072265625,1385.4570727348328
D4:22:CD:00:05:6E,55.30253982543945,-49.71163558959961,89.63421630859375,-6.7500762939453125,-1.452538251876831,1.119070053100586,1385.4570727348328
D4:22:CD:00:05:5E,113.8918228149414,-85.51323699951172,34.74363708496094,3.9237194061279297,4.83560848236084,-5.222837448120117,1385.4570727348328
D4:22:CD:00:05:5D,-175.55772399902344,-65.1488037109375,-110.97014617919922,-3.252206325531006,-2.1170010566711426,8.994319915771484,1385.487256526947
D4:22:CD:00:05:6B,-1.590368390083313,25.943920135498047,-46.72570037841797,-4.29296875,-11.948007583618164,-0.9423713684082031,1385.487256526947
D4:22:CD:00:49:AA,-156.26744079589844,-75.6458969116211,98.11897277832031,1.130507230758667,-0.025331392884254456,-3.4839792251586914,1385.487256526947
D4:22:CD:00:05:6E,49.62242126464844,-51.860435485839844,107.91570281982422,-8.039535522460938,-1.4967381954193115,-5.134616851806641,1385.487256526947
D4:22:CD:00:05:5E,37.62433624267578,-77.98087310791016,113.16828155517578,3.407789707183838,6.15828800201416,-2.5731353759765625,1385.487256526947
D4:22:CD:00:05:5D,-176.38221740722656,-70.92227172851562,-112.79662322998047,-6.42575740814209,-11.24148941040039,4.914068222045898,1385.5172567367554
D4:22:CD:00:05:6B,7.712182521820068,26.182666778564453,-47.38203430175781,-5.958530426025391,-8.011232376098633,-6.2412519454956055,1385.5172567367554
D4:22:CD:00:49:AA,-147.67221069335938,-75.84739685058594,93.43663024902344,-0.6251010894775391,0.6599380970001221,-9.495189666748047,1385.5172567367554
D4:22:CD:00:05:6E,44.72561264038086,-52.31898880004883,127.78810119628906,-8.263006210327148,-1.7508771419525146,-10.644256591796875,1385.5172567367554
D4:22:CD:00:05:5E,24.83542251586914,-66.10120391845703,125.53468322753906,-3.070732593536377,8.24410629272461,-4.153624534606934,1385.5172567367554
D4:22:CD:00:05:5D,175.2249298095703,-74.61409759521484,-106.1134262084961,2.862109661102295,-4.0451202392578125,-7.465882301330566,1385.546855211258
D4:22:CD:00:05:6B,14.547159194946289,27.48180389404297,-49.834495544433594,-2.10343074798584,-6.023720741271973,-6.690343856811523,1385.546855211258
D4:22:CD:00:49:AA,-141.2855224609375,-75.63865661621094,90.07930755615234,-0.38054579496383667,1.653991937637329,-10.911346435546875,1385.546855211258
D4:22:CD:00:05:6E,37.981624603271484,-51.059974670410156,147.2156524658203,-8.643484115600586,-9.052326202392578,-10.580673217773438,1385.546855211258
D4:22:CD:00:05:5E,15.28855037689209,-55.62120056152344,130.36773681640625,-10.264442443847656,9.26607894897461,-6.295411109924316,1385.546855211258
D4:22:CD:00:05:5D,166.34033203125,-77.39849853515625,-90.18943786621094,3.50651216506958,-4.686200141906738,-6.5873260498046875,1385.5779616832733
D4:22:CD:00:05:6B,22.0333194732666,31.670934677124023,-55.044166564941406,-3.5946502685546875,-6.315627098083496,-9.400506973266602,1385.5779616832733
D4:22:CD:00:49:AA,-133.57424926757812,-76.50892639160156,85.95700073242188,-0.9351905584335327,-0.0512591153383255,-9.303939819335938,1385.5779616832733
D4:22:CD:00:05:6E,28.702537536621094,-48.549285888671875,163.7284393310547,-3.183778762817383,-4.428793907165527,-11.618488311767578,1385.5779616832733
D4:22:CD:00:05:5E,4.772621154785156,-47.42381286621094,133.92593383789062,-13.5460205078125,8.675226211547852,-9.996248245239258,1385.5779616832733
D4:22:CD:00:05:5D,151.27383422851562,-80.96910858154297,-69.89505004882812,7.043032646179199,-3.9782447814941406,-10.410625457763672,1385.607057094574
D4:22:CD:00:05:6B,29.795249938964844,38.50861740112305,-64.93914031982422,-0.9854090213775635,-1.5763015747070312,-12.03931999206543,1385.607057094574
D4:22:CD:00:49:AA,-125.42086791992188,-77.96954345703125,80.96595001220703,-0.7859708070755005,-0.3210952877998352,-10.909757614135742,1385.607057094574
D4:22:CD:00:05:6E,24.827547073364258,-45.55284118652344,176.74522399902344,-2.6817402839660645,-5.7798662185668945,-10.342918395996094,1385.607057094574
D4:22:CD:00:05:5E,-4.48032808303833,-42.22523498535156,137.6400909423828,-7.4333953857421875,12.201606750488281,-15.442840576171875,1385.607057094574
D4:22:CD:00:05:5D,145.32684326171875,-83.53292083740234,-54.374725341796875,13.910669326782227,15.193326950073242,-10.609697341918945,1385.6372864246368
D4:22:CD:00:05:6B,31.561983108520508,45.84552001953125,-82.0969467163086,4.1398162841796875,-2.372183322906494,-11.202796936035156,1385.6372864246368
D4:22:CD:00:49:AA,-123.08375549316406,-78.65731048583984,81.2179183959961,3.149085521697998,-0.6904631853103638,-9.92000961303711,1385.6372864246368
D4:22:CD:00:05:6E,19.564607620239258,-43.08531188964844,-173.36154174804688,0.4925954341888428,-11.079019546508789,-9.856887817382812,1385.6372864246368
D4:22:CD:00:05:5E,-5.387776851654053,-38.99812316894531,140.27386474609375,-11.239513397216797,6.856575012207031,-17.438034057617188,1385.6372864246368
D4:22:CD:00:05:5D,155.48342895507812,-81.51274871826172,-60.12104797363281,-19.946537017822266,19.789405822753906,-4.014789581298828,1385.6669504642487
D4:22:CD:00:05:6B,18.358367919921875,49.306331634521484,-106.88582611083984,0.23579168319702148,-9.127645492553711,-15.497255325317383,1385.6669504642487
D4:22:CD:00:49:AA,-124.61637878417969,-79.92414855957031,84.0373764038086,1.9171664714813232,1.4318838119506836,-3.5878520011901855,1385.6669504642487
D4:22:CD:00:05:6E,10.798924446105957,-41.2451171875,-166.26950073242188,1.4001185894012451,-6.470457077026367,-7.741429328918457,1385.6669504642487
D4:22:CD:00:05:5E,-7.37296724319458,-39.99020767211914,143.51576232910156,-12.450042724609375,4.3778486251831055,-19.67397689819336,1385.6669504642487
D4:22:CD:00:05:5D,153.20823669433594,-76.7672348022461,-61.194000244140625,-2.335731029510498,-6.227230072021484,-1.4768409729003906,1385.6969368457794
D4:22:CD:00:05:6B,-0.9499278664588928,47.63319396972656,-134.3170166015625,-16.69952392578125,-13.573724746704102,-26.29706573486328,1385.6969368457794
D4:22:CD:00:49:AA,-125.83753204345703,-81.21826171875,85.44762420654297,-0.48996472358703613,-0.03186646103858948,-0.7036914825439453,1385.6969368457794
D4:22:CD:00:05:6E,6.615084648132324,-40.357627868652344,-161.36032104492188,2.3086929321289062,-5.694506645202637,-5.664015769958496,1385.6969368457794
D4:22:CD:00:05:5E,-16.074634552001953,-45.78935241699219,149.54953002929688,-14.469223022460938,5.9424028396606445,-13.262430191040039,1385.6969368457794
D4:22:CD:00:05:5D,154.00283813476562,-71.74536895751953,-55.770790100097656,-0.9605263471603394,-0.7165257930755615,4.2247514724731445,1385.7574486732483
D4:22:CD:00:05:6B,-13.661879539489746,45.92005920410156,-156.32965087890625,3.515322685241699,4.334017753601074,-20.26119613647461,1385.7574486732483
D4:22:CD:00:49:AA,-134.66012573242188,-82.25572204589844,93.11337280273438,0.22719824314117432,0.4726724624633789,3.61875057220459,1385.7574486732483
D4:22:CD:00:05:6E,4.120296478271484,-40.39411544799805,-158.03610229492188,4.06758975982666,-8.843578338623047,-5.7607927322387695,1385.7574486732483
D4:22:CD:00:05:5E,-26.974435806274414,-53.507450103759766,157.36251831054688,-12.280473709106445,3.3636159896850586,5.2947845458984375,1385.7574486732483
D4:22:CD:00:05:5D,154.5616455078125,-68.2210464477539,-52.263954162597656,5.833244323730469,6.202472686767578,0.9719476699829102,1385.7874491214752
D4:22:CD:00:05:6B,-29.03756332397461,47.19728469848633,-156.53245544433594,17.023250579833984,-9.418510437011719,-11.553760528564453,1385.7874491214752
D4:22:CD:00:49:AA,-151.91061401367188,-82.50826263427734,108.4534912109375,-3.5600180625915527,-0.6544686555862427,4.395812034606934,1385.7874491214752
D4:22:CD:00:05:6E,-0.0581829659640789,-41.87652587890625,-154.8953857421875,3.475558280944824,-7.5603179931640625,-3.004150390625,1385.7874491214752
D4:22:CD:00:05:5E,-26.724639892578125,-58.21178436279297,160.39712524414062,-6.111228942871094,-10.462591171264648,3.1174354553222656,1385.7874491214752
D4:22:CD:00:05:5D,152.06715393066406,-67.19615936279297,-51.108272552490234,3.916970729827881,1.5283827781677246,4.391910552978516,1385.8170182704926
D4:22:CD:00:05:6B,-46.453887939453125,54.42544937133789,-145.50546264648438,-12.7506103515625,7.825473785400391,-1.291290283203125,1385.8170182704926
D4:22:CD:00:49:AA,-167.46595764160156,-80.6513900756836,122.66905212402344,-3.261752128601074,-3.5608201026916504,6.413652420043945,1385.8170182704926
D4:22:CD:00:05:6E,-3.9122793674468994,-45.10125732421875,-150.6658477783203,2.1968722343444824,-8.401895523071289,0.564509391784668,1385.8170182704926
D4:22:CD:00:05:5E,-21.968589782714844,-61.53733444213867,158.5462646484375,-9.465246200561523,-6.1435747146606445,6.002824783325195,1385.8170182704926
D4:22:CD:00:05:5D,148.10592651367188,-66.44042205810547,-47.14086151123047,-1.6462318897247314,-3.1859536170959473,7.527984619140625,1385.8476481437683
D4:22:CD:00:05:6B,-37.15913009643555,63.04623794555664,-128.30319213867188,-20.208492279052734,-2.627089500427246,-12.985313415527344,1385.8476481437683
D4:22:CD:00:49:AA,-172.6554412841797,-78.74163055419922,127.9687728881836,-1.009751558303833,-4.2356367111206055,7.165254592895508,1385.8476481437683
D4:22:CD:00:05:6E,-9.351720809936523,-50.400611877441406,-144.77813720703125,0.32872945070266724,-10.342803955078125,3.2988052368164062,1385.8476481437683
D4:22:CD:00:05:5E,-21.54994773864746,-66.00702667236328,158.52256774902344,0.3942752480506897,6.5464630126953125,17.05605697631836,1385.8476481437683
D4:22:CD:00:05:5D,143.84555053710938,-65.97454833984375,-42.96622848510742,0.3502380847930908,1.5726463794708252,3.8157577514648438,1385.8766479492188
D4:22:CD:00:05:6B,-8.242451667785645,64.7606201171875,-93.05322265625,-5.908556938171387,-2.5270442962646484,-16.95697784423828,1385.8766479492188
D4:22:CD:00:49:AA,-173.47850036621094,-77.20626068115234,128.7633819580078,2.178889751434326,-1.2795734405517578,1.3404197692871094,1385.8766479492188
D4:22:CD:00:05:6E,-18.210494995117188,-56.74011993408203,-138.2424774169922,-1.3283848762512207,-10.624948501586914,6.005954742431641,1385.8766479492188
D4:22:CD:00:05:5E,-26.35237693786621,-71.83218383789062,157.8993682861328,4.201083183288574,12.691539764404297,1.575775146484375,1385.8766479492188
D4:22:CD:00:05:5D,137.0263214111328,-66.1783218383789,-38.3394660949707,2.2732486724853516,0.19013619422912598,3.6593446731567383,1385.9071266651154
D4:22:CD:00:05:6B,4.892198085784912,57.40132141113281,-67.19912719726562,-4.692806243896484,5.255742073059082,2.5703372955322266,1385.9071266651154
D4:22:CD:00:49:AA,-172.40382385253906,-75.54984283447266,126.80755615234375,4.734203338623047,2.4029440879821777,0.09421730041503906,1385.9071266651154
D4:22:CD:00:05:6E,-31.42301368713379,-62.57913589477539,-132.1177978515625,-2.4761343002319336,-12.000879287719727,3.012518882751465,1385.9071266651154
D4:22:CD:00:05:5E,-24.800180435180664,-75.76323699951172,155.41171264648438,-9.004940032958984,0.47849810123443604,-1.3969688415527344,1385.9071266651154
D4:22:CD:00:05:5D,129.76283264160156,-66.16056823730469,-34.83993148803711,6.304592132568359,-1.2943196296691895,3.851168632507324,1385.9374823570251
D4:22:CD:00:05:6B,-1.000018835067749,45.26958084106445,-55.305152893066406,-6.617923736572266,17.08916473388672,-3.184734344482422,1385.9374823570251
D4:22:CD:00:49:AA,-173.852294921875,-73.94462585449219,124.96370697021484,6.326251983642578,4.2979736328125,-2.488649845123291,1385.9374823570251
D4:22:CD:00:05:6E,-50.960323333740234,-67.38931274414062,-124.88274383544922,-4.2328996658325195,-9.149866104125977,4.226114273071289,1385.9374823570251
D4:22:CD:00:05:5E,-19.942495346069336,-79.51654052734375,149.17874145507812,-2.686856269836426,2.4663023948669434,0.09790992736816406,1385.9374823570251
D4:22:CD:00:05:5D,122.58403015136719,-66.08643341064453,-36.146759033203125,18.018157958984375,1.284170150756836,0.37300777435302734,1385.9670634269714
D4:22:CD:00:05:6B,-15.873201370239258,30.589828491210938,-47.25913619995117,-7.778408050537109,3.6622395515441895,-2.9406676292419434,1385.9670634269714
D4:22:CD:00:49:AA,-176.16700744628906,-70.9723892211914,122.91048431396484,7.3004913330078125,1.9325480461120605,1.9417076110839844,1385.9670634269714
D4:22:CD:00:05:6E,-72.28376770019531,-68.80757141113281,-118.19519805908203,1.7656018733978271,15.207569122314453,5.424527168273926,1385.9670634269714
D4:22:CD:00:05:5E,-9.029936790466309,-81.99327087402344,137.2760467529297,-5.028154373168945,0.14914995431900024,-0.2266559600830078,1385.9670634269714
D4:22:CD:00:05:5D,124.06623840332031,-64.95915985107422,-49.0025520324707,12.885082244873047,22.47442626953125,7.195611953735352,1385.9970965385437
D4:22:CD:00:05:6B,-28.733789443969727,16.72861671447754,-40.37202453613281,4.162952423095703,-0.18523788452148438,-0.9225530624389648,1385.9970965385437
D4:22:CD:00:49:AA,-175.8671875,-69.90501403808594,121.26069641113281,0.5389353036880493,1.389497995376587,1.877701759338379,1385.9970965385437
D4:22:CD:00:05:6E,-84.01426696777344,-68.7118148803711,-115.78770446777344,-4.223531723022461,2.6171884536743164,-2.5920305252075195,1385.9970965385437
D4:22:CD:00:05:5E,11.381094932556152,-81.72901153564453,118.1127700805664,-2.404618263244629,1.1718096733093262,1.2002410888671875,1385.9970965385437
D4:22:CD:00:05:5D,137.9955596923828,-57.90930938720703,-67.78496551513672,14.72369384765625,12.813741683959961,1.9837102890014648,1386.057629108429
D4:22:CD:00:05:6B,-46.032222747802734,4.201320648193359,-33.974578857421875,-1.220881462097168,-12.403810501098633,0.8083705902099609,1386.057629108429
D4:22:CD:00:49:AA,-174.81581115722656,-69.44860076904297,119.99803924560547,2.2607879638671875,3.3190183639526367,-0.03606128692626953,1386.057629108429
D4:22:CD:00:05:6E,-84.79727172851562,-68.82901763916016,-117.79818725585938,-11.524795532226562,-6.477065086364746,-1.5428524017333984,1386.057629108429
D4:22:CD:00:05:5E,29.102319717407227,-79.86433410644531,104.04866027832031,-0.7177397012710571,1.715045690536499,1.4944429397583008,1386.057629108429
D4:22:CD:00:05:5D,150.60276794433594,-48.67292022705078,-83.5185775756836,6.829712867736816,4.1315765380859375,-1.768035888671875,1386.087191581726
D4:22:CD:00:05:6B,-50.961490631103516,-4.264386177062988,-28.946382522583008,-0.8243141174316406,-7.899410247802734,21.535343170166016,1386.087191581726
D4:22:CD:00:49:AA,-173.48770141601562,-68.32706451416016,118.20021057128906,3.5067548751831055,1.6280598640441895,-0.6532096862792969,1386.087191581726
D4:22:CD:00:05:6E,-81.85279083251953,-69.24791717529297,-122.47505950927734,-12.135948181152344,-3.7259020805358887,-4.874913215637207,1386.087191581726
D4:22:CD:00:05:5E,42.09564971923828,-79.92269134521484,94.32195281982422,-2.6946754455566406,2.0946240425109863,0.860478401184082,1386.087191581726
D4:22:CD:00:05:5D,158.92694091796875,-39.092437744140625,-94.68524169921875,-0.6332337856292725,-1.3320939540863037,-7.543474197387695,1386.1172947883606
D4:22:CD:00:05:6B,-44.61760330200195,-9.827757835388184,-26.37029266357422,-0.18073123693466187,0.7291209697723389,-1.7874279022216797,1386.1172947883606
D4:22:CD:00:49:AA,-172.43246459960938,-67.78409576416016,117.57625579833984,0.5027852058410645,-0.2764856219291687,-1.647679328918457,1386.1172947883606
D4:22:CD:00:05:6E,-77.62374114990234,-70.14669799804688,-127.23124694824219,-4.588611602783203,-0.47352761030197144,-3.5810160636901855,1386.1172947883606
D4:22:CD:00:05:5E,52.96870803833008,-81.63947296142578,84.3794937133789,-1.1757628917694092,-1.6209468841552734,0.06918716430664062,1386.1172947883606
D4:22:CD:00:05:5D,165.29977416992188,-30.747224807739258,-102.03816986083984,-2.474942684173584,-1.304258108139038,-13.33226203918457,1386.1471190452576
D4:22:CD:00:05:6B,-43.10259246826172,-16.107255935668945,-23.868532180786133,1.3764612674713135,1.792004108428955,-6.601941108703613,1386.1471190452576
D4:22:CD:00:49:AA,-170.8578338623047,-68.10956573486328,117.29267883300781,-2.530036449432373,0.8668817281723022,-5.367536544799805,1386.1471190452576
D4:22:CD:00:05:6E,-66.04374694824219,-71.79951477050781,-134.15145874023438,-4.018240928649902,-2.3686442375183105,-5.456787109375,1386.1471190452576
D4:22:CD:00:05:5E,76.01770782470703,-84.2497787475586,60.71748733520508,-4.304276466369629,-1.6550486087799072,-6.2067413330078125,1386.1471190452576
D4:22:CD:00:05:5D,171.37669372558594,-25.2731876373291,-107.9851303100586,-5.295431137084961,-0.48357629776000977,-13.10527229309082,1386.1802451610565
D4:22:CD:00:05:6B,-46.284637451171875,-24.739585876464844,-20.789661407470703,3.764035224914551,-1.0331690311431885,-3.478640556335449,1386.1802451610565
D4:22:CD:00:49:AA,-168.57540893554688,-69.17256927490234,116.43817138671875,0.024035241454839706,2.3467493057250977,-6.26656436920166,1386.1802451610565
D4:22:CD:00:05:6E,-50.60978698730469,-73.23002624511719,-144.6962890625,-0.790421724319458,-4.012297630310059,-2.9677605628967285,1386.1802451610565
D4:22:CD:00:05:5E,117.53231048583984,-84.78425598144531,17.759214401245117,-8.054468154907227,2.4732589721679688,-8.896455764770508,1386.1802451610565
D4:22:CD:00:05:5D,173.16976928710938,-24.176589965820312,-114.2629165649414,-8.249992370605469,-3.762847900390625,-15.145185470581055,1386.2072401046753
D4:22:CD:00:05:6B,-48.88624954223633,-36.26191711425781,-19.4312801361084,8.468181610107422,-5.668458938598633,3.523066520690918,1386.2072401046753
D4:22:CD:00:49:AA,-164.41111755371094,-70.94254302978516,113.28148651123047,3.507302761077881,2.453627586364746,-4.659566879272461,1386.2072401046753
D4:22:CD:00:05:6E,-31.382671356201172,-72.68690490722656,-159.82965087890625,1.1716828346252441,-4.412021636962891,-2.4199624061584473,1386.2072401046753
D4:22:CD:00:05:5E,142.14434814453125,-82.80870819091797,-7.8454976081848145,-4.041243553161621,3.214077949523926,-3.9928536415100098,1386.2072401046753
D4:22:CD:00:05:5D,171.3553924560547,-27.571821212768555,-120.12156677246094,-10.24129867553711,-9.72726821899414,-16.987876892089844,1386.2373197078705
D4:22:CD:00:05:6B,-41.731136322021484,-49.938880920410156,-23.6491756439209,11.344615936279297,-6.4141387939453125,20.15726089477539,1386.2373197078705
D4:22:CD:00:49:AA,-160.4019775390625,-72.69112396240234,108.23431396484375,2.776010513305664,1.0167994499206543,-4.219357490539551,1386.2373197078705
D4:22:CD:00:05:6E,-11.709403991699219,-70.19173431396484,-177.8730010986328,0.5628596544265747,-9.457502365112305,0.7397441864013672,1386.2373197078705
D4:22:CD:00:05:5E,161.49530029296875,-79.77549743652344,-31.047008514404297,-1.1500835418701172,-1.3543503284454346,9.801078796386719,1386.2373197078705
D4:22:CD:00:05:5D,171.54164123535156,-31.1861629486084,-125.3848876953125,-5.378997802734375,-0.33946162462234497,28.526500701904297,1386.267264842987
D4:22:CD:00:05:6B,-14.011421203613281,-56.052059173583984,-35.12729263305664,4.253446578979492,-14.036676406860352,22.963760375976562,1386.267264842987
D4:22:CD:00:49:AA,-157.17202758789062,-72.1905288696289,103.92987060546875,-0.38959401845932007,-4.609466552734375,0.6087188720703125,1386.267264842987
D4:22:CD:00:05:6E,8.928742408752441,-64.05934143066406,163.03439331054688,-2.502683162689209,-6.204581260681152,5.272778511047363,1386.267264842987
D4:22:CD:00:05:5E,173.0836944580078,-75.2056884765625,-46.37250518798828,-1.5956871509552002,5.593091011047363,-1.214613914489746,1386.267264842987
D4:22:CD:00:05:5D,170.67526245117188,-31.06513786315918,-125.7332763671875,-22.44243621826172,-15.891456604003906,9.09566879272461,1386.2972617149353
D4:22:CD:00:05:6B,5.323319435119629,-51.86220169067383,-32.6164436340332,25.376930236816406,-7.983487129211426,9.055553436279297,1386.2972617149353
D4:22:CD:00:49:AA,-156.3784942626953,-70.26785278320312,102.38069152832031,9.166460037231445,2.8490066528320312,11.530790328979492,1386.2972617149353
D4:22:CD:00:05:6E,28.242677688598633,-53.98344421386719,146.9091033935547,-2.6337099075317383,-3.8437604904174805,14.246747970581055,1386.2972617149353
D4:22:CD:00:05:5E,174.7699737548828,-72.3799819946289,-49.87794876098633,-2.5891547203063965,3.3445377349853516,1.5246305465698242,1386.2972617149353
D4:22:CD:00:05:5D,170.32455444335938,-29.20120620727539,-123.34796142578125,-21.418827056884766,-9.402910232543945,14.549152374267578,1386.3569326400757
D4:22:CD:00:05:6B,4.298896312713623,-43.34822463989258,-21.74476432800293,20.23772430419922,-6.408357620239258,16.63695526123047,1386.3569326400757
D4:22:CD:00:49:AA,-157.91172790527344,-69.20704650878906,100.90489196777344,2.912022113800049,0.29493004083633423,8.360118865966797,1386.3569326400757
D4:22:CD:00:05:6E,54.229713439941406,-41.91992950439453,136.3751220703125,4.822342872619629,-8.26551628112793,4.368897438049316,1386.3569326400757
D4:22:CD:00:05:5E,172.3180694580078,-72.21631622314453,-47.93763732910156,-2.591007709503174,3.0846400260925293,1.0256423950195312,1386.3569326400757
D4:22:CD:00:05:5D,169.8679962158203,-24.860044479370117,-120.72264099121094,-11.565040588378906,-9.791868209838867,10.306779861450195,1386.3873839378357
D4:22:CD:00:05:6B,-3.0682222843170166,-32.7871208190918,-15.669034957885742,13.769721984863281,-12.252586364746094,5.504283905029297,1386.3873839378357
D4:22:CD:00:49:AA,-157.768310546875,-70.73495483398438,99.09418487548828,-2.391139507293701,0.8835909366607666,10.639135360717773,1386.3873839378357
D4:22:CD:00:05:6E,75.96765899658203,-34.61632537841797,126.62005615234375,-1.2128124237060547,-35.79656219482422,20.825210571289062,1386.3873839378357
D4:22:CD:00:05:5E,167.50738525390625,-73.50186920166016,-43.54578399658203,-2.8332395553588867,3.166907787322998,1.1398906707763672,1386.3873839378357
D4:22:CD:00:05:5D,169.20130920410156,-20.805408477783203,-119.04588317871094,-5.114073753356934,-3.85646915435791,10.495889663696289,1386.4176771640778
D4:22:CD:00:05:6B,-8.467497825622559,-23.670499801635742,-13.714275360107422,5.806154251098633,-9.483444213867188,-5.892509460449219,1386.4176771640778
D4:22:CD:00:49:AA,-159.57470703125,-72.36585998535156,100.89149475097656,3.2129368782043457,5.151637077331543,7.117925643920898,1386.4176771640778
D4:22:CD:00:05:6E,79.56591033935547,-29.238405227661133,113.0195083618164,-8.747308731079102,-19.93944549560547,26.30890655517578,1386.4176771640778
D4:22:CD:00:05:5E,160.0173797607422,-76.18280792236328,-36.481849670410156,-3.501089572906494,3.4095263481140137,1.7923641204833984,1386.4176771640778
D4:22:CD:00:05:5D,168.03236389160156,-18.460412979125977,-119.83504486083984,-10.13731575012207,-0.7457567453384399,2.8603286743164062,1386.44739985466
D4:22:CD:00:05:6B,-12.510444641113281,-17.821237564086914,-15.263794898986816,0.35162997245788574,-6.540096282958984,-6.628263473510742,1386.44739985466
D4:22:CD:00:49:AA,-162.91537475585938,-73.65541076660156,103.55757141113281,5.23173713684082,7.10011100769043,5.700068473815918,1386.44739985466
D4:22:CD:00:05:6E,73.64068603515625,-25.677875518798828,100.53684997558594,-17.92462158203125,-7.021963119506836,9.76578140258789,1386.44739985466
D4:22:CD:00:05:5E,142.5327911376953,-80.2862319946289,-20.03753662109375,-2.919438362121582,4.427067756652832,3.201136589050293,1386.44739985466
D4:22:CD:00:05:5D,164.77554321289062,-19.11054229736328,-120.55997467041016,-3.8760886192321777,0.21633639931678772,-5.32985782623291,1386.4775552749634
D4:22:CD:00:05:6B,-18.370580673217773,-15.735292434692383,-18.913217544555664,-5.167489051818848,-3.109989643096924,-7.074810028076172,1386.4775552749634
D4:22:CD:00:49:AA,-168.00611877441406,-74.40025329589844,106.1612319946289,2.8888745307922363,3.1836323738098145,4.426034927368164,1386.4775552749634
D4:22:CD:00:05:6E,63.548667907714844,-24.760536193847656,92.25753784179688,-11.859359741210938,-0.8460009098052979,-0.772944450378418,1386.4775552749634
D4:22:CD:00:05:5E,74.60882568359375,-81.60321807861328,50.593624114990234,6.353313446044922,1.5756819248199463,9.680532455444336,1386.4775552749634
D4:22:CD:00:05:5D,164.4375,-23.483205795288086,-120.49755859375,-5.003686904907227,0.0052167922258377075,-14.026531219482422,1386.5075550079346
D4:22:CD:00:05:6B,-24.911415100097656,-17.165197372436523,-23.777671813964844,-6.633955001831055,-1.0955123901367188,-5.780279159545898,1386.5075550079346
D4:22:CD:00:49:AA,-172.24725341796875,-74.68854522705078,106.06817626953125,1.667517900466919,0.8602300882339478,-3.2885241508483887,1386.5075550079346
D4:22:CD:00:05:6E,51.54210662841797,-22.148780822753906,89.42444610595703,-4.7646026611328125,-1.3827707767486572,-4.219901084899902,1386.5075550079346
D4:22:CD:00:05:5E,53.421531677246094,-78.29419708251953,75.34497833251953,-0.4095901846885681,1.5067203044891357,3.4261226654052734,1386.5075550079346
D4:22:CD:00:05:5D,165.04714965820312,-32.092628479003906,-120.08223724365234,-6.4717912673950195,-3.281153678894043,-17.772274017333984,1386.5395758152008
D4:22:CD:00:05:6B,-29.825855255126953,-20.597692489624023,-29.366443634033203,-3.79705810546875,1.6508009433746338,-6.52982234954834,1386.5395758152008
D4:22:CD:00:49:AA,-173.9257049560547,-74.2861328125,104.83604431152344,0.30100876092910767,-1.4348056316375732,-8.942113876342773,1386.5395758152008
D4:22:CD:00:05:6E,38.103694915771484,-14.276345252990723,89.64515686035156,2.5133438110351562,4.763148307800293,-6.983277320861816,1386.5395758152008
D4:22:CD:00:05:5E,51.95729064941406,-80.17657470703125,74.35598754882812,-8.346920013427734,8.446981430053711,-7.991178512573242,1386.5395758152008
D4:22:CD:00:05:5D,164.38809204101562,-44.512638092041016,-119.86150360107422,-8.825164794921875,-4.676738739013672,-14.116724014282227,1386.5673668384552
D4:22:CD:00:05:6B,-33.0815315246582,-24.72940444946289,-35.09759521484375,-2.597062587738037,1.1229381561279297,-7.679245948791504,1386.5673668384552
D4:22:CD:00:49:AA,-171.53614807128906,-74.11277770996094,101.94507598876953,-3.130281448364258,-0.42490214109420776,-8.64533805847168,1386.5673668384552
D4:22:CD:00:05:6E,26.281389236450195,-1.6769808530807495,91.60330200195312,2.713517665863037,7.217939376831055,-12.98812484741211,1386.5673668384552
D4:22:CD:00:05:5E,70.88068389892578,-85.82083892822266,46.824729919433594,4.640144348144531,-7.546913146972656,-8.330678939819336,1386.5673668384552
D4:22:CD:00:05:5D,161.11656188964844,-60.08660125732422,-119.0232162475586,-4.453360557556152,-3.190309524536133,-1.5491113662719727,1386.5975494384766
D4:22:CD:00:05:6B,-33.35628128051758,-29.093299865722656,-40.198974609375,-2.3054685592651367,0.7324492931365967,-3.10343074798584,1386.5975494384766
D4:22:CD:00:49:AA,-165.63246154785156,-75.04852294921875,96.56004333496094,-0.12895238399505615,1.1669788360595703,-8.391426086425781,1386.5975494384766
D4:22:CD:00:05:6E,18.55777359008789,11.97725772857666,95.02162170410156,-0.5811878442764282,4.346683502197266,-14.629995346069336,1386.5975494384766
D4:22:CD:00:05:5E,56.3023681640625,-87.83373260498047,52.687217712402344,-8.606945037841797,-5.701467514038086,-11.392879486083984,1386.5975494384766
D4:22:CD:00:05:5D,156.9705047607422,-77.97813415527344,-116.97895812988281,3.54666805267334,4.357810020446777,10.216901779174805,1386.657279253006
D4:22:CD:00:05:6B,-31.860702514648438,-32.511802673339844,-43.94923782348633,0.8086975812911987,2.81453800201416,-2.713803291320801,1386.657279253006
D4:22:CD:00:49:AA,-162.04757690429688,-77.10050964355469,92.97806549072266,3.6364827156066895,1.6135475635528564,-8.579435348510742,1386.657279253006
D4:22:CD:00:05:6E,15.668683052062988,25.478357315063477,100.6684341430664,-4.440629959106445,3.4072914123535156,-14.562875747680664,1386.657279253006
D4:22:CD:00:05:5E,61.25483703613281,-87.92472839355469,43.96686935424805,-6.49494743347168,0.7901840209960938,-6.389049530029297,1386.657279253006
D4:22:CD:00:05:5D,-19.52863121032715,-85.10928344726562,52.95315933227539,5.785362243652344,19.240936279296875,11.484628677368164,1386.6873714923859
D4:22:CD:00:05:6B,-33.106117248535156,-34.7572135925293,-46.2615852355957,1.020775556564331,0.7368998527526855,-5.285043716430664,1386.6873714923859
D4:22:CD:00:49:AA,-161.13136291503906,-78.87641906738281,91.04888916015625,0.9574970006942749,-1.1365923881530762,-8.169315338134766,1386.6873714923859
D4:22:CD:00:05:6E,21.417434692382812,39.6516227722168,110.61324310302734,-3.607728958129883,9.22899055480957,-17.21890640258789,1386.6873714923859
D4:22:CD:00:05:5E,83.76522064208984,-88.18619537353516,21.917539596557617,-4.71466064453125,0.5048221349716187,-3.856743335723877,1386.6873714923859
D4:22:CD:00:05:5D,-17.21249771118164,-74.17024230957031,45.97345733642578,14.299976348876953,6.072030067443848,-0.37717628479003906,1386.717402458191
D4:22:CD:00:05:6B,-35.40602493286133,-36.15484619140625,-47.89759826660156,0.6113414764404297,1.7697432041168213,-0.7043743133544922,1386.717402458191
D4:22:CD:00:49:AA,-156.30747985839844,-79.24783325195312,85.70963287353516,1.0975825786590576,-1.7361481189727783,-0.6449823379516602,1386.717402458191
D4:22:CD:00:05:6E,44.040611267089844,51.06696701049805,127.86132049560547,-7.431868553161621,1.9127976894378662,-30.713123321533203,1386.717402458191
D4:22:CD:00:05:5E,153.96176147460938,-87.92415618896484,-50.158138275146484,1.436556339263916,-0.13635852932929993,-2.5099635124206543,1386.717402458191
D4:22:CD:00:05:5D,-0.14687100052833557,-72.3368911743164,34.97531509399414,11.83475112915039,14.587907791137695,-14.763128280639648,1386.7470445632935
D4:22:CD:00:05:6B,-35.92784118652344,-36.44180679321289,-50.92214584350586,0.7353061437606812,2.711362838745117,1.7347803115844727,1386.7470445632935
D4:22:CD:00:49:AA,-150.0106658935547,-79.870361328125,79.51315307617188,1.3962101936340332,2.8545336723327637,-1.7211942672729492,1386.7470445632935
D4:22:CD:00:05:6E,71.83161163330078,55.24144744873047,137.83938598632812,-2.7250466346740723,-11.3404541015625,-0.7672739028930664,1386.7470445632935
D4:22:CD:00:05:5E,-177.8564453125,-85.78755187988281,-80.67298126220703,-3.0288472175598145,-2.2672572135925293,4.274003028869629,1386.7470445632935
D4:22:CD:00:05:5D,24.923709869384766,-76.87074279785156,15.208495140075684,12.333759307861328,6.217058181762695,-6.319197654724121,1386.7771503925323
D4:22:CD:00:05:6B,-33.86779022216797,-35.60408020019531,-54.69270324707031,0.5527893304824829,0.28186607360839844,-2.2565274238586426,1386.7771503925323
D4:22:CD:00:49:AA,-150.59471130371094,-79.01122283935547,79.2325210571289,4.8248491287231445,4.7617082595825195,-1.6866044998168945,1386.7771503925323
D4:22:CD:00:05:6E,86.21583557128906,58.1404914855957,135.538330078125,-4.839800834655762,-1.8157598972320557,-3.5845046043395996,1386.7771503925323
D4:22:CD:00:05:5E,-164.06968688964844,-83.38479614257812,-96.16443634033203,-5.148667335510254,-1.4133055210113525,2.835540771484375,1386.7771503925323
D4:22:CD:00:05:5D,73.72733306884766,-78.81214904785156,-26.94552230834961,0.30052119493484497,-3.6373605728149414,9.173355102539062,1386.807307958603
D4:22:CD:00:05:6B,-34.71835708618164,-35.51051330566406,-56.74179458618164,0.5270786285400391,-1.5086383819580078,-0.24022865295410156,1386.807307958603
D4:22:CD:00:49:AA,-149.71090698242188,-77.28759002685547,78.2139663696289,5.581563949584961,-0.6557878255844116,5.313899040222168,1386.807307958603
D4:22:CD:00:05:6E,80.81242370605469,59.50700759887695,121.1450424194336,-2.4858336448669434,-14.488258361816406,-7.676242828369141,1386.807307958603
D4:22:CD:00:05:5E,-150.89694213867188,-81.77918243408203,-109.64154815673828,0.4542970061302185,0.0732581615447998,6.602697372436523,1386.807307958603
D4:22:CD:00:05:5D,99.9882583618164,-78.33663177490234,-53.1578483581543,1.5837876796722412,-15.94766616821289,0.13673114776611328,1386.8373169898987
D4:22:CD:00:05:6B,-36.953006744384766,-37.094520568847656,-56.703304290771484,-0.7014815807342529,-2.3058180809020996,7.068206787109375,1386.8373169898987
D4:22:CD:00:49:AA,-149.58798217773438,-75.83555603027344,78.92937469482422,5.664850234985352,0.9684275388717651,9.057737350463867,1386.8373169898987
D4:22:CD:00:05:6E,64.5750961303711,57.410274505615234,96.92650604248047,-6.08830451965332,3.0155091285705566,-13.277568817138672,1386.8373169898987
D4:22:CD:00:05:5E,-136.25575256347656,-80.55958557128906,-123.6572036743164,-1.636641263961792,0.07600289583206177,7.880144119262695,1386.8373169898987
D4:22:CD:00:05:5D,118.18106842041016,-79.52285766601562,-73.375,1.2622222900390625,0.10850167274475098,5.862181663513184,1386.8682301044464
D4:22:CD:00:05:6B,-38.00018310546875,-40.13549041748047,-54.87746810913086,2.5241994857788086,-4.415689468383789,5.881618499755859,1386.8682301044464
D4:22:CD:00:49:AA,-152.30958557128906,-74.67435455322266,81.25061798095703,3.7941975593566895,-1.8506286144256592,3.1364574432373047,1386.8682301044464
D4:22:CD:00:05:6E,51.356082916259766,48.57233810424805,76.98749542236328,-12.652507781982422,1.6321039199829102,-11.125772476196289,1386.8682301044464
D4:22:CD:00:05:5E,-116.1153793334961,-79.93064880371094,-141.86265563964844,-2.205432891845703,-2.319000720977783,4.57696533203125,1386.8682301044464
D4:22:CD:00:05:5D,134.0149383544922,-78.73654174804688,-89.0544662475586,-6.00942325592041,-12.758306503295898,15.137269973754883,1386.897288799286
D4:22:CD:00:05:6B,-38.162498474121094,-43.357357025146484,-52.18012237548828,4.167248725891113,-4.563658714294434,12.764532089233398,1386.897288799286
D4:22:CD:00:49:AA,-155.86557006835938,-73.1211166381836,84.96578979492188,-1.89921236038208,-1.7668087482452393,2.183340072631836,1386.897288799286
D4:22:CD:00:05:6E,43.73775863647461,35.090633392333984,65.91886138916016,-6.092951774597168,-6.54013729095459,-10.151033401489258,1386.897288799286
D4:22:CD:00:05:5E,-98.9673080444336,-77.65061950683594,-155.9444580078125,-6.177918434143066,-3.723259925842285,-1.2129745483398438,1386.897288799286
D4:22:CD:00:05:5D,152.847900390625,-76.3953628540039,-100.8935775756836,-3.816256523132324,10.878641128540039,1.134328842163086,1386.9570310115814
D4:22:CD:00:05:6B,-39.1823616027832,-44.643672943115234,-49.31304931640625,7.215513229370117,-4.99311637878418,2.9236221313476562,1386.9570310115814
D4:22:CD:00:49:AA,-161.19097900390625,-71.6238021850586,92.10192108154297,-8.285873413085938,-0.34123319387435913,-0.7261638641357422,1386.9570310115814
D4:22:CD:00:05:6E,42.372676849365234,19.44637680053711,59.21664810180664,-5.326299667358398,-7.910005569458008,-9.473718643188477,1386.9570310115814
D4:22:CD:00:05:5E,-88.69237518310547,-75.08704376220703,-156.27598571777344,-18.095088958740234,14.658205032348633,-1.9996271133422852,1386.9570310115814
D4:22:CD:00:05:5D,161.98365783691406,-75.00300598144531,-109.44271087646484,0.7369629144668579,-1.037724256515503,1.155045509338379,1386.9874200820923
D4:22:CD:00:05:6B,-47.5455207824707,-44.305641174316406,-44.73586654663086,1.0570769309997559,-6.13885498046875,-1.1661157608032227,1386.9874200820923
D4:22:CD:00:49:AA,-162.88217163085938,-69.6245346069336,98.726318359375,-6.1357421875,-3.0363335609436035,-2.2586774826049805,1386.9874200820923
D4:22:CD:00:05:6E,45.49568557739258,3.7777652740478516,51.742183685302734,1.1050586700439453,-4.258500099182129,-5.740950584411621,1386.9874200820923
D4:22:CD:00:05:5E,-94.44417572021484,-73.06795501708984,-140.01902770996094,-23.647869110107422,9.522520065307617,-1.9174513816833496,1386.9874200820923
D4:22:CD:00:05:5D,172.16224670410156,-74.19843292236328,-119.09246063232422,-0.3763962388038635,0.31361234188079834,0.5965242385864258,1387.0184280872345
D4:22:CD:00:05:6B,-54.122161865234375,-43.624664306640625,-41.039085388183594,-2.5816102027893066,-3.9068613052368164,-2.710313320159912,1387.0184280872345
D4:22:CD:00:49:AA,-164.15211486816406,-68.00963592529297,103.55663299560547,0.8869816064834595,2.944157600402832,1.4995155334472656,1387.0184280872345
D4:22:CD:00:05:6E,53.595787048339844,-8.696953773498535,41.85914993286133,9.912677764892578,-4.939262390136719,3.1529951095581055,1387.0184280872345
D4:22:CD:00:05:5E,-112.3314208984375,-69.67546081542969,-114.63326263427734,-16.731693267822266,3.2629055976867676,-2.13535213470459,1387.0184280872345
D4:22:CD:00:05:5D,-179.3909454345703,-73.62925720214844,-126.5430679321289,1.1563613414764404,0.26825082302093506,0.6892108917236328,1387.0475630760193
D4:22:CD:00:05:6B,-58.763675689697266,-44.110755920410156,-39.7889404296875,-2.351299285888672,-2.8120336532592773,-4.646476745605469,1387.0475630760193
D4:22:CD:00:49:AA,-168.08041381835938,-67.0673828125,106.69293975830078,2.114987850189209,0.9558911323547363,3.995560646057129,1387.0475630760193
D4:22:CD:00:05:6E,68.81929016113281,-17.76504135131836,34.631568908691406,18.97378921508789,-11.561315536499023,-4.9614362716674805,1387.0475630760193
D4:22:CD:00:05:5E,-130.83090209960938,-64.28916931152344,-92.3025131225586,-9.501195907592773,-0.7807700634002686,-6.5253143310546875,1387.0475630760193
D4:22:CD:00:05:5D,-174.1868133544922,-73.63423156738281,-131.38148498535156,0.16853278875350952,0.7852267026901245,1.056955337524414,1387.0777606964111
D4:22:CD:00:05:6B,-63.364524841308594,-45.35443115234375,-40.20082473754883,-5.564682960510254,-2.29085636138916,-0.39887428283691406,1387.0777606964111
D4:22:CD:00:49:AA,-171.50167846679688,-66.82257080078125,110.21003723144531,-6.72367000579834,1.3770990371704102,1.2072038650512695,1387.0777606964111
D4:22:CD:00:05:6E,92.18649291992188,-25.58672523498535,33.07905578613281,3.0238890647888184,1.2871367931365967,0.09885215759277344,1387.0777606964111
D4:22:CD:00:05:5E,-146.39892578125,-58.2704963684082,-75.55319213867188,-3.566652774810791,-2.68930721282959,-9.226455688476562,1387.0777606964111
D4:22:CD:00:05:5D,-169.0111083984375,-74.3618392944336,-137.12315368652344,-1.0496931076049805,1.077420711517334,0.7216434478759766,1387.107764005661
D4:22:CD:00:05:6B,-64.81707000732422,-45.70499801635742,-42.325260162353516,-4.700237274169922,1.2535998821258545,2.8537063598632812,1387.107764005661
D4:22:CD:00:49:AA,-173.9060516357422,-67.13336944580078,113.32549285888672,-5.703263282775879,0.28785139322280884,-1.137186050415039,1387.107764005661
D4:22:CD:00:05:6E,111.30097198486328,-33.272117614746094,34.30866241455078,-5.237301826477051,-1.2716281414031982,2.3732595443725586,1387.107764005661
D4:22:CD:00:05:5E,-160.0648956298828,-52.85651397705078,-63.39947509765625,0.8010809421539307,-1.4802124500274658,-10.345924377441406,1387.107764005661
D4:22:CD:00:05:5D,-162.84674072265625,-75.10079956054688,-143.9493865966797,-1.1855888366699219,-0.06140235811471939,0.29683780670166016,1387.1377778053284
D4:22:CD:00:05:6B,-63.84518814086914,-44.276023864746094,-45.98337936401367,-3.9958372116088867,0.4482043981552124,0.0035152435302734375,1387.1377778053284
D4:22:CD:00:49:AA,-176.97174072265625,-67.49664306640625,116.47940063476562,-0.11142142117023468,0.6794707775115967,-2.4854507446289062,1387.1377778053284
D4:22:CD:00:05:6E,121.42742156982422,-40.946842193603516,37.29541778564453,-8.397783279418945,-4.9735870361328125,8.016119003295898,1387.1377778053284
D4:22:CD:00:05:5E,-172.8328399658203,-49.29203796386719,-53.94733428955078,0.11656872928142548,-0.5004571676254272,-10.226016998291016,1387.1377778053284
D4:22:CD:00:05:5D,-157.89759826660156,-75.287841796875,-149.7502899169922,-0.6429812908172607,-2.115898609161377,-0.7438430786132812,1387.167313337326
D4:22:CD:00:05:6B,-61.17500686645508,-41.93505859375,-50.267799377441406,-1.7406933307647705,-0.742135763168335,-4.3690080642700195,1387.167313337326
D4:22:CD:00:49:AA,177.9468994140625,-68.03170013427734,120.53512573242188,1.5339977741241455,1.521310806274414,-4.7235565185546875,1387.167313337326
D4:22:CD:00:05:6E,121.8896484375,-48.83114242553711,42.012935638427734,-4.676462173461914,-1.0423262119293213,2.3538475036621094,1387.167313337326
D4:22:CD:00:05:5E,174.506591796875,-47.4229736328125,-45.116451263427734,3.1885857582092285,0.4887767434120178,-3.8054285049438477,1387.167313337326
D4:22:CD:00:05:5D,-157.80975341796875,-74.56718444824219,-150.19268798828125,-1.1165251731872559,-3.653991222381592,-1.190962791442871,1387.2283754348755
D4:22:CD:00:05:6B,-58.37297058105469,-38.941673278808594,-54.69334030151367,0.4466552734375,-0.6170992851257324,-6.302995681762695,1387.2283754348755
D4:22:CD:00:49:AA,170.5260772705078,-68.4420394897461,125.6416015625,1.033024549484253,1.044327974319458,-6.734769821166992,1387.2283754348755
D4:22:CD:00:05:6E,116.80646514892578,-58.28435516357422,50.030799865722656,-4.51350212097168,-0.34095919132232666,3.6292762756347656,1387.2283754348755
D4:22:CD:00:05:5E,166.5177459716797,-48.495445251464844,-36.82145690917969,10.204351425170898,-3.7197017669677734,-5.337187767028809,1387.2283754348755
D4:22:CD:00:05:5D,-165.23544311523438,-72.0857925415039,-140.83322143554688,-2.1749067306518555,-2.723043918609619,-1.9987893104553223,1387.25732254982
D4:22:CD:00:05:6B,-57.339542388916016,-34.988739013671875,-58.731781005859375,0.9558631181716919,-0.5193307399749756,-9.30133056640625,1387.25732254982
D4:22:CD:00:49:AA,161.86117553710938,-68.783203125,131.2683868408203,-0.5898289680480957,-0.8169610500335693,-5.885339736938477,1387.25732254982
D4:22:CD:00:05:6E,99.73285675048828,-68.70452880859375,65.45930480957031,-3.690946102142334,-4.074748992919922,7.462793350219727,1387.25732254982
D4:22:CD:00:05:5E,163.5923309326172,-52.066261291503906,-28.65193748474121,13.796382904052734,2.815609931945801,-1.361374855041504,1387.25732254982
D4:22:CD:00:05:5D,-173.42149353027344,-67.58719635009766,-129.86424255371094,-0.26629018783569336,-2.707984447479248,-0.4226264953613281,1387.2873229980469
D4:22:CD:00:05:6B,-59.797508239746094,-30.46268081665039,-61.84983444213867,1.2257883548736572,0.7189607620239258,-8.568159103393555,1387.2873229980469
D4:22:CD:00:49:AA,153.57949829101562,-69.69143676757812,138.08848571777344,-3.311655044555664,-2.3741445541381836,-6.125052452087402,1387.2873229980469
D4:22:CD:00:05:6E,61.42919158935547,-76.03378295898438,101.02972412109375,-2.292503833770752,1.6219103336334229,11.738178253173828,1387.2873229980469
D4:22:CD:00:05:5E,167.16232299804688,-53.07187271118164,-24.216856002807617,-8.052885055541992,8.852544784545898,25.662120819091797,1387.2873229980469
D4:22:CD:00:05:5D,-178.196533203125,-61.968360900878906,-122.69540405273438,1.6758170127868652,-1.8967642784118652,-2.1807308197021484,1387.317325592041
D4:22:CD:00:05:6B,-64.28959655761719,-25.772417068481445,-64.4907455444336,-2.075186252593994,1.805877447128296,0.41147422790527344,1387.317325592041
D4:22:CD:00:49:AA,144.71859741210938,-69.74040222167969,146.01556396484375,-0.0484408438205719,-0.5313057899475098,-2.154597759246826,1387.317325592041
D4:22:CD:00:05:6E,44.081024169921875,-77.57977294921875,126.73692321777344,-2.36726713180542,-2.4104933738708496,-0.6924991607666016,1387.317325592041
D4:22:CD:00:05:5E,166.4662628173828,-52.365962982177734,-24.080211639404297,7.946937561035156,-9.739776611328125,1.0953693389892578,1387.317325592041
