Device,EulerX,EulerY,EulerZ,FreeAccX,FreeAccY,FreeAccZ,Timestamp
D4:22:CD:00:05:5D,175.09312438964844,-61.3576545715332,-146.6021270751953,1.8464646339416504,-2.0414299964904785,0.7819576263427734,412.06996035575867
D4:22:CD:00:05:6B,-83.27438354492188,-13.890496253967285,-125.64380645751953,7.8178606033325195,-10.480695724487305,15.793577194213867,412.06996035575867
D4:22:CD:00:49:AA,148.6688690185547,-72.22395324707031,131.86593627929688,-3.703049659729004,-0.6950697898864746,7.041603088378906,412.06996035575867
D4:22:CD:00:05:6E,91.94366455078125,-42.16081619262695,-104.01627349853516,8.000383377075195,-12.361394882202148,-5.725253105163574,412.06996035575867
D4:22:CD:00:05:5E,176.12744140625,-62.13658142089844,-106.39593505859375,8.509895324707031,-9.272090911865234,-0.36832714080810547,412.06996035575867
D4:22:CD:00:05:5D,175.88168334960938,-61.338623046875,-142.6088409423828,2.2973642349243164,-1.663069725036621,0.9506311416625977,412.0820379257202
D4:22:CD:00:05:6B,-76.19453430175781,4.712368488311768,-123.93770599365234,1.4155564308166504,-12.954002380371094,14.175048828125,412.0820379257202
D4:22:CD:00:49:AA,147.11195373535156,-72.75975036621094,134.9901580810547,-5.414074897766113,3.0185656547546387,3.378872871398926,412.0820379257202
D4:22:CD:00:05:6E,89.236083984375,-49.01080322265625,-93.15819549560547,6.684571266174316,-1.143772840499878,-2.768960475921631,412.0820379257202
D4:22:CD:00:05:5E,-179.197509765625,-66.10144805908203,-112.03731536865234,7.843414306640625,-6.010897636413574,-4.947400093078613,412.0820379257202
D4:22:CD:00:05:5D,174.87733459472656,-62.306304931640625,-137.5325469970703,0.2771126627922058,2.125760078430176,1.2742061614990234,412.0922951698303
D4:22:CD:00:05:6B,-62.45780563354492,18.57533836364746,-121.38740539550781,-6.655542373657227,-2.7455673217773438,6.977397918701172,412.0922951698303
D4:22:CD:00:49:AA,150.83309936523438,-73.70794677734375,134.44677734375,-5.255500793457031,1.3499438762664795,2.647833824157715,412.0922951698303
D4:22:CD:00:05:6E,76.08951568603516,-60.02535629272461,-77.71949768066406,5.291225433349609,2.4177474975585938,2.66473388671875,412.0922951698303
D4:22:CD:00:05:5E,-169.78025817871094,-74.0765380859375,-120.42961120605469,4.124936103820801,-3.5388994216918945,-6.1334991455078125,412.0922951698303
D4:22:CD:00:49:AA,158.65853881835938,-74.4462890625,130.7184600830078,-0.5741783380508423,2.026124954223633,2.575617790222168,412.10355615615845
D4:22:CD:00:05:6E,54.126564025878906,-69.94951629638672,-52.00191116333008,9.268396377563477,15.170951843261719,6.73139762878418,412.10355615615845
D4:22:CD:00:05:5E,-138.61810302734375,-83.76451873779297,-150.95571899414062,-0.8029886484146118,2.31764554977417,-5.291553497314453,412.10355615615845
D4:22:CD:00:05:5D,-169.69447326660156,-61.31025695800781,-107.39875030517578,-2.3373169898986816,1.883382797241211,1.4927558898925781,412.1107623577118
D4:22:CD:00:05:6B,-79.00116729736328,-43.450687408447266,-62.58941650390625,0.28793179988861084,-1.5697283744812012,10.103824615478516,412.1107623577118
D4:22:CD:00:49:AA,122.06593322753906,-74.74156951904297,173.38807678222656,-4.4703569412231445,-1.4084882736206055,6.725170135498047,412.1107623577118
D4:22:CD:00:05:5D,-174.33444213867188,-59.368995666503906,-103.62609100341797,-1.0645625591278076,0.7965145111083984,1.2034664154052734,412.1354947090149
D4:22:CD:00:05:6B,-81.51605987548828,-37.053314208984375,-61.913604736328125,2.679060459136963,4.746355056762695,18.36899185180664,412.1354947090149
D4:22:CD:00:49:AA,164.1503143310547,-79.59480285644531,130.64663696289062,0.9429197311401367,1.8344240188598633,7.184759140014648,412.1354947090149
D4:22:CD:00:05:6E,133.07142639160156,-74.82447052001953,5.7523512840271,-1.4875240325927734,9.701923370361328,9.72928237915039,412.1354947090149
D4:22:CD:00:05:5E,130.32330322265625,-86.9155502319336,41.77131271362305,2.738504409790039,0.6431303024291992,8.97365951538086,412.1354947090149
D4:22:CD:00:05:5D,-176.4169921875,-59.15602493286133,-102.3304214477539,-0.07975634932518005,0.35499173402786255,0.9096040725708008,412.1645486354828
D4:22:CD:00:05:6B,-78.39178466796875,-25.394681930541992,-60.81768035888672,3.4906530380249023,-1.6640000343322754,15.450429916381836,412.1645486354828
D4:22:CD:00:49:AA,171.671142578125,-79.50997924804688,121.91194915771484,1.3641331195831299,-0.16365686058998108,5.613389015197754,412.1645486354828
D4:22:CD:00:05:6E,171.09805297851562,-73.68904876708984,-24.893949508666992,-7.70560359954834,8.326641082763672,5.697854995727539,412.1645486354828
D4:22:CD:00:05:5E,-156.1645965576172,-86.10343170166016,-31.63504981994629,-7.177609443664551,2.627720832824707,5.098328590393066,412.1645486354828
D4:22:CD:00:05:5D,-176.5377655029297,-59.92973327636719,-102.2835922241211,-0.10098381340503693,0.10555331408977509,0.8910131454467773,412.22462153434753
D4:22:CD:00:05:6B,-71.6178970336914,-13.156916618347168,-57.78569412231445,15.963022232055664,-2.961322784423828,22.352333068847656,412.22462153434753
D4:22:CD:00:49:AA,171.69337463378906,-79.29935455322266,120.65462493896484,-2.2805886268615723,1.3224842548370361,5.5483856201171875,412.22462153434753
D4:22:CD:00:05:6E,-156.8648223876953,-58.90778732299805,-47.89215850830078,-2.403691291809082,10.424152374267578,-1.3853721618652344,412.22462153434753
D4:22:CD:00:05:5E,-142.7830352783203,-77.13081359863281,-43.70804214477539,-0.12291832268238068,6.368208885192871,2.3920669555664062,412.22462153434753
D4:22:CD:00:05:5D,-175.0634765625,-61.22429275512695,-102.25995635986328,1.1187684535980225,0.28158706426620483,0.8905925750732422,412.2545893192291
D4:22:CD:00:05:6B,-59.59075927734375,-1.7325332164764404,-55.40193557739258,14.455892562866211,-7.521814346313477,10.52932357788086,412.2545893192291
D4:22:CD:00:49:AA,176.29112243652344,-80.69126892089844,115.66383361816406,-3.3016653060913086,-0.17670440673828125,2.6013002395629883,412.2545893192291
D4:22:CD:00:05:6E,-133.71876525878906,-43.73247146606445,-67.85025024414062,-6.800939559936523,2.8358964920043945,-2.335681438446045,412.2545893192291
D4:22:CD:00:05:5E,-119.53579711914062,-71.17355346679688,-66.11076354980469,-0.7950699329376221,2.643542766571045,-3.0910019874572754,412.2545893192291
D4:22:CD:00:05:5D,-173.4255828857422,-63.33517074584961,-102.13667297363281,-0.5194411277770996,0.3889341950416565,0.6360740661621094,412.28486132621765
D4:22:CD:00:05:6B,-49.1824836730957,6.725930690765381,-53.504661560058594,9.124422073364258,-6.689787864685059,6.496559143066406,412.28486132621765
D4:22:CD:00:49:AA,-171.7615966796875,-81.29464721679688,104.7407455444336,-1.0783381462097168,0.24245744943618774,0.17859172821044922,412.28486132621765
D4:22:CD:00:05:6E,-123.26718139648438,-28.7989501953125,-82.27433013916016,-4.547703742980957,-13.83798599243164,-8.247661590576172,412.28486132621765
D4:22:CD:00:05:5E,-101.02007293701172,-66.68672943115234,-84.48464965820312,0.18091782927513123,0.9524914026260376,-6.768805503845215,412.28486132621765
D4:22:CD:00:05:5D,-172.2010955810547,-66.30550384521484,-103.21105194091797,-2.713046073913574,0.5386052131652832,0.6163082122802734,412.31437969207764
D4:22:CD:00:05:6B,-35.817115783691406,12.380172729492188,-52.767425537109375,-7.538553237915039,-10.344558715820312,1.9008331298828125,412.31437969207764
D4:22:CD:00:49:AA,-158.8950958251953,-81.36043548583984,93.26667022705078,0.1853523552417755,0.3329024314880371,0.8530454635620117,412.31437969207764
D4:22:CD:00:05:6E,-113.57798767089844,-18.359996795654297,-95.09178161621094,-10.21259880065918,-27.82845687866211,-10.07746696472168,412.31437969207764
D4:22:CD:00:05:5E,-82.63825988769531,-62.57322311401367,-103.71620178222656,-1.2906336784362793,-1.6093907356262207,-7.742608070373535,412.31437969207764
D4:22:CD:00:05:5D,-170.95773315429688,-69.72296905517578,-105.83222198486328,-0.6260935068130493,-0.5152451992034912,-0.1347208023071289,412.3449685573578
D4:22:CD:00:05:6B,-22.696147918701172,16.396333694458008,-52.615142822265625,-15.577648162841797,-4.633297920227051,-11.421445846557617,412.3449685573578
D4:22:CD:00:49:AA,-148.1910858154297,-81.91463470458984,83.38189697265625,1.184598684310913,0.18522417545318604,-1.3752012252807617,412.3449685573578
D4:22:CD:00:05:6E,-103.09980010986328,-12.492868423461914,-103.8836441040039,-12.052793502807617,-23.34830093383789,-9.471107482910156,412.3449685573578
D4:22:CD:00:05:5E,-66.44625854492188,-57.81955337524414,-122.73686218261719,-5.833423614501953,-4.582098960876465,-8.712087631225586,412.3449685573578
D4:22:CD:00:05:5D,-169.70535278320312,-73.09944152832031,-108.97737884521484,1.6645221710205078,-1.645646095275879,-0.7678756713867188,412.37455439567566
D4:22:CD:00:05:6B,-19.537425994873047,20.65998077392578,-51.475120544433594,-4.541581153869629,2.728766918182373,-11.145387649536133,412.37455439567566
D4:22:CD:00:49:AA,-139.8746337890625,-82.54618072509766,74.98368835449219,1.7793824672698975,0.9096704721450806,-4.446226119995117,412.37455439567566
D4:22:CD:00:05:6E,-88.22673797607422,-13.796199798583984,-105.94418334960938,-5.390045166015625,-14.278539657592773,-17.346904754638672,412.37455439567566
D4:22:CD:00:05:5E,-56.82426071166992,-52.775089263916016,-138.93853759765625,-12.856849670410156,-4.226815223693848,-8.653364181518555,412.37455439567566
D4:22:CD:00:05:5D,-169.66201782226562,-76.0243148803711,-111.47594451904297,1.307166337966919,-2.6986865997314453,-1.1391630172729492,412.4047005176544
D4:22:CD:00:05:6B,-17.47730827331543,27.406373977661133,-52.09255599975586,-1.313612937927246,-6.9278669357299805,-8.080465316772461,412.4047005176544
D4:22:CD:00:49:AA,-135.18121337890625,-82.86260223388672,69.27285766601562,-0.24448537826538086,0.2792399525642395,-4.934126853942871,412.4047005176544
D4:22:CD:00:05:6E,-76.31280517578125,-21.173198699951172,-104.50894165039062,-3.3076062202453613,-11.014068603515625,-20.48743438720703,412.4047005176544
D4:22:CD:00:05:5E,-54.92306900024414,-49.243614196777344,-150.73080444335938,-19.81863784790039,-4.942253112792969,-9.888153076171875,412.4047005176544
D4:22:CD:00:05:5D,-172.39138793945312,-77.90894317626953,-111.08074951171875,0.47523611783981323,-3.239436626434326,-1.4047164916992188,412.43457198143005
D4:22:CD:00:05:6B,-11.675153732299805,33.88499069213867,-58.06355667114258,1.0188548564910889,5.589785575866699,-16.666969299316406,412.43457198143005
D4:22:CD:00:49:AA,-132.29443359375,-83.23743438720703,65.29437255859375,-2.225351333618164,-1.3749868869781494,-4.730655670166016,412.43457198143005
D4:22:CD:00:05:6E,-73.57489776611328,-29.335161209106445,-102.96269226074219,-1.484116554260254,-8.02073860168457,-13.34880256652832,412.43457198143005
D4:22:CD:00:05:5E,-58.49125289916992,-48.89267349243164,-156.90829467773438,-18.56201934814453,3.912358283996582,-14.856157302856445,412.43457198143005
D4:22:CD:00:05:5D,-179.08253479003906,-78.10940551757812,-106.02044677734375,1.4368374347686768,-5.257261276245117,-1.8662257194519043,412.4935972690582
D4:22:CD:00:05:6B,-14.825533866882324,38.73089599609375,-67.53994750976562,4.597211837768555,2.5313878059387207,-13.596708297729492,412.4935972690582
D4:22:CD:00:49:AA,-132.8221435546875,-83.80328369140625,64.50675201416016,-1.7974581718444824,-1.3173096179962158,-5.19528865814209,412.4935972690582
D4:22:CD:00:05:6E,-74.39895629882812,-36.32556915283203,-101.40840911865234,-0.21042990684509277,-5.8615875244140625,-11.381206512451172,412.4935972690582
D4:22:CD:00:05:5E,-65.96488952636719,-52.00324249267578,-156.5247802734375,-15.436565399169922,5.856372833251953,-16.474124908447266,412.4935972690582
D4:22:CD:00:05:5D,174.30722045898438,-76.51752471923828,-98.6739501953125,-0.6123901605606079,-2.654128074645996,-0.9504070281982422,412.5247220993042
D4:22:CD:00:05:6B,-23.203603744506836,42.208919525146484,-83.2765121459961,-3.2686147689819336,-3.2821364402770996,-18.0513916015625,412.5247220993042
D4:22:CD:00:49:AA,-138.28358459472656,-84.43437194824219,67.00555419921875,-1.129411220550537,-2.829497814178467,-4.242308616638184,412.5247220993042
D4:22:CD:00:05:6E,-74.81204986572266,-41.372779846191406,-99.83264923095703,1.3150789737701416,-5.426241874694824,-10.149637222290039,412.5247220993042
D4:22:CD:00:05:5E,-78.06558990478516,-56.529441833496094,-146.82017517089844,-11.554174423217773,-2.758812427520752,-4.876191139221191,412.5247220993042
D4:22:CD:00:05:5D,168.6233367919922,-74.01158905029297,-92.93238830566406,0.017705578356981277,-0.2576214671134949,-0.2542839050292969,412.55486249923706
D4:22:CD:00:05:6B,-34.514156341552734,40.696006774902344,-103.99172973632812,-11.769710540771484,-11.15882682800293,-21.436206817626953,412.55486249923706
D4:22:CD:00:49:AA,-145.4326171875,-84.82498168945312,71.0695571899414,-2.0143847465515137,-3.641064167022705,-3.0677590370178223,412.55486249923706
D4:22:CD:00:05:6E,-75.00756072998047,-44.01749038696289,-98.00958251953125,2.3913702964782715,-8.445320129394531,-10.581243515014648,412.55486249923706
D4:22:CD:00:05:5E,-87.60968780517578,-60.03192138671875,-135.9644317626953,0.29427671432495117,-15.573116302490234,1.0728578567504883,412.55486249923706
D4:22:CD:00:05:5D,163.03143310546875,-72.42340850830078,-87.10346221923828,-0.4609981179237366,4.131940841674805,0.9552755355834961,412.5846457481384
D4:22:CD:00:05:6B,-36.021484375,36.423240661621094,-119.384033203125,-2.800732135772705,-3.742877960205078,-17.692047119140625,412.5846457481384
D4:22:CD:00:49:AA,-145.63516235351562,-84.60504913330078,69.78211975097656,-2.544865608215332,-1.4913427829742432,1.189774513244629,412.5846457481384
D4:22:CD:00:05:6E,-78.24327087402344,-45.29451370239258,-96.13722229003906,3.124272346496582,-9.697835922241211,-10.24789810180664,412.5846457481384
D4:22:CD:00:05:5E,-91.5595932006836,-63.885746002197266,-127.56697845458984,-8.263761520385742,-10.89657974243164,4.1086883544921875,412.5846457481384
D4:22:CD:00:05:5D,156.12644958496094,-72.3176040649414,-80.11705017089844,1.17171049118042,0.27633506059646606,1.884613037109375,412.6146812438965
D4:22:CD:00:05:6B,-44.99031448364258,36.85824966430664,-112.52250671386719,-4.726789474487305,11.52003288269043,-3.806363582611084,412.6146812438965
D4:22:CD:00:49:AA,-139.2108612060547,-84.6556625366211,64.30665588378906,-2.1566319465637207,-0.5300287008285522,4.312777519226074,412.6146812438965
D4:22:CD:00:05:6E,-87.9151840209961,-46.88332748413086,-93.18199157714844,0.481393039226532,-12.058441162109375,-6.443164825439453,412.6146812438965
D4:22:CD:00:05:5E,-107.84112548828125,-64.77429962158203,-113.56913757324219,-1.8293390274047852,-11.958051681518555,1.2773475646972656,412.6146812438965
D4:22:CD:00:05:5D,146.5915069580078,-73.38198852539062,-70.94163513183594,-1.3043785095214844,2.3730673789978027,2.8016653060913086,412.6445803642273
D4:22:CD:00:05:6B,-40.796142578125,39.908451080322266,-94.05573272705078,-14.660133361816406,-21.467365264892578,-5.305334091186523,412.6445803642273
D4:22:CD:00:49:AA,-148.74412536621094,-82.8935317993164,73.92247772216797,1.9155573844909668,-1.3101603984832764,6.582695007324219,412.6445803642273
D4:22:CD:00:05:6E,-105.43455505371094,-48.52775192260742,-88.3632583618164,-1.5547587871551514,-14.21043586730957,0.9915666580200195,412.6445803642273
D4:22:CD:00:05:5E,-119.98409271240234,-65.53631591796875,-104.21700286865234,-0.3364008665084839,9.9400634765625,0.606475830078125,412.6445803642273
D4:22:CD:00:05:5D,133.60604858398438,-75.2551498413086,-59.41835021972656,1.4441659450531006,0.6432557106018066,3.2003631591796875,412.6745879650116
D4:22:CD:00:05:6B,-30.058048248291016,39.245872497558594,-75.68311309814453,-5.312259674072266,-6.956647872924805,-4.919050216674805,412.6745879650116
D4:22:CD:00:49:AA,-148.0391387939453,-81.32780456542969,71.91571807861328,3.1112208366394043,-1.7897918224334717,4.745124816894531,412.6745879650116
D4:22:CD:00:05:6E,-123.07893371582031,-50.221466064453125,-84.87635040283203,7.531911849975586,-8.342435836791992,8.243322372436523,412.6745879650116
D4:22:CD:00:05:5E,-124.6287841796875,-67.26883697509766,-99.6912612915039,-7.237180709838867,-8.07864761352539,0.17019176483154297,412.6745879650116
D4:22:CD:00:05:5D,110.22847747802734,-78.25652313232422,-41.6660270690918,5.687590599060059,1.8045310974121094,0.3144207000732422,412.7046687602997
D4:22:CD:00:05:6B,-24.052927017211914,36.39072799682617,-61.9173583984375,-4.276800155639648,1.8507177829742432,4.343758583068848,412.7046687602997
D4:22:CD:00:49:AA,-139.91305541992188,-81.28968048095703,64.57108306884766,4.390659332275391,5.140608787536621,-3.7624034881591797,412.7046687602997
D4:22:CD:00:05:6E,-127.6922836303711,-53.472232818603516,-84.57556915283203,5.332554817199707,-0.9727952480316162,4.637067794799805,412.7046687602997
D4:22:CD:00:05:5E,-128.6922607421875,-68.96759033203125,-96.15277099609375,-4.011744499206543,-1.8338696956634521,-0.145477294921875,412.7046687602997
D4:22:CD:00:05:5D,103.67825317382812,-78.58568572998047,-42.98017501831055,9.508687973022461,24.883338928222656,1.0308599472045898,412.73467469215393
D4:22:CD:00:05:6B,-21.400001525878906,31.854089736938477,-51.27602005004883,-4.793037414550781,11.000003814697266,-0.10246467590332031,412.73467469215393
D4:22:CD:00:49:AA,-145.22030639648438,-79.0422592163086,70.31626892089844,3.891906261444092,0.7320222854614258,1.5082645416259766,412.73467469215393
D4:22:CD:00:05:6E,-125.33499908447266,-56.91184997558594,-85.03385925292969,-3.463245391845703,-1.8438911437988281,2.573345184326172,412.73467469215393
D4:22:CD:00:05:5E,-132.26686096191406,-70.5009765625,-93.55130004882812,-3.077054977416992,-1.8378360271453857,-0.2095775604248047,412.73467469215393
D4:22:CD:00:05:5D,128.0629425048828,-72.11315155029297,-73.75531005859375,19.750274658203125,14.32723617553711,6.249408721923828,412.76468682289124
D4:22:CD:00:05:6B,-24.466028213500977,24.500530242919922,-41.33385467529297,-8.056510925292969,9.556528091430664,0.9000978469848633,412.76468682289124
D4:22:CD:00:49:AA,-141.49525451660156,-78.71884155273438,67.60832977294922,2.8861083984375,-0.17505556344985962,1.3595218658447266,412.76468682289124
D4:22:CD:00:05:6E,-124.32782745361328,-59.3243522644043,-86.0987777709961,-5.341889381408691,-1.204876184463501,2.116183280944824,412.76468682289124
D4:22:CD:00:05:5E,-133.51138305664062,-71.95850372314453,-92.54025268554688,-3.7591676712036133,-2.0874505043029785,-0.7210664749145508,412.76468682289124
D4:22:CD:00:05:5D,145.0799102783203,-58.773929595947266,-90.38754272460938,4.069655418395996,3.9288859367370605,5.2246856689453125,412.8247983455658
D4:22:CD:00:05:6B,-26.73082733154297,15.265459060668945,-31.678691864013672,1.9328269958496094,10.043153762817383,-4.143726348876953,412.8247983455658
D4:22:CD:00:49:AA,-138.92222595214844,-78.9411849975586,66.6429443359375,6.00593376159668,2.245358467102051,-0.6261224746704102,412.8247983455658
D4:22:CD:00:05:6E,-121.25039672851562,-61.018409729003906,-87.73543548583984,-5.196681976318359,-0.7850271463394165,1.7521438598632812,412.8247983455658
D4:22:CD:00:05:5E,-134.6248779296875,-73.16474914550781,-92.06541442871094,-3.0762038230895996,-2.4724698066711426,-1.0145597457885742,412.8247983455658
D4:22:CD:00:05:5D,152.58917236328125,-45.1405029296875,-97.240234375,-0.7522618770599365,-1.4896619319915771,-3.1702980995178223,412.85454845428467
D4:22:CD:00:05:6B,-38.668243408203125,6.059206008911133,-24.71963882446289,7.632939338684082,19.033992767333984,-20.441619873046875,412.85454845428467
D4:22:CD:00:49:AA,-135.9791259765625,-79.76461029052734,64.2489242553711,7.075876235961914,1.2243785858154297,2.4550161361694336,412.85454845428467
D4:22:CD:00:05:6E,-116.41826629638672,-62.11089324951172,-88.82371520996094,-5.282217979431152,-1.1138460636138916,-1.2988405227661133,412.85454845428467
D4:22:CD:00:05:5E,-135.41009521484375,-73.9512710571289,-91.53010559082031,-2.871037006378174,-2.6065406799316406,-1.2400360107421875,412.85454845428467
D4:22:CD:00:05:5D,156.46890258789062,-33.78923797607422,-101.04914855957031,-3.0160274505615234,-3.379140853881836,-7.896032333374023,412.88485407829285
D4:22:CD:00:05:6B,-60.21245574951172,-3.1136791706085205,-19.816247940063477,-0.7622146606445312,-8.598413467407227,4.76982307434082,412.88485407829285
D4:22:CD:00:49:AA,-129.69961547851562,-81.9693603515625,58.166412353515625,1.8709092140197754,1.2348339557647705,-0.3945627212524414,412.88485407829285
D4:22:CD:00:05:6E,-112.1537094116211,-62.664669036865234,-89.06720733642578,-3.8583154678344727,-2.5740628242492676,-2.1403732299804688,412.88485407829285
D4:22:CD:00:05:5E,-136.67515563964844,-73.95198822021484,-90.34371948242188,-2.660994529724121,-3.0678443908691406,-2.022067070007324,412.88485407829285
D4:22:CD:00:05:5D,159.8218994140625,-26.194910049438477,-103.10771179199219,-3.6499948501586914,-4.157862663269043,-12.929557800292969,412.91439867019653
D4:22:CD:00:05:6B,-64.23091888427734,-12.577370643615723,-15.598712921142578,-4.260787010192871,-0.7897108793258667,5.147481918334961,412.91439867019653
D4:22:CD:00:49:AA,-122.95307922363281,-83.60895538330078,52.063350677490234,1.1629531383514404,1.0853180885314941,-5.5011186599731445,412.91439867019653
D4:22:CD:00:05:6E,-107.84416198730469,-63.12812805175781,-89.24288177490234,-2.616957664489746,-4.358381271362305,-3.7412071228027344,412.91439867019653
D4:22:CD:00:05:5E,-139.3257598876953,-73.13042449951172,-87.56707763671875,-2.2287397384643555,-2.9113245010375977,-2.1715927124023438,412.91439867019653
D4:22:CD:00:05:5D,163.19168090820312,-23.508567810058594,-104.72434997558594,-2.813925266265869,-4.955071449279785,-14.781339645385742,412.94475197792053
D4:22:CD:00:05:6B,-60.184757232666016,-22.17035484313965,-10.519124031066895,-0.8235181570053101,-1.3423583507537842,-4.321534156799316,412.94475197792053
D4:22:CD:00:49:AA,-119.41472625732422,-84.0291976928711,49.49318313598633,2.277463912963867,1.8119511604309082,-6.635071754455566,412.94475197792053
D4:22:CD:00:05:6E,-103.81352233886719,-63.98862838745117,-89.77538299560547,-1.0185742378234863,-4.33248233795166,-5.074785232543945,412.94475197792053
D4:22:CD:00:05:5E,-142.3491668701172,-71.44900512695312,-83.8744125366211,-2.3913073539733887,-2.3370399475097656,-1.0553779602050781,412.94475197792053
D4:22:CD:00:05:5D,165.66940307617188,-26.788955688476562,-107.37153625488281,-6.697596549987793,-10.822601318359375,-15.7362060546875,412.9751675128937
D4:22:CD:00:05:6B,-66.9743423461914,-29.892688751220703,-2.626239776611328,0.7230989933013916,0.6980773210525513,-7.376206398010254,412.9751675128937
D4:22:CD:00:49:AA,-127.9403305053711,-83.99671936035156,59.087982177734375,3.2983903884887695,2.595780849456787,-3.756239414215088,412.9751675128937
D4:22:CD:00:05:6E,-99.16910552978516,-65.50621032714844,-90.82183074951172,-0.2481195330619812,-4.426018714904785,-5.3828887939453125,412.9751675128937
D4:22:CD:00:05:5E,-144.57533264160156,-69.00501251220703,-80.69435119628906,-4.682744026184082,-3.9328742027282715,-2.335193157196045,412.9751675128937
D4:22:CD:00:05:5D,164.94859313964844,-30.40489387512207,-111.79364013671875,-12.71611213684082,-0.2752276062965393,18.522945404052734,413.00449419021606
D4:22:CD:00:05:6B,-81.86844635009766,-36.85053253173828,5.6734747886657715,-1.2932865619659424,-0.05047351121902466,5.623736381530762,413.00449419021606
D4:22:CD:00:49:AA,-135.81961059570312,-83.67343139648438,67.49837493896484,2.088460922241211,0.4416268467903137,-3.8572611808776855,413.00449419021606
D4:22:CD:00:05:6E,-93.49694061279297,-67.33292388916016,-92.35029602050781,-0.7292752265930176,-5.292352676391602,-5.342711448669434,413.00449419021606
D4:22:CD:00:05:5E,-146.19215393066406,-66.12229919433594,-79.28268432617188,-4.550305366516113,-2.1270341873168945,-0.8151512145996094,413.00449419021606
D4:22:CD:00:05:5D,164.2178955078125,-32.85170364379883,-113.53147888183594,-12.42424201965332,-13.72712516784668,-4.402467727661133,413.0350453853607
D4:22:CD:00:05:6B,-83.62548828125,-47.868221282958984,11.067206382751465,0.16492319107055664,0.8546750545501709,10.503557205200195,413.0350453853607
D4:22:CD:00:49:AA,-138.8551025390625,-82.79105377197266,70.29596710205078,3.225050926208496,0.7791084051132202,-2.1380014419555664,413.0350453853607
D4:22:CD:00:05:6E,-89.21754455566406,-68.43594360351562,-94.25257110595703,-0.8296948671340942,-7.27485466003418,-6.06951904296875,413.0350453853607
D4:22:CD:00:05:5E,-146.9356689453125,-63.334083557128906,-79.40640258789062,-3.375180244445801,-1.6752333641052246,-0.144500732421875,413.0350453853607
D4:22:CD:00:05:5D,168.14657592773438,-34.551273345947266,-114.11424255371094,-12.067543029785156,-9.92361831665039,5.939064979553223,413.06419348716736
D4:22:CD:00:05:6B,-74.90242004394531,-62.70487976074219,11.846797943115234,21.461753845214844,10.004449844360352,31.31613540649414,413.06419348716736
D4:22:CD:00:49:AA,-146.1026153564453,-81.43429565429688,75.68244171142578,2.045851230621338,1.3944578170776367,3.9771947860717773,413.06419348716736
D4:22:CD:00:05:6E,-87.43607330322266,-67.7693862915039,-96.53144073486328,1.0318150520324707,-9.266952514648438,-2.640885829925537,413.06419348716736
D4:22:CD:00:05:5E,-147.81427001953125,-61.28980255126953,-79.5438003540039,-2.6580333709716797,-0.9566932916641235,1.0155258178710938,413.06419348716736
D4:22:CD:00:05:5D,169.3237762451172,-33.767669677734375,-112.86795806884766,-10.10809326171875,-10.372245788574219,8.58047866821289,413.1245367527008
D4:22:CD:00:05:6B,-68.22754669189453,-65.62487030029297,6.302075386047363,29.536014556884766,-2.1951236724853516,10.56191635131836,413.1245367527008
D4:22:CD:00:49:AA,-153.14511108398438,-80.6559066772461,80.79192352294922,-3.9869542121887207,-2.908019542694092,5.270307540893555,413.1245367527008
D4:22:CD:00:05:6E,-83.97476196289062,-65.47762298583984,-100.43151092529297,2.7252273559570312,-13.002769470214844,2.2235355377197266,413.1245367527008
D4:22:CD:00:05:5E,-148.70982360839844,-60.524105072021484,-79.07797241210938,-2.079662322998047,-0.378675639629364,1.3281269073486328,413.1245367527008
D4:22:CD:00:05:5D,167.56979370117188,-30.7041015625,-111.58175659179688,-6.333854675292969,-14.386434555053711,8.999107360839844,413.15505266189575
D4:22:CD:00:05:6B,-81.55830383300781,-53.944419860839844,10.138273239135742,12.711894989013672,1.258148193359375,17.90926742553711,413.15505266189575
D4:22:CD:00:49:AA,-158.20767211914062,-80.95582580566406,85.10831451416016,0.4896663427352905,2.9630966186523438,5.569551467895508,413.15505266189575
D4:22:CD:00:05:6E,-77.6407241821289,-64.01383972167969,-105.52035522460938,3.4864964485168457,-13.024789810180664,4.346661567687988,413.15505266189575
D4:22:CD:00:05:5E,-149.7749786376953,-60.90537643432617,-78.07843017578125,-2.933619499206543,-0.7242705821990967,0.9607534408569336,413.15505266189575
D4:22:CD:00:05:5D,163.95657348632812,-27.411991119384766,-110.91533660888672,-5.441004753112793,-14.807899475097656,1.9554738998413086,413.18505334854126
D4:22:CD:00:05:6B,-85.359375,-43.181758880615234,8.197052001953125,9.31974983215332,-1.2005062103271484,10.28611946105957,413.18505334854126
D4:22:CD:00:49:AA,-165.00909423828125,-80.33626556396484,90.65078735351562,3.9471383094787598,2.074388027191162,3.9393367767333984,413.18505334854126
D4:22:CD:00:05:6E,-66.93673706054688,-68.74193572998047,-113.98252868652344,5.27281379699707,-21.951248168945312,7.606168746948242,413.18505334854126
D4:22:CD:00:05:5E,-150.5235595703125,-62.09971237182617,-77.41793060302734,-3.625220775604248,-1.7502379417419434,0.09920597076416016,413.18505334854126
D4:22:CD:00:05:5D,161.67417907714844,-25.786195755004883,-111.1250991821289,-1.5999906063079834,-9.678741455078125,-1.405630111694336,413.2145438194275
D4:22:CD:00:05:6B,-84.5289306640625,-35.96342086791992,2.1836187839508057,7.006600379943848,-3.411562919616699,-1.6264476776123047,413.2145438194275
D4:22:CD:00:49:AA,-170.09893798828125,-80.68013000488281,94.72937774658203,2.5576043128967285,2.3194432258605957,2.481832504272461,413.2145438194275
D4:22:CD:00:05:6E,-35.55598831176758,-78.47151184082031,-147.033447265625,4.164983749389648,-24.817554473876953,17.44831085205078,413.2145438194275
D4:22:CD:00:05:5E,-150.50729370117188,-63.924285888671875,-77.78555297851562,-3.5304770469665527,-1.33455491065979,0.7753257751464844,413.2145438194275
D4:22:CD:00:05:5D,160.7476806640625,-25.572460174560547,-112.14383697509766,-2.224355697631836,-3.2711567878723145,1.7963323593139648,413.24470710754395
D4:22:CD:00:05:6B,-84.34793090820312,-32.687255859375,-6.442599296569824,1.4192516803741455,-3.8371810913085938,-4.0139007568359375,413.24470710754395
D4:22:CD:00:49:AA,-176.45181274414062,-79.9098129272461,100.20922088623047,1.3988699913024902,2.270725727081299,2.329113006591797,413.24470710754395
D4:22:CD:00:05:6E,53.56585693359375,-75.29924011230469,126.64112091064453,0.4659503102302551,-23.0101318359375,16.49341583251953,413.24470710754395
D4:22:CD:00:05:5E,-149.22457885742188,-66.71741485595703,-79.37042236328125,-3.186279296875,-1.3250439167022705,1.3465232849121094,413.24470710754395
D4:22:CD:00:05:5D,158.144775390625,-28.751251220703125,-113.20844268798828,-5.375177383422852,-1.1162827014923096,-4.984988212585449,413.27499198913574
D4:22:CD:00:05:6B,-85.07073974609375,-34.2994270324707,-15.757076263427734,-3.2779064178466797,-2.5303282737731934,-4.02168083190918,413.27499198913574
D4:22:CD:00:49:AA,177.5496063232422,-79.08088684082031,105.69747161865234,2.8460073471069336,1.613539695739746,2.331602096557617,413.27499198913574
D4:22:CD:00:05:6E,78.49873352050781,-57.49972152709961,102.26903533935547,-0.9524140357971191,-14.759763717651367,15.645181655883789,413.27499198913574
D4:22:CD:00:05:5E,-146.00344848632812,-70.4154281616211,-82.39925384521484,-3.789386749267578,-2.919315814971924,1.417470932006836,413.27499198913574
D4:22:CD:00:05:5D,154.99624633789062,-34.61014175415039,-113.50975036621094,-4.364567756652832,-0.3773481845855713,-7.312503814697266,413.30419921875
D4:22:CD:00:05:6B,-85.11027526855469,-40.42376708984375,-24.800548553466797,-5.035621643066406,-0.5798876285552979,-2.891946792602539,413.30419921875
D4:22:CD:00:49:AA,172.82290649414062,-78.72216033935547,110.41832733154297,1.346670389175415,1.6634807586669922,1.0885238647460938,413.30419921875
D4:22:CD:00:05:6E,80.54046630859375,-39.32180404663086,94.42719268798828,-6.234776496887207,0.07687325775623322,6.471956253051758,413.30419921875
D4:22:CD:00:05:5E,-140.12686157226562,-74.15718841552734,-87.05867004394531,-2.756439208984375,-5.308605194091797,1.300095558166504,413.30419921875
D4:22:CD:00:05:5D,152.49331665039062,-42.550575256347656,-113.14164733886719,-4.779823303222656,-0.3790050745010376,-7.036184310913086,413.3343622684479
D4:22:CD:00:05:6B,-83.6004638671875,-48.75559997558594,-33.481658935546875,-5.0793914794921875,1.4158523082733154,-3.629411220550537,413.3343622684479
D4:22:CD:00:49:AA,169.62997436523438,-78.5780258178711,113.8695068359375,0.4345428943634033,0.01092207245528698,-1.881418228149414,413.3343622684479
D4:22:CD:00:05:6E,79.53732299804688,-24.361202239990234,88.45838165283203,-6.779010772705078,2.7692880630493164,-5.864710807800293,413.3343622684479
D4:22:CD:00:05:5E,-130.59922790527344,-77.18952178955078,-93.90179443359375,-2.0814318656921387,-2.5199551582336426,-1.245835304260254,413.3343622684479
D4:22:CD:00:05:5D,149.6776580810547,-52.56819152832031,-111.11225891113281,-3.9056739807128906,-1.10227632522583,-4.515199661254883,413.36472272872925
D4:22:CD:00:05:6B,-80.8970947265625,-57.70871353149414,-41.52052307128906,-4.623857498168945,1.9885077476501465,-4.377004623413086,413.36472272872925
D4:22:CD:00:49:AA,167.84556579589844,-78.4505615234375,116.55380249023438,1.7008914947509766,-0.019074708223342896,-1.951035499572754,413.36472272872925
D4:22:CD:00:05:6E,75.71986389160156,-13.368308067321777,82.88688659667969,-7.083914756774902,0.6371688842773438,-5.32757568359375,413.36472272872925
D4:22:CD:00:05:5E,-117.39502716064453,-78.91123962402344,-104.77458953857422,-3.0218491554260254,-1.3947944641113281,-2.9952964782714844,413.36472272872925
D4:22:CD:00:05:5D,145.3840789794922,-64.21063995361328,-105.48148345947266,0.47462302446365356,-3.370452880859375,-0.6633024215698242,413.42498087882996
D4:22:CD:00:05:6B,-77.69341278076172,-66.7037353515625,-48.94046401977539,-3.6292686462402344,2.7926278114318848,-5.0353899002075195,413.42498087882996
D4:22:CD:00:49:AA,166.93991088867188,-78.5760269165039,118.83332824707031,3.4328598976135254,0.902804970741272,-1.382521629333496,413.42498087882996
D4:22:CD:00:05:6E,65.72640991210938,-5.228338241577148,78.69584655761719,-6.025688171386719,2.0752310752868652,-7.102267265319824,413.42498087882996
D4:22:CD:00:05:5E,-103.65055084228516,-79.35477447509766,-117.52005767822266,-3.8821206092834473,-1.381981611251831,-3.589132308959961,413.42498087882996
D4:22:CD:00:05:5D,135.32481384277344,-76.212890625,-89.13958740234375,3.976954460144043,-2.798163890838623,5.155739784240723,413.45449328422546
D4:22:CD:00:05:6B,-72.97665405273438,-75.49921417236328,-57.471378326416016,-2.2901926040649414,3.4137001037597656,-5.568960189819336,413.45449328422546
D4:22:CD:00:49:AA,164.86732482910156,-79.5644760131836,121.41954803466797,3.440748691558838,1.3975121974945068,-4.281111717224121,413.45449328422546
D4:22:CD:00:05:6E,52.71431350708008,1.0951014757156372,77.01888275146484,-2.9722471237182617,0.5530672073364258,-12.33879280090332,413.45449328422546
D4:22:CD:00:05:5E,-93.13716888427734,-78.82207489013672,-127.80773162841797,-3.458864212036133,-1.2550694942474365,-4.406917572021484,413.45449328422546
D4:22:CD:00:05:5D,87.83528900146484,-82.13818359375,-31.033794403076172,9.818937301635742,9.962217330932617,6.425676345825195,413.48449516296387
D4:22:CD:00:05:6B,-57.68717575073242,-83.7948989868164,-76.37367248535156,-1.1623809337615967,3.727205753326416,-5.242799758911133,413.48449516296387
D4:22:CD:00:49:AA,161.9964141845703,-80.78398895263672,124.16136932373047,1.7204570770263672,0.6750404834747314,-5.18514347076416,413.48449516296387
D4:22:CD:00:05:6E,40.912845611572266,5.183573246002197,78.06935119628906,-2.1220736503601074,-0.6554861068725586,-15.165271759033203,413.48449516296387
D4:22:CD:00:05:5E,-87.90312194824219,-77.81404113769531,-133.02725219726562,-2.630984306335449,-1.3321881294250488,-3.7350778579711914,413.48449516296387
D4:22:CD:00:05:5D,61.91822052001953,-78.98324584960938,5.195545196533203,7.41831111907959,13.978158950805664,-8.579397201538086,413.5145013332367
D4:22:CD:00:05:6B,51.745208740234375,-85.73180389404297,171.28216552734375,0.14869940280914307,3.749992847442627,-3.7272000312805176,413.5145013332367
D4:22:CD:00:49:AA,160.15890502929688,-82.0869140625,127.12879943847656,0.2367382049560547,-0.44768184423446655,-5.077781677246094,413.5145013332367
D4:22:CD:00:05:6E,32.60346984863281,7.428576946258545,82.94893646240234,6.778850555419922,-2.3829407691955566,-9.713409423828125,413.5145013332367
D4:22:CD:00:05:5E,-88.1563949584961,-76.47600555419922,-133.2866973876953,-1.4701499938964844,-1.096785068511963,-2.703381061553955,413.5145013332367
D4:22:CD:00:05:5D,73.34645080566406,-77.2393798828125,1.2649195194244385,2.481788158416748,21.03406524658203,-10.913131713867188,413.545184135437
D4:22:CD:00:05:6B,78.58319854736328,-78.25179290771484,141.0605010986328,-1.4167535305023193,4.813602447509766,-2.2416529655456543,413.545184135437
D4:22:CD:00:49:AA,162.91368103027344,-83.39152526855469,126.66012573242188,2.0706305503845215,0.36801236867904663,-5.113831520080566,413.545184135437
D4:22:CD:00:05:6E,28.75201988220215,10.109794616699219,93.13472747802734,1.200869083404541,1.5906774997711182,-7.450235366821289,413.545184135437
D4:22:CD:00:05:5E,-92.05290222167969,-74.57381439208984,-130.91734313964844,-3.1586380004882812,-2.8635220527648926,0.04471874237060547,413.545184135437
D4:22:CD:00:05:5D,97.21544647216797,-76.12299346923828,-20.97377586364746,7.173609733581543,2.981706142425537,1.3515853881835938,413.57461500167847
D4:22:CD:00:05:6B,83.8703842163086,-70.74270629882812,132.30313110351562,-3.0990304946899414,7.308225631713867,-0.10785961151123047,413.57461500167847
D4:22:CD:00:49:AA,169.52113342285156,-83.531005859375,122.2921371459961,3.221107006072998,-1.32492995262146,-0.905817985534668,413.57461500167847
D4:22:CD:00:05:6E,20.3934326171875,13.920780181884766,109.10480499267578,-11.080629348754883,9.730447769165039,-10.299560546875,413.57461500167847
D4:22:CD:00:05:5E,-92.44857025146484,-72.55598449707031,-131.1951141357422,-4.857625961303711,-4.345083236694336,0.7658281326293945,413.57461500167847
D4:22:CD:00:05:5D,113.88228607177734,-75.30780792236328,-39.22692108154297,7.805395126342773,-3.476916790008545,2.4379396438598633,413.60473585128784
D4:22:CD:00:05:6B,87.48297119140625,-64.28590393066406,127.99700927734375,-3.934370994567871,10.708314895629883,1.521254539489746,413.60473585128784
D4:22:CD:00:49:AA,169.290771484375,-83.56946563720703,124.34329223632812,1.8283498287200928,0.6251817941665649,2.6811742782592773,413.60473585128784
D4:22:CD:00:05:6E,12.623720169067383,18.689712524414062,124.41880798339844,-2.5010037422180176,19.075450897216797,-10.923774719238281,413.60473585128784
D4:22:CD:00:05:5E,-88.47562408447266,-70.51639556884766,-134.43699645996094,-2.6391067504882812,-3.364954948425293,3.598125457763672,413.60473585128784
D4:22:CD:00:05:5D,128.634521484375,-73.98516845703125,-55.47341537475586,0.15041929483413696,-2.218348979949951,4.383052825927734,413.63500022888184
D4:22:CD:00:05:6B,92.08614349365234,-61.533836364746094,125.45915985107422,-5.007205963134766,9.341196060180664,2.688338279724121,413.63500022888184
D4:22:CD:00:49:AA,168.68357849121094,-83.39936065673828,125.59712982177734,6.20413875579834,-0.12939509749412537,2.023740768432617,413.63500022888184
D4:22:CD:00:05:6E,31.8338565826416,22.67225456237793,125.0633316040039,16.03302001953125,-1.291811227798462,-7.104483604431152,413.63500022888184
D4:22:CD:00:05:5E,-83.93447875976562,-68.24832916259766,-137.63165283203125,-1.7559864521026611,-4.173208236694336,2.74208927154541,413.63500022888184
D4:22:CD:00:05:5D,138.74232482910156,-72.40886688232422,-67.46455383300781,-5.734536170959473,-4.649436950683594,7.485206604003906,413.664999961853
D4:22:CD:00:05:6B,96.00834655761719,-63.86942672729492,123.60246276855469,-2.2599105834960938,8.335159301757812,4.415319442749023,413.664999961853
D4:22:CD:00:49:AA,171.36293029785156,-82.18048858642578,123.24269104003906,3.7665653228759766,-0.2859867215156555,2.221188545227051,413.664999961853
D4:22:CD:00:05:6E,50.48176956176758,26.303672790527344,119.0896224975586,-22.54336166381836,-9.5220947265625,1.0734024047851562,413.664999961853
D4:22:CD:00:05:5E,-74.17195129394531,-66.16412353515625,-142.69993591308594,-1.9273123741149902,-6.937164306640625,3.540562629699707,413.664999961853
D4:22:CD:00:05:5D,148.6551513671875,-70.3451156616211,-74.22274017333984,-5.1740007400512695,2.267636299133301,2.6925477981567383,413.72449922561646
D4:22:CD:00:05:6B,100.52531433105469,-68.52560424804688,122.29644012451172,-1.7528553009033203,9.387248992919922,3.6877708435058594,413.72449922561646
D4:22:CD:00:49:AA,171.4258575439453,-81.29951477050781,124.59716033935547,-2.2933554649353027,-1.8812754154205322,4.803890228271484,413.72449922561646
D4:22:CD:00:05:6E,47.13555145263672,28.503576278686523,107.6595230102539,-0.9029788970947266,3.255758285522461,-13.022838592529297,413.72449922561646
D4:22:CD:00:05:5E,-65.36808776855469,-63.601985931396484,-143.83175659179688,-8.2645263671875,-6.696467399597168,-2.036311626434326,413.72449922561646
D4:22:CD:00:05:5D,156.34857177734375,-69.70854187011719,-79.62816619873047,-1.1313796043395996,4.292387008666992,-2.172574996948242,413.75462460517883
D4:22:CD:00:05:6B,108.91381072998047,-72.93993377685547,123.19941711425781,-0.5031371116638184,5.24822998046875,-1.2427339553833008,413.75462460517883
D4:22:CD:00:49:AA,169.6973419189453,-80.80833435058594,127.85630798339844,-5.78767204284668,-0.7476539611816406,-2.0007247924804688,413.75462460517883
D4:22:CD:00:05:6E,51.914371490478516,28.660938262939453,90.5792007446289,-16.15930938720703,1.2021684646606445,-8.038293838500977,413.75462460517883
D4:22:CD:00:05:5E,-62.58805847167969,-62.18843460083008,-138.51023864746094,-28.360454559326172,1.7297234535217285,-9.237497329711914,413.75462460517883
D4:22:CD:00:05:5D,163.29476928710938,-69.67655181884766,-86.63394165039062,5.9651031494140625,-0.12115553021430969,1.382049560546875,413.784850358963
D4:22:CD:00:05:6B,114.67884826660156,-74.20953369140625,131.62818908691406,9.14299201965332,-12.231876373291016,-1.8612394332885742,413.784850358963
D4:22:CD:00:49:AA,172.29046630859375,-78.89395904541016,127.964111328125,-5.133894920349121,0.042887888848781586,-4.3556060791015625,413.784850358963
D4:22:CD:00:05:6E,50.66781234741211,24.90102195739746,72.91969299316406,-8.238407135009766,0.8506590127944946,-4.341955184936523,413.784850358963
D4:22:CD:00:05:5E,-70.47848510742188,-62.47479248046875,-123.12175750732422,-21.08087158203125,-1.2111082077026367,-2.2875680923461914,413.784850358963
D4:22:CD:00:05:5D,168.7838134765625,-69.03623962402344,-93.6615982055664,3.5655665397644043,-3.7109336853027344,-0.6374149322509766,413.8144736289978
D4:22:CD:00:05:6B,119.42939758300781,-74.20616149902344,137.2904510498047,1.720386266708374,-10.339374542236328,2.072896957397461,413.8144736289978
D4:22:CD:00:49:AA,174.884033203125,-76.8071060180664,126.87299346923828,1.475114345550537,-0.7655436992645264,1.2252445220947266,413.8144736289978
D4:22:CD:00:05:6E,49.717987060546875,18.393959045410156,56.75276565551758,2.7273473739624023,-9.96403694152832,-3.7193350791931152,413.8144736289978
D4:22:CD:00:05:5E,-86.51287841796875,-61.60106658935547,-101.19522857666016,-13.805421829223633,-4.46671199798584,-1.6995820999145508,413.8144736289978
D4:22:CD:00:05:5D,172.94866943359375,-67.76407623291016,-96.08921813964844,5.079423904418945,-0.033213578164577484,0.16327571868896484,413.8449239730835
D4:22:CD:00:05:6B,117.36154174804688,-75.71690368652344,139.8543243408203,-4.113600730895996,-4.614767074584961,4.181615829467773,413.8449239730835
D4:22:CD:00:49:AA,172.52806091308594,-75.89786529541016,128.1687469482422,0.6421459913253784,0.5391181707382202,2.033574104309082,413.8449239730835
D4:22:CD:00:05:6E,56.34294509887695,11.327849388122559,42.2020263671875,2.952735424041748,-10.7685546875,-6.138324737548828,413.8449239730835
D4:22:CD:00:05:5E,-104.75914001464844,-58.24178695678711,-79.92315673828125,-6.1298322677612305,-4.500215530395508,-4.379363059997559,413.8449239730835
D4:22:CD:00:05:5D,175.42318725585938,-66.87820434570312,-95.45230865478516,1.4467089176177979,0.5301077365875244,0.5968561172485352,413.87466979026794
D4:22:CD:00:05:6B,112.15779113769531,-78.36650085449219,142.75587463378906,-8.555648803710938,-2.715682029724121,1.6915569305419922,413.87466979026794
D4:22:CD:00:49:AA,170.7451934814453,-75.6224594116211,129.44676208496094,-5.025667190551758,-0.8624414205551147,1.3443498611450195,413.87466979026794
D4:22:CD:00:05:6E,64.13102722167969,4.1806840896606445,28.76612091064453,8.065513610839844,-10.759838104248047,-3.2643656730651855,413.87466979026794
D4:22:CD:00:05:5E,-121.2137680053711,-53.277103424072266,-63.174503326416016,-0.9163781404495239,-2.05747127532959,-6.587080955505371,413.87466979026794
D4:22:CD:00:05:5D,176.25262451171875,-66.5186767578125,-94.14070129394531,-2.0961709022521973,1.2507827281951904,0.8733301162719727,413.9046440124512
D4:22:CD:00:05:6B,108.70161437988281,-81.28990936279297,145.2265167236328,-4.866354942321777,-1.9055259227752686,-0.45067787170410156,413.9046440124512
D4:22:CD:00:49:AA,173.01365661621094,-75.82533264160156,127.92111206054688,-5.473674774169922,-1.1705265045166016,1.9689607620239258,413.9046440124512
D4:22:CD:00:05:6E,74.85625457763672,-3.1142334938049316,18.96714210510254,14.114643096923828,-18.967945098876953,-14.988945007324219,413.9046440124512
D4:22:CD:00:05:5E,-135.22462463378906,-48.27073669433594,-51.17382049560547,1.6250834465026855,0.22482624650001526,-8.60836410522461,413.9046440124512
D4:22:CD:00:05:5D,177.11280822753906,-66.81963348388672,-94.10448455810547,-1.571227788925171,0.7390040159225464,1.0013561248779297,413.934148311615
D4:22:CD:00:05:6B,102.31352233886719,-84.15035247802734,148.8188018798828,-2.184868812561035,-1.6851978302001953,-1.3798437118530273,413.934148311615
D4:22:CD:00:49:AA,175.76588439941406,-76.35372924804688,126.57315826416016,-2.7546801567077637,0.0898226946592331,2.684054374694824,413.934148311615
D4:22:CD:00:05:6E,93.41165924072266,-10.615530967712402,13.242450714111328,1.9872996807098389,-0.9313939809799194,-5.712674140930176,413.934148311615
D4:22:CD:00:05:5E,-147.42945861816406,-45.004905700683594,-42.59372329711914,1.0508723258972168,0.6954994201660156,-8.224245071411133,413.934148311615
D4:22:CD:00:05:5D,177.8961944580078,-67.62191772460938,-95.05390930175781,-0.2281993329524994,0.17943575978279114,0.23437213897705078,413.96515369415283
D4:22:CD:00:05:6B,85.64787292480469,-86.4200210571289,159.65036010742188,-1.3379099369049072,0.2630198001861572,-1.7289915084838867,413.96515369415283
D4:22:CD:00:49:AA,174.28433227539062,-77.28474426269531,128.81884765625,-0.41663306951522827,2.2105913162231445,0.6002779006958008,413.96515369415283
D4:22:CD:00:05:6E,105.04930114746094,-17.43389320373535,8.60305118560791,-6.277050971984863,-1.131033182144165,2.5403623580932617,413.96515369415283
D4:22:CD:00:05:5E,-157.95294189453125,-44.462371826171875,-35.55912399291992,2.719829559326172,1.0157999992370605,-4.992704391479492,413.96515369415283
D4:22:CD:00:05:5D,178.44117736816406,-68.04291534423828,-95.24161529541016,0.7306627035140991,-0.4856196641921997,-0.18073654174804688,414.02479672431946
D4:22:CD:00:05:6B,46.291683197021484,-87.19091033935547,-166.3886260986328,-3.858365058898926,4.614473342895508,-1.805251121520996,414.02479672431946
D4:22:CD:00:49:AA,169.38233947753906,-78.1666259765625,132.89132690429688,-0.3255468010902405,1.4046757221221924,-1.7496604919433594,414.02479672431946
D4:22:CD:00:05:6E,107.05939483642578,-24.375368118286133,3.902543544769287,-4.026349067687988,-1.0367097854614258,-3.244494915008545,414.02479672431946
D4:22:CD:00:05:5E,-163.94381713867188,-47.7449951171875,-29.557992935180664,8.177602767944336,0.6785323619842529,-3.39670467376709,414.02479672431946
D4:22:CD:00:05:5D,178.41661071777344,-67.99048614501953,-94.7552490234375,-0.21747049689292908,-0.6248338222503662,-0.3063182830810547,414.0547149181366
D4:22:CD:00:05:6B,7.447932243347168,-86.1444091796875,-128.5670623779297,-4.716529846191406,6.018937110900879,-2.2966017723083496,414.0547149181366
D4:22:CD:00:49:AA,162.61117553710938,-79.05520629882812,138.42886352539062,-1.0187866687774658,-0.16572868824005127,-2.733119010925293,414.0547149181366
D4:22:CD:00:05:6E,110.64414978027344,-33.016021728515625,-1.3669079542160034,4.01589298248291,-2.075273036956787,-6.667970657348633,414.0547149181366
D4:22:CD:00:05:5E,-165.39039611816406,-53.84033203125,-25.130226135253906,5.94428825378418,1.97597074508667,4.160086631774902,414.0547149181366
D4:22:CD:00:05:5D,177.8904571533203,-67.26129150390625,-94.14240264892578,0.3708897829055786,-1.2082231044769287,-0.708709716796875,414.0845875740051
D4:22:CD:00:05:6B,-24.06052589416504,-83.80147552490234,-95.69795227050781,-3.0830583572387695,4.894583702087402,-0.5887823104858398,414.0845875740051
D4:22:CD:00:49:AA,153.65109252929688,-79.62813568115234,146.13706970214844,-0.04644911736249924,1.1089138984680176,-4.618681907653809,414.0845875740051
D4:22:CD:00:05:6E,119.66397094726562,-44.79627990722656,-6.8533935546875,10.626201629638672,-3.4399185180664062,7.201087951660156,414.0845875740051
D4:22:CD:00:05:5E,-161.92379760742188,-55.144290924072266,-24.254512786865234,10.664386749267578,-2.708380699157715,15.168378829956055,414.0845875740051
D4:22:CD:00:05:5D,176.92138671875,-65.70270538330078,-92.32970428466797,1.0551936626434326,-0.5875338315963745,-1.1431589126586914,414.1145873069763
D4:22:CD:00:05:6B,-38.2703742980957,-78.6758041381836,-79.55669403076172,-0.5035674571990967,5.242785453796387,1.9444046020507812,414.1145873069763
D4:22:CD:00:49:AA,145.01455688476562,-79.37218475341797,152.04507446289062,3.4438319206237793,0.9098271131515503,-6.916787147521973,414.1145873069763
D4:22:CD:00:05:6E,128.62962341308594,-58.63225555419922,-14.763588905334473,12.834932327270508,-5.687894821166992,20.791732788085938,414.1145873069763
D4:22:CD:00:05:5E,-163.17324829101562,-54.963687896728516,-25.937164306640625,5.074049949645996,-3.1029129028320312,2.9453201293945312,414.1145873069763
D4:22:CD:00:05:5D,176.14236450195312,-63.89990234375,-90.86634826660156,-0.5938681364059448,0.17234927415847778,0.011140823364257812,414.14409923553467
D4:22:CD:00:05:6B,-37.79545593261719,-72.28040313720703,-80.00164794921875,3.470212459564209,1.1413295269012451,0.7358846664428711,414.14409923553467
D4:22:CD:00:49:AA,140.40643310546875,-78.34162902832031,153.6173553466797,0.10535551607608795,-1.4344837665557861,-0.5619173049926758,414.14409923553467
D4:22:CD:00:05:6E,136.60247802734375,-68.0855941772461,-23.43431854248047,8.273332595825195,-7.841012001037598,14.03860855102539,414.14409923553467
D4:22:CD:00:05:5E,-167.38568115234375,-52.9697380065918,-27.48676109313965,12.329402923583984,-0.4465906023979187,9.89520263671875,414.14409923553467
D4:22:CD:00:05:5D,176.63137817382812,-62.21491622924805,-91.60868072509766,-3.563392162322998,0.5040650367736816,0.971522331237793,414.17410111427307
D4:22:CD:00:05:6B,-42.44666290283203,-64.85106658935547,-78.9254150390625,-6.991812705993652,4.2082719802856445,2.998495101928711,414.17410111427307
D4:22:CD:00:49:AA,139.86061096191406,-77.40074920654297,151.97348022460938,-1.1514766216278076,0.6201974153518677,2.765218734741211,414.17410111427307
D4:22:CD:00:05:6E,145.51365661621094,-67.94064331054688,-29.910255432128906,17.934932708740234,-4.852221488952637,1.7448434829711914,414.17410111427307
D4:22:CD:00:05:5E,-166.1890411376953,-50.189266204833984,-30.051071166992188,10.149576187133789,-5.4905290603637695,10.390308380126953,414.17410111427307
D4:22:CD:00:05:5D,178.3283233642578,-61.06835174560547,-94.36764526367188,-0.7216106653213501,1.1220574378967285,1.1040573120117188,414.204549074173
D4:22:CD:00:05:6B,-49.256126403808594,-57.16643142700195,-73.26811218261719,-5.369056701660156,6.394130706787109,5.2392473220825195,414.204549074173
D4:22:CD:00:49:AA,140.59457397460938,-76.1702880859375,148.85975646972656,-1.1926727294921875,0.09867136180400848,3.927520751953125,414.204549074173
D4:22:CD:00:05:6E,158.2489471435547,-67.08007049560547,-32.56684875488281,10.560401916503906,1.333390712738037,5.8936309814453125,414.204549074173
D4:22:CD:00:05:5E,-163.4952850341797,-47.90229415893555,-31.91547393798828,11.03141975402832,-5.312986373901367,8.829025268554688,414.204549074173
D4:22:CD:00:05:5D,179.9950408935547,-60.83542251586914,-97.74156188964844,1.2710750102996826,0.7629210948944092,0.8455953598022461,414.2343108654022
D4:22:CD:00:05:6B,-55.86067581176758,-49.34304428100586,-64.58696746826172,-4.963890075683594,6.829699516296387,7.569969177246094,414.2343108654022
D4:22:CD:00:49:AA,144.11270141601562,-74.56461334228516,143.4119873046875,-2.411263942718506,-1.6441307067871094,6.244688034057617,414.2343108654022
D4:22:CD:00:05:6E,172.97012329101562,-67.93283081054688,-38.31096267700195,6.4512481689453125,0.31326746940612793,9.54163932800293,414.2343108654022
D4:22:CD:00:05:5E,-161.5439453125,-46.39809799194336,-34.79507064819336,4.046772003173828,-2.637826919555664,3.075122833251953,414.2343108654022
D4:22:CD:00:05:5D,-178.5664825439453,-61.2845573425293,-100.07716369628906,1.5696148872375488,0.9584753513336182,1.1230688095092773,414.2643208503723
D4:22:CD:00:05:6B,-60.79327392578125,-40.6323127746582,-55.0145263671875,0.1725778579711914,5.810369491577148,10.092487335205078,414.2643208503723
D4:22:CD:00:49:AA,148.11538696289062,-74.0567398071289,138.32008361816406,-1.9665687084197998,-0.40842366218566895,5.77358341217041,414.2643208503723
D4:22:CD:00:05:6E,-170.19468688964844,-68.73790740966797,-49.714569091796875,1.9432237148284912,0.2762150764465332,10.033926010131836,414.2643208503723
D4:22:CD:00:05:5E,-161.8427276611328,-44.585052490234375,-37.847957611083984,3.6447229385375977,0.3382142186164856,4.215432167053223,414.2643208503723
