Device,EulerX,EulerY,EulerZ,FreeAccX,FreeAccY,FreeAccZ,Timestamp
D4:22:CD:00:05:5D,171.3156280517578,-67.63397979736328,45.36400604248047,-3.7538652420043945,-2.2708325386047363,-5.244948387145996,1543.8498747348785
D4:22:CD:00:05:6B,2.163379430770874,65.11910247802734,-79.01492309570312,1.6722357273101807,1.7195391654968262,-15.81226921081543,1543.8498747348785
D4:22:CD:00:49:AA,168.25473022460938,-79.75727081298828,116.17486572265625,0.5554077625274658,-0.37478750944137573,-4.585461616516113,1543.8498747348785
D4:22:CD:00:05:6E,39.185848236083984,-60.91563034057617,123.6381607055664,0.7909716367721558,-3.3459839820861816,-9.706193923950195,1543.8498747348785
D4:22:CD:00:05:5E,-72.89244079589844,-57.969661712646484,-156.12249755859375,-26.35470962524414,23.780742645263672,-16.299663543701172,1543.8498747348785
D4:22:CD:00:05:5D,171.34400939941406,-66.18480682373047,49.85238265991211,5.8779401779174805,-1.430866003036499,2.3559579849243164,1543.8598864078522
D4:22:CD:00:05:6B,-24.9016170501709,62.4731330871582,-112.8856201171875,-5.416471481323242,-1.1611528396606445,-21.652801513671875,1543.8598864078522
D4:22:CD:00:49:AA,169.0033416748047,-81.02666473388672,118.28521728515625,-2.0604634284973145,0.7258075475692749,-1.377908706665039,1543.8598864078522
D4:22:CD:00:05:6E,42.7766227722168,-56.8000602722168,117.19757843017578,0.5145717859268188,-1.2382006645202637,-7.194489479064941,1543.8598864078522
D4:22:CD:00:05:5E,-79.44341278076172,-60.51311492919922,-146.8377227783203,-0.526340126991272,-8.404085159301758,1.8292007446289062,1543.8598864078522
D4:22:CD:00:05:5D,170.19093322753906,-65.59674835205078,54.32373809814453,4.154794692993164,-0.3806527256965637,2.3195133209228516,1543.8658826351166
D4:22:CD:00:05:6B,-38.57054138183594,52.633567810058594,-134.8805389404297,-14.69559097290039,-6.205644607543945,-23.519737243652344,1543.8658826351166
D4:22:CD:00:49:AA,170.15586853027344,-81.30703735351562,117.84471130371094,-2.490354537963867,1.1589970588684082,2.303140640258789,1543.8658826351166
D4:22:CD:00:05:6E,43.863975524902344,-52.992008209228516,114.94438171386719,-0.976699948310852,-0.2250736951828003,-5.407840728759766,1543.8658826351166
D4:22:CD:00:05:5E,-86.78953552246094,-62.675933837890625,-138.69737243652344,-7.570809364318848,-13.37187385559082,3.7935009002685547,1543.8658826351166
D4:22:CD:00:05:6B,-42.56300735473633,48.54948806762695,-140.7952880859375,16.16944122314453,10.36067008972168,-13.376543045043945,1543.8712265491486
D4:22:CD:00:49:AA,166.9972381591797,-80.33763885498047,117.894287109375,0.021107222884893417,-0.8459808826446533,2.083383560180664,1543.8712265491486
D4:22:CD:00:05:6E,43.389923095703125,-50.975830078125,117.29936218261719,-1.4762139320373535,-1.0108578205108643,-5.190306663513184,1543.8712265491486
D4:22:CD:00:05:5E,-97.37532043457031,-63.01421356201172,-130.26583862304688,-0.6348323822021484,-0.5859495401382446,10.073171615600586,1543.8712265491486
D4:22:CD:00:05:5D,-162.345703125,-73.69293975830078,1.6168380975723267,-5.405013084411621,-2.395803928375244,-2.561367988586426,1543.8742277622223
D4:22:CD:00:05:6B,-83.19808197021484,-15.012847900390625,-94.14063262939453,6.503396034240723,6.54608154296875,15.322093963623047,1543.8742277622223
D4:22:CD:00:49:AA,-89.9891586303711,-74.21539306640625,0.7951146960258484,7.171063423156738,-3.722982883453369,-2.000545024871826,1543.8742277622223
D4:22:CD:00:05:5D,-177.93585205078125,-63.21896743774414,20.133153915405273,-7.453116416931152,0.4901905059814453,-0.14879894256591797,1543.916425704956
D4:22:CD:00:05:6B,-73.75806427001953,9.27344799041748,-94.69215393066406,11.761144638061523,-1.8164267539978027,23.323837280273438,1543.916425704956
D4:22:CD:00:49:AA,172.042724609375,-84.24456024169922,97.44052124023438,5.098100662231445,-0.09763224422931671,11.542959213256836,1543.916425704956
D4:22:CD:00:05:6E,-25.006532669067383,-82.39212036132812,95.58631134033203,8.335308074951172,-11.008956909179688,18.757251739501953,1543.916425704956
D4:22:CD:00:05:5E,148.96588134765625,-73.26493072509766,27.31461524963379,-0.8635923862457275,-0.5902297496795654,23.463912963867188,1543.916425704956
D4:22:CD:00:05:5D,-178.3603057861328,-55.77635192871094,21.846275329589844,-1.47637939453125,-2.4372200965881348,1.8939571380615234,1543.9464435577393
D4:22:CD:00:05:6B,-51.18465805053711,25.10321617126465,-84.23306274414062,4.599697113037109,-9.483037948608398,25.800724029541016,1543.9464435577393
D4:22:CD:00:49:AA,128.66168212890625,-77.1526107788086,139.34571838378906,-2.655827522277832,-3.6355981826782227,15.713781356811523,1543.9464435577393
D4:22:CD:00:05:6E,-63.32965850830078,-64.09708404541016,129.51881408691406,-9.181915283203125,0.5066676139831543,12.114677429199219,1543.9464435577393
D4:22:CD:00:05:5E,136.36233520507812,-71.31371307373047,48.6989860534668,11.417251586914062,3.6937403678894043,12.377519607543945,1543.9464435577393
D4:22:CD:00:05:5D,-178.1180877685547,-52.47316360473633,22.800615310668945,-1.4006714820861816,-2.2986483573913574,3.1302547454833984,1543.9764466285706
D4:22:CD:00:05:6B,-21.77378273010254,29.912181854248047,-65.8987045288086,-1.2640190124511719,-20.356769561767578,19.878429412841797,1543.9764466285706
D4:22:CD:00:49:AA,134.14389038085938,-74.874267578125,134.0367431640625,-2.022641181945801,0.024320442229509354,8.248451232910156,1543.9764466285706
D4:22:CD:00:05:6E,-58.57255554199219,-60.29188537597656,121.7944564819336,-10.679519653320312,10.255979537963867,12.679317474365234,1543.9764466285706
D4:22:CD:00:05:5E,123.74530792236328,-76.9658432006836,60.8712272644043,-2.674988269805908,4.608659744262695,12.63947868347168,1543.9764466285706
D4:22:CD:00:05:5D,-177.8863983154297,-52.16285705566406,23.73728370666504,-0.5025521516799927,-3.178119659423828,2.8578100204467773,1544.0363955497742
D4:22:CD:00:05:6B,3.922457695007324,25.966808319091797,-48.21009063720703,-4.401663780212402,-19.71753692626953,7.699865341186523,1544.0363955497742
D4:22:CD:00:49:AA,142.86663818359375,-74.57296752929688,125.80345153808594,-3.395275115966797,2.006232738494873,8.464410781860352,1544.0363955497742
D4:22:CD:00:05:6E,-38.22666549682617,-71.84075164794922,99.705810546875,-8.903701782226562,10.027099609375,10.060039520263672,1544.0363955497742
D4:22:CD:00:05:5E,111.45087432861328,-81.02503967285156,71.46080017089844,-0.09267981350421906,10.025861740112305,4.521350860595703,1544.0363955497742
D4:22:CD:00:05:5D,-177.24795532226562,-54.29327392578125,23.847370147705078,-0.2756672501564026,-2.175328254699707,2.965989112854004,1544.0666637420654
D4:22:CD:00:05:6B,22.097763061523438,20.992467880249023,-36.359798431396484,-1.4017658233642578,-16.93292999267578,3.1266393661499023,1544.0666637420654
D4:22:CD:00:49:AA,154.41751098632812,-75.4499740600586,115.81454467773438,-3.3839821815490723,2.2205371856689453,4.460355758666992,1544.0666637420654
D4:22:CD:00:05:6E,13.56214714050293,-74.72470092773438,50.60744094848633,-4.382059097290039,6.029759407043457,4.0948591232299805,1544.0666637420654
D4:22:CD:00:05:5E,38.51031494140625,-84.46678161621094,143.95474243164062,-4.282942771911621,6.7399396896362305,0.10371017456054688,1544.0666637420654
D4:22:CD:00:05:5D,-176.18296813964844,-58.90812683105469,23.86304473876953,-0.4728119373321533,-1.5392370223999023,4.005566596984863,1544.0962069034576
D4:22:CD:00:05:6B,33.98214340209961,20.636877059936523,-30.062166213989258,1.4930706024169922,-12.195154190063477,-0.43074893951416016,1544.0962069034576
D4:22:CD:00:49:AA,171.1371612548828,-76.0826644897461,102.78155517578125,-3.4452567100524902,2.029273509979248,-1.1432790756225586,1544.0962069034576
D4:22:CD:00:05:6E,41.20528793334961,-68.87919616699219,29.6241397857666,-4.752179145812988,3.997379779815674,-0.9746007919311523,1544.0962069034576
D4:22:CD:00:05:5E,-3.4541876316070557,-76.74562072753906,-174.94302368164062,-8.92044448852539,1.2587313652038574,-10.25269889831543,1544.0962069034576
D4:22:CD:00:05:5D,-174.8883819580078,-65.62520599365234,24.85505485534668,5.799776077270508,-1.9187448024749756,7.569393157958984,1544.1265933513641
D4:22:CD:00:05:6B,38.674015045166016,23.64534568786621,-25.779054641723633,-1.557819128036499,-8.694490432739258,-6.469831466674805,1544.1265933513641
D4:22:CD:00:49:AA,-170.28289794921875,-75.08673095703125,89.60665130615234,-2.41389799118042,0.8542425632476807,-4.642307281494141,1544.1265933513641
D4:22:CD:00:05:6E,51.21944808959961,-63.30872344970703,27.999034881591797,-2.6341514587402344,1.1921005249023438,-5.486666679382324,1544.1265933513641
D4:22:CD:00:05:5E,-8.92175579071045,-69.1922607421875,-171.37966918945312,-11.647228240966797,7.384310722351074,-17.080787658691406,1544.1265933513641
D4:22:CD:00:05:5D,-173.0799560546875,-73.4188461303711,23.811141967773438,8.482851028442383,7.977039337158203,5.948534965515137,1544.1565911769867
D4:22:CD:00:05:6B,34.4298210144043,28.190635681152344,-22.833030700683594,-2.6133809089660645,-1.6655864715576172,-11.274127960205078,1544.1565911769867
D4:22:CD:00:49:AA,-158.893310546875,-72.59699249267578,82.10247802734375,5.983856201171875,2.7508955001831055,-7.085048675537109,1544.1565911769867
D4:22:CD:00:05:6E,55.473655700683594,-60.02712631225586,33.48029327392578,-1.3258142471313477,0.13308262825012207,-8.28042221069336,1544.1565911769867
D4:22:CD:00:05:5E,-13.755720138549805,-62.95368194580078,-168.7820587158203,-8.708244323730469,8.62187385559082,-17.107097625732422,1544.1565911769867
D4:22:CD:00:05:5D,-172.48025512695312,-79.22727966308594,17.665325164794922,-3.189955234527588,3.3292040824890137,-8.677715301513672,1544.1868793964386
D4:22:CD:00:05:6B,24.327253341674805,34.03471755981445,-22.773353576660156,-2.058227062225342,-2.6982316970825195,-13.837400436401367,1544.1868793964386
D4:22:CD:00:49:AA,-158.60800170898438,-71.94874572753906,80.8531265258789,6.954837799072266,2.1324849128723145,-7.814213752746582,1544.1868793964386
D4:22:CD:00:05:6E,56.397132873535156,-59.162353515625,42.03413391113281,-1.1033656597137451,-0.2664274573326111,-9.725648880004883,1544.1868793964386
D4:22:CD:00:05:5E,-21.70954704284668,-58.00069046020508,-164.87887573242188,-7.4802045822143555,2.950359344482422,-15.546066284179688,1544.1868793964386
D4:22:CD:00:05:5D,-174.8350372314453,-80.07698822021484,22.895282745361328,-9.01055908203125,5.144782066345215,-8.23138427734375,1544.2158784866333
D4:22:CD:00:05:6B,18.237516403198242,41.228675842285156,-28.779722213745117,-0.4715597629547119,-1.4658007621765137,-13.824684143066406,1544.2158784866333
D4:22:CD:00:49:AA,-156.54702758789062,-73.64910888671875,76.93230438232422,-1.27862548828125,0.7284623384475708,-9.533506393432617,1544.2158784866333
D4:22:CD:00:05:6E,55.6712532043457,-59.56503677368164,50.45637512207031,-2.972160816192627,-0.7348167896270752,-10.291585922241211,1544.2158784866333
D4:22:CD:00:05:5E,-32.19545364379883,-54.14445114135742,-161.2410125732422,-6.631260871887207,2.0236945152282715,-14.704381942749023,1544.2158784866333
D4:22:CD:00:05:5D,-172.35870361328125,-80.08267974853516,26.509654998779297,0.8598055839538574,1.239447832107544,-7.489999771118164,1544.2464101314545
D4:22:CD:00:05:6B,16.481252670288086,47.613250732421875,-46.56114959716797,1.0108788013458252,8.210525512695312,-10.324140548706055,1544.2464101314545
D4:22:CD:00:49:AA,-152.27529907226562,-75.32532501220703,73.88890838623047,-4.575549125671387,0.4848441481590271,-8.915399551391602,1544.2464101314545
D4:22:CD:00:05:6E,54.87896728515625,-59.804420471191406,56.214351654052734,-2.734755516052246,-4.490144729614258,-10.615974426269531,1544.2464101314545
D4:22:CD:00:05:5E,-43.22489929199219,-51.19937515258789,-157.5244598388672,-9.563383102416992,0.9940135478973389,-11.570039749145508,1544.2464101314545
D4:22:CD:00:05:5D,-170.3939666748047,-80.46968078613281,22.814023971557617,-10.381683349609375,-6.761549949645996,-11.189004898071289,1544.2765102386475
D4:22:CD:00:05:6B,8.157336235046387,48.29545593261719,-76.38861846923828,5.176580429077148,-0.34359192848205566,-16.023094177246094,1544.2765102386475
D4:22:CD:00:49:AA,-148.1140899658203,-76.41629028320312,71.72200775146484,-1.9256110191345215,1.1162378787994385,-6.076214790344238,1544.2765102386475
D4:22:CD:00:05:6E,55.837181091308594,-59.108158111572266,60.07919692993164,-1.001981258392334,-6.640785217285156,-8.522436141967773,1544.2765102386475
D4:22:CD:00:05:5E,-54.955448150634766,-49.61803436279297,-152.97772216796875,-14.500833511352539,-2.5455026626586914,-11.621227264404297,1544.2765102386475
D4:22:CD:00:05:5D,-178.22085571289062,-77.66355895996094,26.30942726135254,2.0983548164367676,-0.6840173006057739,-1.296722412109375,1544.3364751338959
D4:22:CD:00:05:6B,-1.1207716464996338,40.6119270324707,-104.69635009765625,-14.315380096435547,-18.5657958984375,-31.61880111694336,1544.3364751338959
D4:22:CD:00:49:AA,-141.7039031982422,-78.1290283203125,66.36713409423828,1.3002502918243408,0.8180016279220581,-3.1478748321533203,1544.3364751338959
D4:22:CD:00:05:6E,56.16304016113281,-57.582786560058594,63.42117691040039,-2.4819865226745605,-5.872405052185059,-7.415265083312988,1544.3364751338959
D4:22:CD:00:05:5E,-69.64701843261719,-50.04267883300781,-145.63197326660156,-19.295520782470703,-2.12467622756958,-13.432287216186523,1544.3364751338959
D4:22:CD:00:05:5D,175.79283142089844,-75.23616027832031,31.563278198242188,9.983688354492188,1.4625864028930664,1.443197250366211,1544.3666772842407
D4:22:CD:00:05:6B,9.079106330871582,39.272525787353516,-120.75557708740234,7.645794868469238,-5.124850273132324,-22.550430297851562,1544.3666772842407
D4:22:CD:00:49:AA,-136.6681671142578,-79.86328887939453,59.564918518066406,3.6482911109924316,0.9150230884552002,0.43018627166748047,1544.3666772842407
D4:22:CD:00:05:6E,54.31888198852539,-56.61119079589844,65.55638885498047,-1.7740817070007324,-4.980762481689453,-7.095144271850586,1544.3666772842407
D4:22:CD:00:05:5E,-87.2775650024414,-52.25811767578125,-134.4728546142578,-17.636104583740234,0.012962410226464272,-9.319881439208984,1544.3666772842407
D4:22:CD:00:05:5D,171.44357299804688,-72.58815002441406,41.032066345214844,1.1986985206604004,1.3953485488891602,2.573174476623535,1544.3961987495422
D4:22:CD:00:05:6B,-1.0113199949264526,39.73921203613281,-111.23542785644531,6.272855758666992,5.369831085205078,-1.0682239532470703,1544.3961987495422
D4:22:CD:00:49:AA,-141.9134063720703,-81.32262420654297,60.97551727294922,-1.2462964057922363,-1.140256404876709,2.7098770141601562,1544.3961987495422
D4:22:CD:00:05:6E,54.04345703125,-56.61702346801758,66.65090942382812,-0.10457679629325867,-7.581696510314941,-0.7435007095336914,1544.3961987495422
D4:22:CD:00:05:5E,-98.37591552734375,-54.334327697753906,-123.30570983886719,0.4121413230895996,-26.954879760742188,-2.6536407470703125,1544.3961987495422
D4:22:CD:00:05:5D,168.2644500732422,-71.07876586914062,47.686397552490234,-4.89495849609375,7.430095672607422,3.7479448318481445,1544.426338672638
D4:22:CD:00:05:6B,-6.983457565307617,36.288185119628906,-90.76305389404297,-19.763198852539062,-6.7902421951293945,-11.530206680297852,1544.426338672638
D4:22:CD:00:49:AA,-153.19561767578125,-82.54839324951172,69.2470474243164,-8.792333602905273,0.35831940174102783,8.615219116210938,1544.426338672638
D4:22:CD:00:05:6E,57.96186065673828,-56.98966979980469,65.2938003540039,-6.0883941650390625,-7.412738800048828,3.6562042236328125,1544.426338672638
D4:22:CD:00:05:5E,-93.40188598632812,-57.54975509643555,-120.76520538330078,-0.00452792551368475,-20.80013656616211,-0.7724380493164062,1544.426338672638
D4:22:CD:00:05:5D,162.8307342529297,-70.4937744140625,54.31332015991211,7.933819770812988,-4.524975776672363,5.9771623611450195,1544.4563329219818
D4:22:CD:00:05:6B,7.293929100036621,28.87791633605957,-77.54840087890625,-4.439743995666504,-8.505640029907227,-9.557905197143555,1544.4563329219818
D4:22:CD:00:49:AA,-166.55284118652344,-82.68724060058594,80.17337036132812,-5.21684455871582,-1.4963598251342773,4.916142463684082,1544.4563329219818
D4:22:CD:00:05:6E,60.00461196899414,-58.87882614135742,57.27289581298828,-2.410740852355957,-5.064141273498535,9.171241760253906,1544.4563329219818
D4:22:CD:00:05:5E,-91.74345397949219,-61.01362228393555,-119.37335205078125,5.824563980102539,1.982647180557251,14.975809097290039,1544.4563329219818
D4:22:CD:00:05:5D,155.90342712402344,-69.9157943725586,61.1860237121582,1.6439952850341797,-2.37819766998291,1.6359624862670898,1544.4864692687988
D4:22:CD:00:05:6B,10.468814849853516,18.43583106994629,-69.63414764404297,-3.3348441123962402,7.829987525939941,3.845219612121582,1544.4864692687988
D4:22:CD:00:49:AA,-171.90802001953125,-82.05824279785156,80.47511291503906,4.730499267578125,-2.841672420501709,-3.9895291328430176,1544.4864692687988
D4:22:CD:00:05:6E,59.16497802734375,-61.15884017944336,48.63221740722656,2.324828624725342,0.3023321032524109,8.252031326293945,1544.4864692687988
D4:22:CD:00:05:5E,-97.513671875,-62.84268569946289,-114.4198989868164,-4.216362953186035,-6.067768096923828,4.826376914978027,1544.4864692687988
D4:22:CD:00:05:5D,146.2529296875,-69.51994323730469,67.3016128540039,-0.2505725622177124,7.037432670593262,3.554842948913574,1544.5169625282288
D4:22:CD:00:05:6B,0.8004949688911438,5.20412540435791,-64.35840606689453,-4.415831565856934,15.640665054321289,2.0234317779541016,1544.5169625282288
D4:22:CD:00:49:AA,-176.28485107421875,-79.18626403808594,79.77417755126953,11.678449630737305,-2.4304871559143066,-3.722789764404297,1544.5169625282288
D4:22:CD:00:05:6E,59.65089797973633,-61.05411148071289,41.314693450927734,-0.39620810747146606,6.725137710571289,3.87392520904541,1544.5169625282288
D4:22:CD:00:05:5E,-107.19377899169922,-63.471656799316406,-108.15678405761719,-8.06094741821289,-4.387267112731934,-5.379080772399902,1544.5169625282288
D4:22:CD:00:05:5D,139.61001586914062,-68.2454605102539,68.83326721191406,-6.669369697570801,5.621828079223633,3.5807552337646484,1544.5461597442627
D4:22:CD:00:05:6B,-13.474089622497559,-12.529644966125488,-59.020469665527344,-2.7681479454040527,12.197229385375977,-10.503091812133789,1544.5461597442627
D4:22:CD:00:49:AA,-178.23861694335938,-75.7885513305664,82.44566345214844,4.709463119506836,-4.010287284851074,5.706276893615723,1544.5461597442627
D4:22:CD:00:05:6E,60.236820220947266,-60.26816177368164,35.795894622802734,0.8496108055114746,9.342697143554688,0.10335445404052734,1544.5461597442627
D4:22:CD:00:05:5E,-109.85191345214844,-64.22310638427734,-106.80757904052734,-9.313377380371094,-5.765298843383789,-0.887639045715332,1544.5461597442627
D4:22:CD:00:05:5D,140.8759307861328,-63.236324310302734,63.6032600402832,-19.755115509033203,-0.5842400789260864,9.494243621826172,1544.606367111206
D4:22:CD:00:05:6B,-36.207740783691406,-32.34893798828125,-49.02145767211914,12.261287689208984,1.3058829307556152,-3.561950206756592,1544.606367111206
D4:22:CD:00:49:AA,-179.3622283935547,-74.26754760742188,84.27215576171875,2.128920555114746,1.033337116241455,3.3214292526245117,1544.606367111206
D4:22:CD:00:05:6E,60.31290054321289,-60.619781494140625,34.054813385009766,-2.4836783409118652,6.233017921447754,-0.8384609222412109,1544.606367111206
D4:22:CD:00:05:5E,-111.10189819335938,-64.15081024169922,-107.8126449584961,-4.8290205001831055,-3.1399598121643066,1.0480690002441406,1544.606367111206
D4:22:CD:00:05:5D,148.9116973876953,-53.85329818725586,56.3882942199707,-13.900703430175781,1.3964323997497559,7.498607635498047,1544.6363682746887
D4:22:CD:00:05:6B,-64.37972259521484,-45.95071792602539,-33.92142868041992,5.596133232116699,5.102456092834473,12.090520858764648,1544.6363682746887
D4:22:CD:00:49:AA,176.9901123046875,-73.75464630126953,86.12860107421875,2.743375301361084,1.5275771617889404,1.7974510192871094,1544.6363682746887
D4:22:CD:00:05:6E,60.94210433959961,-61.67973709106445,35.49170684814453,-5.278861999511719,6.754698753356934,-2.1613807678222656,1544.6363682746887
D4:22:CD:00:05:5E,-109.25181579589844,-65.12635803222656,-111.89761352539062,-2.149747371673584,-6.9490556716918945,1.3421850204467773,1544.6363682746887
D4:22:CD:00:05:5D,155.95919799804688,-43.77108383178711,48.653785705566406,-6.120153427124023,2.8944835662841797,0.7111825942993164,1544.6664452552795
D4:22:CD:00:05:6B,-67.50931549072266,-51.65531539916992,-27.92825698852539,-1.1385736465454102,15.163127899169922,4.4936981201171875,1544.6664452552795
D4:22:CD:00:49:AA,173.4115447998047,-72.93306732177734,90.00114440917969,2.8351473808288574,-1.358335256576538,0.8759183883666992,1544.6664452552795
D4:22:CD:00:05:6E,63.42219543457031,-62.860225677490234,36.820011138916016,-1.790461778640747,2.882293701171875,-2.729874610900879,1544.6664452552795
D4:22:CD:00:05:5E,-93.18929290771484,-68.51727294921875,-120.54296112060547,-4.537737846374512,-4.776915550231934,-3.039318084716797,1544.6664452552795
D4:22:CD:00:05:5D,160.1915283203125,-34.70112609863281,42.25471496582031,-2.59842586517334,-0.533038854598999,-8.89341926574707,1544.6969964504242
D4:22:CD:00:05:6B,-61.404930114746094,-53.2607536315918,-32.79288864135742,1.873819351196289,4.834541320800781,-12.568166732788086,1544.6969964504242
D4:22:CD:00:49:AA,170.9345703125,-72.46914672851562,94.50470733642578,-0.2910386919975281,0.40502476692199707,-3.3586740493774414,1544.6969964504242
D4:22:CD:00:05:6E,68.46171569824219,-62.61228942871094,37.82794189453125,-7.893222808837891,-1.0753753185272217,1.479888916015625,1544.6969964504242
D4:22:CD:00:05:5E,-72.68560028076172,-71.29157257080078,-129.03956604003906,-2.066781520843506,-0.02084403485059738,-5.061821937561035,1544.6969964504242
D4:22:CD:00:05:5D,164.22021484375,-27.6854305267334,37.795372009277344,-1.3304417133331299,-5.6166181564331055,-13.750143051147461,1544.7269897460938
D4:22:CD:00:05:6B,-58.21570587158203,-55.024776458740234,-39.37106704711914,-7.08856201171875,0.5792562961578369,-8.913324356079102,1544.7269897460938
D4:22:CD:00:49:AA,172.0701904296875,-71.91817474365234,96.4134521484375,-2.8062424659729004,2.4137535095214844,-4.902153015136719,1544.7269897460938
D4:22:CD:00:05:6E,69.87380981445312,-60.95679473876953,39.49835968017578,-3.0438199043273926,-1.5491719245910645,-0.7033071517944336,1544.7269897460938
D4:22:CD:00:05:5E,-66.9988784790039,-72.21525573730469,-130.1090545654297,-1.8933169841766357,8.377845764160156,-1.6140785217285156,1544.7269897460938
D4:22:CD:00:05:5D,167.83758544921875,-23.773372650146484,33.31415557861328,-0.9168981313705444,-5.260451316833496,-12.96776008605957,1544.7564444541931
D4:22:CD:00:05:6B,-52.07366180419922,-59.998958587646484,-45.56955337524414,-2.7165160179138184,-1.515894889831543,-9.573604583740234,1544.7564444541931
D4:22:CD:00:49:AA,174.73175048828125,-71.89688873291016,97.43344116210938,0.50272536277771,1.9101269245147705,-5.308047294616699,1544.7564444541931
D4:22:CD:00:05:6E,69.76277923583984,-58.245845794677734,42.08935546875,-1.2933485507965088,-0.7149524688720703,-2.4354047775268555,1544.7564444541931
D4:22:CD:00:05:5E,-76.6908187866211,-72.1373519897461,-121.33224487304688,-1.1487677097320557,-9.192756652832031,-0.2685737609863281,1544.7564444541931
D4:22:CD:00:05:5D,169.4906463623047,-21.773563385009766,27.44922637939453,4.755827903747559,-4.758053779602051,-8.036169052124023,1544.7865705490112
D4:22:CD:00:05:6B,-43.60541534423828,-68.52330780029297,-56.48900604248047,-0.181099534034729,-3.2957863807678223,-3.789463996887207,1544.7865705490112
D4:22:CD:00:49:AA,176.3184051513672,-73.49121856689453,98.60134887695312,4.647363662719727,1.639434576034546,-6.2886857986450195,1544.7865705490112
D4:22:CD:00:05:6E,68.91661834716797,-54.93650436401367,45.67453384399414,0.3991641402244568,-0.6619832515716553,-3.2159647941589355,1544.7865705490112
D4:22:CD:00:05:5E,-84.97044372558594,-71.78494262695312,-111.22577667236328,-3.602405548095703,-2.74224853515625,-1.4177751541137695,1544.7865705490112
D4:22:CD:00:05:5D,165.5458984375,-23.159019470214844,20.948692321777344,10.170125961303711,1.1196503639221191,-10.911489486694336,1544.816668510437
D4:22:CD:00:05:6B,-5.562697410583496,-77.90312194824219,-99.91561889648438,-4.601570129394531,-4.78936767578125,12.27857780456543,1544.816668510437
D4:22:CD:00:49:AA,179.69229125976562,-74.52747344970703,95.99346160888672,5.453802108764648,-2.138571262359619,-1.6889028549194336,1544.816668510437
D4:22:CD:00:05:6E,68.04120635986328,-51.123538970947266,50.25021743774414,1.7859444618225098,-1.2660102844238281,-4.585687637329102,1544.816668510437
D4:22:CD:00:05:5E,-93.9173812866211,-70.6923599243164,-100.53022003173828,-4.879430770874023,-3.405320644378662,-1.942824363708496,1544.816668510437
D4:22:CD:00:05:5D,164.04579162597656,-27.019935607910156,16.672557830810547,5.092055320739746,0.41805726289749146,11.99417495727539,1544.846663236618
D4:22:CD:00:05:6B,62.22953414916992,-72.31488800048828,-172.47206115722656,-14.135293960571289,-4.016244888305664,44.85368347167969,1544.846663236618
D4:22:CD:00:49:AA,-174.37864685058594,-75.78020477294922,90.8921127319336,4.893013000488281,-0.10090939700603485,1.882735252380371,1544.846663236618
D4:22:CD:00:05:6E,69.243896484375,-47.732643127441406,55.32828903198242,1.5556225776672363,-0.40124326944351196,-3.585829734802246,1544.846663236618
D4:22:CD:00:05:5E,-101.7931137084961,-69.56184387207031,-91.62699890136719,-5.282666206359863,-2.4446229934692383,-0.08701419830322266,1544.846663236618
D4:22:CD:00:05:5D,167.1843719482422,-25.570049285888672,16.36337661743164,22.664352416992188,6.731199264526367,-17.481033325195312,1544.9059655666351
D4:22:CD:00:05:6B,74.67237091064453,-75.9821548461914,174.67776489257812,-2.1521687507629395,12.728446960449219,8.198003768920898,1544.9059655666351
D4:22:CD:00:49:AA,-173.6298065185547,-77.27040100097656,89.15227508544922,-0.5983401536941528,2.9772191047668457,0.02863311767578125,1544.9059655666351
D4:22:CD:00:05:6E,71.78804016113281,-44.7540168762207,59.729164123535156,-7.640721321105957,-4.498797416687012,7.05311393737793,1544.9059655666351
D4:22:CD:00:05:5E,-107.53775787353516,-69.19471740722656,-85.72958374023438,-5.025317192077637,-2.1909074783325195,-0.11517810821533203,1544.9059655666351
D4:22:CD:00:05:5D,169.50271606445312,-24.536895751953125,18.3396053314209,20.07585906982422,7.167594909667969,2.0197181701660156,1544.9363760948181
D4:22:CD:00:05:6B,-24.706201553344727,-83.50113677978516,-95.43217468261719,4.429324150085449,5.58419132232666,20.0057373046875,1544.9363760948181
D4:22:CD:00:49:AA,-172.4819793701172,-76.7870101928711,88.1640853881836,-0.9083901643753052,2.126570701599121,8.732746124267578,1544.9363760948181
D4:22:CD:00:05:6E,71.7340316772461,-40.36738967895508,61.7140998840332,-3.2316813468933105,-1.6743860244750977,7.807899475097656,1544.9363760948181
D4:22:CD:00:05:5E,-112.77531433105469,-69.22087860107422,-81.60954284667969,-6.084903717041016,-3.564849376678467,-1.3196935653686523,1544.9363760948181
D4:22:CD:00:05:5D,170.26345825195312,-22.828712463378906,19.681255340576172,23.283676147460938,-1.2126548290252686,10.054252624511719,1544.9665398597717
D4:22:CD:00:05:6B,-49.98874282836914,-67.73641204833984,-62.95319747924805,6.975712776184082,-4.316150665283203,32.49761199951172,1544.9665398597717
D4:22:CD:00:49:AA,-171.55833435058594,-75.28851318359375,87.3548812866211,1.8547837734222412,-1.8080885410308838,8.11599349975586,1544.9665398597717
D4:22:CD:00:05:6E,80.5169448852539,-32.57689666748047,61.611900329589844,-10.831697463989258,-12.983558654785156,26.841686248779297,1544.9665398597717
D4:22:CD:00:05:5E,-117.85942077636719,-69.04621887207031,-79.24427032470703,-6.006229400634766,-3.7569832801818848,-1.2425651550292969,1544.9665398597717
D4:22:CD:00:05:5D,170.48341369628906,-19.177230834960938,21.404245376586914,22.096370697021484,-0.8552414178848267,9.110393524169922,1544.9961242675781
D4:22:CD:00:05:6B,-36.02799606323242,-54.396427154541016,-61.529022216796875,12.189613342285156,-13.776315689086914,4.708766937255859,1544.9961242675781
D4:22:CD:00:49:AA,-172.81723022460938,-75.26346588134766,87.96034240722656,3.7424917221069336,-0.33182215690612793,8.648509979248047,1544.9961242675781
D4:22:CD:00:05:6E,83.71269226074219,-21.27155876159668,61.142303466796875,3.173891544342041,-11.782186508178711,19.34130859375,1544.9961242675781
D4:22:CD:00:05:5E,-119.303955078125,-69.54611206054688,-80.21804809570312,-5.216912269592285,-2.4258623123168945,0.7588710784912109,1544.9961242675781
D4:22:CD:00:05:5D,170.5917205810547,-15.802229881286621,23.833066940307617,18.72601318359375,3.227560520172119,1.875025749206543,1545.0270614624023
D4:22:CD:00:05:6B,-36.424522399902344,-45.18060302734375,-60.18986892700195,7.102041244506836,-3.8861517906188965,-5.719019889831543,1545.0270614624023
D4:22:CD:00:49:AA,-177.10606384277344,-76.0565414428711,90.39754486083984,4.317639350891113,2.3073792457580566,9.0867919921875,1545.0270614624023
D4:22:CD:00:05:6E,89.16686248779297,-5.810676574707031,62.55760955810547,10.740846633911133,-12.751441955566406,22.3760986328125,1545.0270614624023
D4:22:CD:00:05:5E,-114.68653869628906,-71.60851287841797,-87.11618041992188,-6.838683128356934,-2.78018856048584,1.1897525787353516,1545.0270614624023
D4:22:CD:00:05:5D,173.544677734375,-15.33450698852539,25.079967498779297,3.7226386070251465,2.832447052001953,11.358518600463867,1545.0566046237946
D4:22:CD:00:05:6B,-42.774715423583984,-40.87192916870117,-60.542625427246094,-0.7257909774780273,3.1389212608337402,-6.053764343261719,1545.0566046237946
D4:22:CD:00:49:AA,177.82801818847656,-76.88565063476562,92.30667877197266,6.895159721374512,3.1905174255371094,6.624094009399414,1545.0566046237946
D4:22:CD:00:05:6E,85.31341552734375,12.756526947021484,65.48522186279297,12.79380989074707,-2.326436996459961,13.257064819335938,1545.0566046237946
D4:22:CD:00:05:5E,-99.64273071289062,-74.3223876953125,-105.07662963867188,-7.928773880004883,-3.0039381980895996,2.876215934753418,1545.0566046237946
D4:22:CD:00:05:5D,173.35655212402344,-17.335092544555664,24.12605857849121,1.7394351959228516,-0.40382128953933716,2.261922836303711,1545.0865468978882
D4:22:CD:00:05:6B,-42.922447204589844,-41.967620849609375,-64.18074798583984,-1.5079517364501953,2.7380471229553223,-6.293606758117676,1545.0865468978882
D4:22:CD:00:49:AA,173.79595947265625,-77.51893615722656,93.22798156738281,3.4952821731567383,2.4801549911499023,3.3394851684570312,1545.0865468978882
D4:22:CD:00:05:6E,83.82572174072266,33.47376251220703,69.58480834960938,-1.5997669696807861,9.233264923095703,8.530099868774414,1545.0865468978882
D4:22:CD:00:05:5E,-73.10684204101562,-75.05631256103516,-133.4323272705078,-2.6493191719055176,-12.43742561340332,11.856115341186523,1545.0865468978882
D4:22:CD:00:05:5D,170.81666564941406,-23.082340240478516,22.881725311279297,0.7223248481750488,-5.62885856628418,-7.824520111083984,1545.1165368556976
D4:22:CD:00:05:6B,-39.88774490356445,-46.96907424926758,-70.08716583251953,0.5224748849868774,1.7994091510772705,-8.337387084960938,1545.1165368556976
D4:22:CD:00:49:AA,171.76589965820312,-77.43522644042969,92.59000396728516,0.7281639575958252,1.4018783569335938,-3.8353123664855957,1545.1165368556976
D4:22:CD:00:05:6E,95.0883560180664,54.86518096923828,73.97209930419922,-10.478830337524414,8.942781448364258,-0.5936555862426758,1545.1165368556976
D4:22:CD:00:05:5E,-34.33576583862305,-71.09512329101562,-163.79754638671875,-7.180614471435547,5.817731857299805,-5.567995071411133,1545.1165368556976
D4:22:CD:00:05:5D,165.9436492919922,-31.971153259277344,22.267717361450195,2.6076440811157227,-5.927412033081055,-14.919498443603516,1545.1461551189423
D4:22:CD:00:05:6B,-38.822811126708984,-53.71923828125,-77.45098876953125,-0.4170647859573364,0.7714488506317139,-8.900007247924805,1545.1461551189423
D4:22:CD:00:49:AA,170.67405700683594,-76.66200256347656,91.96460723876953,0.33630913496017456,0.608627200126648,-6.625572204589844,1545.1461551189423
D4:22:CD:00:05:6E,124.22455596923828,74.03933715820312,82.20030975341797,-10.643016815185547,13.065908432006836,-3.2189645767211914,1545.1461551189423
D4:22:CD:00:05:5E,-30.82486343383789,-70.32246398925781,-161.80528259277344,-20.60120391845703,8.981121063232422,-12.950424194335938,1545.1461551189423
D4:22:CD:00:05:5D,160.1664276123047,-43.769779205322266,22.342304229736328,3.0268750190734863,-3.799373149871826,-16.525100708007812,1545.2064816951752
D4:22:CD:00:05:6B,-37.1613655090332,-61.17933654785156,-86.55169677734375,-1.6053998470306396,2.2145562171936035,-7.000199317932129,1545.2064816951752
D4:22:CD:00:49:AA,173.5561981201172,-76.73660278320312,89.95889282226562,-3.9348764419555664,1.4292182922363281,-5.103341102600098,1545.2064816951752
D4:22:CD:00:05:6E,137.5111541748047,86.21638488769531,89.80231475830078,-5.986018180847168,8.76154899597168,-8.462505340576172,1545.2064816951752
D4:22:CD:00:05:5E,-57.20994186401367,-72.73467254638672,-138.99440002441406,5.712374687194824,-8.691959381103516,-7.731294631958008,1545.2064816951752
D4:22:CD:00:05:5D,155.35891723632812,-58.50321960449219,23.350072860717773,3.7548394203186035,-4.012353897094727,-9.972522735595703,1545.2367260456085
D4:22:CD:00:05:6B,-31.39422035217285,-68.02762603759766,-98.08364868164062,-0.9148895740509033,2.2664880752563477,-6.988408088684082,1545.2367260456085
D4:22:CD:00:49:AA,177.6426239013672,-78.50271606445312,86.92909240722656,-1.4360582828521729,2.8834424018859863,-9.280271530151367,1545.2367260456085
D4:22:CD:00:05:6E,5.465874671936035,87.2559814453125,-33.58868408203125,-7.8666582107543945,-0.34919798374176025,-9.423681259155273,1545.2367260456085
D4:22:CD:00:05:5E,-80.6336898803711,-72.12003326416016,-125.11087036132812,12.299102783203125,-0.44930583238601685,-9.352142333984375,1545.2367260456085
D4:22:CD:00:05:5D,147.48936462402344,-75.62593841552734,29.95665740966797,-2.355987071990967,-1.4829039573669434,5.049129486083984,1545.2668387889862
D4:22:CD:00:05:6B,-22.313295364379883,-73.43098449707031,-112.08370971679688,-1.6966814994812012,3.73056697845459,-5.9813232421875,1545.2668387889862
D4:22:CD:00:49:AA,-179.84568786621094,-80.63045501708984,83.84441375732422,4.141000747680664,0.5253612995147705,-10.20756721496582,1545.2668387889862
D4:22:CD:00:05:6E,16.071685791015625,83.96334075927734,-17.243366241455078,-4.598588943481445,2.936446189880371,-10.610750198364258,1545.2668387889862
D4:22:CD:00:05:5E,-91.67139434814453,-70.90483856201172,-119.32167053222656,-12.549747467041016,-6.100491523742676,-1.1953802108764648,1545.2668387889862
D4:22:CD:00:05:5D,37.8863410949707,-84.44377136230469,144.19142150878906,-15.680450439453125,6.920252799987793,19.800617218017578,1545.2964742183685
D4:22:CD:00:05:6B,-7.288597583770752,-76.61160278320312,-129.98141479492188,-1.113677740097046,4.876526832580566,-6.731296539306641,1545.2964742183685
D4:22:CD:00:49:AA,179.88302612304688,-83.4174575805664,83.80024719238281,3.5908265113830566,-1.7782859802246094,-11.145275115966797,1545.2964742183685
D4:22:CD:00:05:6E,38.232967376708984,81.8947525024414,14.84567928314209,1.3790192604064941,4.833643913269043,-12.072067260742188,1545.2964742183685
D4:22:CD:00:05:5E,-103.43172454833984,-69.0147705078125,-110.92414855957031,2.3141045570373535,-3.1531076431274414,-7.295409202575684,1545.2964742183685
D4:22:CD:00:05:5D,22.07200050354004,-75.07427215576172,166.13771057128906,-28.201820373535156,-31.862632751464844,-23.51468276977539,1545.327473640442
D4:22:CD:00:05:6B,10.6394681930542,-77.78689575195312,-149.8697509765625,0.4555823802947998,3.0917534828186035,-6.452397346496582,1545.327473640442
D4:22:CD:00:49:AA,178.57054138183594,-84.3241195678711,85.19535064697266,0.04722456634044647,-4.147649765014648,-5.895027160644531,1545.327473640442
D4:22:CD:00:05:6E,62.34894561767578,78.63809204101562,61.65385818481445,-3.1350154876708984,10.136547088623047,-11.5701904296875,1545.327473640442
D4:22:CD:00:05:5E,-112.94401550292969,-65.5813980102539,-103.54706573486328,-2.2529525756835938,-4.651629447937012,2.774989128112793,1545.327473640442
D4:22:CD:00:05:5D,26.723270416259766,-76.38094329833984,152.5705108642578,-15.477458953857422,19.55394744873047,-10.037208557128906,1545.3567340373993
D4:22:CD:00:05:6B,29.05095672607422,-78.27558135986328,-172.0032501220703,-0.6715376377105713,6.443376541137695,-3.1293444633483887,1545.3567340373993
D4:22:CD:00:49:AA,-178.84481811523438,-84.01116180419922,83.156005859375,3.3381996154785156,-0.9308017492294312,3.1236915588378906,1545.3567340373993
D4:22:CD:00:05:6E,66.99504852294922,69.24371337890625,98.26658630371094,2.1745705604553223,-7.336667060852051,-25.70696258544922,1545.3567340373993
D4:22:CD:00:05:5E,-118.4863510131836,-62.15418243408203,-100.35144805908203,-2.4107890129089355,-5.608319282531738,8.103887557983398,1545.3567340373993
D4:22:CD:00:05:5D,87.5010757446289,-77.10209655761719,102.94181060791016,-18.632640838623047,5.2501115798950195,-4.772540092468262,1545.386473417282
D4:22:CD:00:05:6B,54.919071197509766,-76.60782623291016,159.22552490234375,-2.6393837928771973,6.845192909240723,2.1351842880249023,1545.386473417282
D4:22:CD:00:49:AA,179.45761108398438,-84.30003356933594,86.2271957397461,0.7621058225631714,1.5890355110168457,3.900670051574707,1545.386473417282
D4:22:CD:00:05:6E,77.38064575195312,61.3433837890625,114.85343170166016,-0.5277408361434937,6.783598899841309,-21.96816635131836,1545.386473417282
D4:22:CD:00:05:5E,-116.5830078125,-60.30851364135742,-101.59618377685547,-4.574254989624023,-3.834832191467285,4.9264326095581055,1545.386473417282
D4:22:CD:00:05:5D,125.16365814208984,-72.4428482055664,73.07971954345703,20.136280059814453,-4.631778717041016,4.926887512207031,1545.4165480136871
D4:22:CD:00:05:6B,75.43225860595703,-71.8982925415039,135.26856994628906,-6.453968048095703,8.60784912109375,11.269529342651367,1545.4165480136871
D4:22:CD:00:49:AA,-176.2536163330078,-83.7091064453125,83.16301727294922,2.9531712532043457,0.254849910736084,6.351844787597656,1545.4165480136871
D4:22:CD:00:05:6E,103.09211730957031,64.65902709960938,121.89649200439453,-0.4917803406715393,-8.149038314819336,2.590169906616211,1545.4165480136871
D4:22:CD:00:05:5E,-111.33430480957031,-58.887474060058594,-105.69451141357422,-5.766301155090332,-9.323736190795898,4.726317405700684,1545.4165480136871
D4:22:CD:00:05:5D,130.21742248535156,-70.913330078125,64.66869354248047,-8.326000213623047,12.350173950195312,5.050671577453613,1545.446647644043
D4:22:CD:00:05:6B,83.96290588378906,-66.96646881103516,122.72378540039062,-4.797184944152832,12.138246536254883,13.987686157226562,1545.446647644043
D4:22:CD:00:49:AA,-169.68630981445312,-83.02861022949219,78.82698822021484,5.572844505310059,-3.5944762229919434,5.813820838928223,1545.446647644043
D4:22:CD:00:05:6E,102.43241119384766,69.13272857666016,117.86966705322266,-1.4311699867248535,-2.7881369590759277,2.7421464920043945,1545.446647644043
D4:22:CD:00:05:5E,-104.30877685546875,-57.60081481933594,-109.40655517578125,-1.2090020179748535,-10.976966857910156,2.729084014892578,1545.446647644043
D4:22:CD:00:05:5D,140.99375915527344,-69.75038146972656,56.68484115600586,6.9724225997924805,7.9412689208984375,8.190568923950195,1545.5064113140106
D4:22:CD:00:05:6B,87.5202865600586,-67.32373046875,117.76102447509766,-0.6703457832336426,11.125991821289062,6.289281845092773,1545.5064113140106
D4:22:CD:00:49:AA,-168.33843994140625,-81.77555084228516,80.72460174560547,-2.199504852294922,-1.926694631576538,4.7660627365112305,1545.5064113140106
D4:22:CD:00:05:6E,84.63267517089844,74.08942413330078,99.86609649658203,6.066561698913574,-3.1296186447143555,-4.074872970581055,1545.5064113140106
D4:22:CD:00:05:5E,-93.90408325195312,-57.24858856201172,-112.76997375488281,-7.90300178527832,-9.5494384765625,-1.5553512573242188,1545.5064113140106
D4:22:CD:00:05:5D,151.80300903320312,-68.61842346191406,52.08456802368164,0.1663018763065338,-0.66770339012146,3.988581657409668,1545.536425113678
D4:22:CD:00:05:6B,92.87660217285156,-72.35411071777344,117.99610900878906,1.349339246749878,4.472326278686523,4.173318862915039,1545.536425113678
D4:22:CD:00:49:AA,-170.4178924560547,-80.114990234375,86.22032928466797,-6.446903228759766,-2.248147487640381,0.5764913558959961,1545.536425113678
D4:22:CD:00:05:6E,55.95473098754883,75.38565063476562,60.238128662109375,-3.0214033126831055,2.707448959350586,-5.650272369384766,1545.536425113678
D4:22:CD:00:05:5E,-90.33200073242188,-57.240108489990234,-109.05648803710938,-30.348426818847656,-1.8432915210723877,-4.399832725524902,1545.536425113678
D4:22:CD:00:05:5D,159.39524841308594,-68.05393981933594,48.2448844909668,0.4601436257362366,-7.209865570068359,2.3447465896606445,1545.5662395954132
D4:22:CD:00:05:6B,97.30519104003906,-78.55513000488281,122.91717529296875,0.5919908285140991,1.6740000247955322,0.6253585815429688,1545.5662395954132
D4:22:CD:00:49:AA,-170.45130920410156,-78.03409576416016,90.54439544677734,-5.426235198974609,0.41110044717788696,-4.244172096252441,1545.5662395954132
D4:22:CD:00:05:6E,34.334320068359375,66.58399200439453,33.44021224975586,-5.508201599121094,0.4903410077095032,-9.494976043701172,1545.5662395954132
D4:22:CD:00:05:5E,-97.04351806640625,-55.86095428466797,-95.11416625976562,-21.029460906982422,-1.4590654373168945,-0.9340600967407227,1545.5662395954132
D4:22:CD:00:05:5D,165.6797637939453,-68.35973358154297,44.464942932128906,1.2990026473999023,-1.2268462181091309,1.301072120666504,1545.5960445404053
D4:22:CD:00:05:6B,100.92111206054688,-86.50761413574219,123.55883026123047,-2.6712779998779297,-0.1990060806274414,-0.2669076919555664,1545.5960445404053
D4:22:CD:00:49:AA,-170.51898193359375,-75.41079711914062,93.39894104003906,2.8760910034179688,2.8476972579956055,-2.076111316680908,1545.5960445404053
D4:22:CD:00:05:6E,27.176061630249023,52.90513610839844,25.73391342163086,-4.337132453918457,-1.9391992092132568,-8.966161727905273,1545.5960445404053
D4:22:CD:00:05:5E,-105.00746154785156,-52.677669525146484,-79.56861114501953,-9.91810417175293,-4.039048194885254,-5.880999565124512,1545.5960445404053
D4:22:CD:00:05:5D,171.8093719482422,-68.94647979736328,38.87685775756836,0.847781777381897,-2.30995512008667,0.7575035095214844,1545.626467704773
D4:22:CD:00:05:6B,-80.22831726074219,-87.5121078491211,-53.634464263916016,-3.185119152069092,-2.215562343597412,-3.4487738609313965,1545.626467704773
D4:22:CD:00:49:AA,-175.4240264892578,-73.6371078491211,96.92662811279297,4.4955291748046875,1.0700623989105225,2.4180479049682617,1545.626467704773
D4:22:CD:00:05:6E,27.34455680847168,36.676387786865234,23.310222625732422,-1.1029610633850098,-10.528133392333984,-18.038177490234375,1545.626467704773
D4:22:CD:00:05:5E,-113.1572036743164,-48.37105941772461,-66.15596008300781,-2.9048104286193848,-2.7220964431762695,-12.713586807250977,1545.626467704773
D4:22:CD:00:05:5D,177.7126922607422,-69.92700958251953,32.29094314575195,-0.28775012493133545,-0.7702629566192627,0.5342788696289062,1545.65647482872
D4:22:CD:00:05:6B,-69.36369323730469,-84.12237548828125,-66.28009033203125,-6.5702619552612305,-3.3926820755004883,-4.5986480712890625,1545.65647482872
D4:22:CD:00:49:AA,177.07730102539062,-72.32261657714844,102.73892974853516,-4.119294166564941,3.2755990028381348,2.0704917907714844,1545.65647482872
D4:22:CD:00:05:6E,37.91130828857422,20.267988204956055,21.44819450378418,10.156656265258789,-7.6662445068359375,-16.466590881347656,1545.65647482872
D4:22:CD:00:05:5E,-122.04412841796875,-43.921993255615234,-55.58755111694336,-1.8529887199401855,0.6466975212097168,-16.153915405273438,1545.65647482872
D4:22:CD:00:05:5D,-176.15505981445312,-71.07857513427734,25.306257247924805,0.13136404752731323,0.3390779495239258,0.5984630584716797,1545.6867363452911
D4:22:CD:00:05:6B,-63.464942932128906,-81.95584869384766,-77.32331085205078,-7.702584266662598,-4.251069068908691,-5.586078643798828,1545.6867363452911
D4:22:CD:00:49:AA,172.5401611328125,-71.75934600830078,106.24118041992188,-6.324947357177734,1.3659892082214355,2.0884857177734375,1545.6867363452911
D4:22:CD:00:05:6E,57.70611572265625,7.611912250518799,20.00498390197754,10.014127731323242,-3.068453311920166,-12.400836944580078,1545.6867363452911
D4:22:CD:00:05:5E,-130.9801025390625,-40.63267135620117,-47.482398986816406,-1.9098241329193115,2.707712173461914,-14.702278137207031,1545.6867363452911
D4:22:CD:00:05:5D,-170.56480407714844,-72.29598999023438,18.689668655395508,-0.8041634559631348,0.4199875593185425,0.5868310928344727,1545.716056585312
D4:22:CD:00:05:6B,-59.13945388793945,-80.91822814941406,-86.6944808959961,-6.421535491943359,0.5735607147216797,-2.982548713684082,1545.716056585312
D4:22:CD:00:49:AA,172.59402465820312,-71.01802825927734,107.07596588134766,-1.2421927452087402,0.9056390523910522,-3.1336398124694824,1545.716056585312
D4:22:CD:00:05:6E,79.41157531738281,-1.865979790687561,21.52159309387207,3.7711496353149414,8.973197937011719,2.3540382385253906,1545.716056585312
D4:22:CD:00:05:5E,-138.54627990722656,-39.66685485839844,-41.3157958984375,-0.7378692626953125,1.602212905883789,-13.169473648071289,1545.716056585312
D4:22:CD:00:05:5D,-165.64022827148438,-73.62327575683594,12.018967628479004,0.5506916046142578,-0.3293280005455017,0.16109180450439453,1545.7461698055267
D4:22:CD:00:05:6B,-47.998931884765625,-80.20708465576172,-99.04192352294922,-4.399930000305176,0.7620112895965576,-1.5633964538574219,1545.7461698055267
D4:22:CD:00:49:AA,172.7096405029297,-69.94930267333984,108.56355285644531,-0.2292715311050415,2.761892318725586,-3.4905219078063965,1545.7461698055267
D4:22:CD:00:05:6E,89.50281524658203,-7.723060607910156,23.12909507751465,-12.247566223144531,6.8247575759887695,18.004798889160156,1545.7461698055267
D4:22:CD:00:05:5E,-145.7996368408203,-41.4434700012207,-36.18738555908203,-0.2134595811367035,-0.6197137832641602,-10.311845779418945,1545.7461698055267
D4:22:CD:00:05:5D,-160.82687377929688,-74.482666015625,4.638235569000244,2.2256031036376953,0.18827921152114868,-0.9298782348632812,1545.8067677021027
D4:22:CD:00:05:6B,-40.26911544799805,-78.85606384277344,-106.64485931396484,-3.4720568656921387,-0.368896484375,-2.3899388313293457,1545.8067677021027
D4:22:CD:00:49:AA,169.71556091308594,-68.90843963623047,110.98457336425781,-0.29903531074523926,0.7551487684249878,-2.822521209716797,1545.8067677021027
D4:22:CD:00:05:6E,92.69657897949219,-11.760239601135254,23.51889991760254,-4.830360412597656,-1.6048645973205566,-2.9316225051879883,1545.8067677021027
D4:22:CD:00:05:5E,-154.0462646484375,-45.719642639160156,-31.721769332885742,-1.2642414569854736,-6.18907356262207,-4.876773834228516,1545.8067677021027
D4:22:CD:00:05:5D,-160.497802734375,-73.50604248046875,2.964617967605591,3.5847768783569336,3.5972952842712402,-1.8431267738342285,1545.8363254070282
D4:22:CD:00:05:6B,-42.67041778564453,-76.66443634033203,-105.94088745117188,-1.4384174346923828,1.593909502029419,-2.8649344444274902,1545.8363254070282
D4:22:CD:00:49:AA,165.60345458984375,-68.13998413085938,113.10492706298828,-0.46934425830841064,-1.9284942150115967,-5.275234222412109,1545.8363254070282
D4:22:CD:00:05:6E,103.03305053710938,-17.96198081970215,22.857152938842773,-1.9684231281280518,1.0521326065063477,-0.12968826293945312,1545.8363254070282
D4:22:CD:00:05:5E,-161.79173278808594,-52.67155838012695,-28.105268478393555,6.312234878540039,-5.317305564880371,1.7740325927734375,1545.8363254070282
D4:22:CD:00:05:5D,-164.87364196777344,-70.78416442871094,7.939957618713379,2.025424003601074,3.467197895050049,-0.502507209777832,1545.866338968277
D4:22:CD:00:05:6B,-45.82566452026367,-73.77676391601562,-104.14279174804688,-0.8619332313537598,4.151055335998535,-4.060153961181641,1545.866338968277
D4:22:CD:00:49:AA,162.03988647460938,-67.43223571777344,114.9268569946289,-1.8884272575378418,-1.6143436431884766,-4.327335357666016,1545.866338968277
D4:22:CD:00:05:6E,111.96168518066406,-26.73933219909668,20.965730667114258,0.25800496339797974,-1.9154348373413086,3.2565412521362305,1545.866338968277
D4:22:CD:00:05:5E,-162.84429931640625,-61.240848541259766,-25.48099708557129,-7.592236518859863,4.307025909423828,13.650819778442383,1545.866338968277
D4:22:CD:00:05:5D,-172.46571350097656,-66.91061401367188,17.302085876464844,2.3587608337402344,-1.6463768482208252,-2.2206974029541016,1545.8960540294647
D4:22:CD:00:05:6B,-44.97346115112305,-70.44245147705078,-103.75715637207031,-0.8870102167129517,4.425662994384766,-4.291955947875977,1545.8960540294647
D4:22:CD:00:49:AA,159.38262939453125,-67.64556121826172,117.08048248291016,-4.373696327209473,-0.5547226667404175,-2.4714150428771973,1545.8960540294647
D4:22:CD:00:05:6E,113.09040069580078,-38.57433319091797,18.777441024780273,1.0485498905181885,-2.461845874786377,4.093859672546387,1545.8960540294647
D4:22:CD:00:05:5E,-160.60105895996094,-64.06182861328125,-22.73470687866211,1.0151112079620361,-8.114717483520508,3.6483917236328125,1545.8960540294647
D4:22:CD:00:05:5D,-177.93833923339844,-62.15998840332031,26.463367462158203,0.17909851670265198,2.4766793251037598,1.1350746154785156,1545.9264543056488
D4:22:CD:00:05:6B,-46.23940658569336,-66.59027099609375,-101.25814056396484,-1.4479444026947021,4.770101547241211,-3.8369226455688477,1545.9264543056488
D4:22:CD:00:49:AA,157.50692749023438,-68.80298614501953,120.81749725341797,-3.633389949798584,-2.137871742248535,-3.287977695465088,1545.9264543056488
D4:22:CD:00:05:6E,106.73716735839844,-53.959712982177734,16.364700317382812,4.328076362609863,-1.9076688289642334,10.598237991333008,1545.9264543056488
D4:22:CD:00:05:5E,-163.16139221191406,-65.71038055419922,-19.108375549316406,2.946681499481201,1.2458910942077637,11.838277816772461,1545.9264543056488
D4:22:CD:00:05:5D,178.7632293701172,-57.25806427001953,33.53849411010742,-3.1476659774780273,0.6723736524581909,0.5083770751953125,1545.9565663337708
D4:22:CD:00:05:6B,-53.891422271728516,-61.76749038696289,-94.38568878173828,-3.878641128540039,10.796266555786133,1.1794519424438477,1545.9565663337708
D4:22:CD:00:49:AA,155.596435546875,-69.12163543701172,125.49583435058594,0.9626131057739258,0.22237637639045715,2.333860397338867,1545.9565663337708
D4:22:CD:00:05:6E,87.53141784667969,-68.83985900878906,20.448352813720703,5.308555603027344,-1.9885938167572021,31.505569458007812,1545.9565663337708
D4:22:CD:00:05:5E,-162.314697265625,-67.01229858398438,-16.16269302368164,3.0155882835388184,2.4640116691589355,9.444255828857422,1545.9565663337708
D4:22:CD:00:05:5D,175.4424285888672,-52.79671859741211,38.395503997802734,3.768584728240967,-1.484403371810913,4.3299713134765625,1545.9867639541626
D4:22:CD:00:05:6B,-69.43344116210938,-52.9013557434082,-82.60649871826172,-9.142749786376953,18.14667510986328,15.807804107666016,1545.9867639541626
D4:22:CD:00:49:AA,152.78639221191406,-70.79961395263672,129.86146545410156,1.986271619796753,4.182849884033203,3.603938102722168,1545.9867639541626
D4:22:CD:00:05:6E,68.38076782226562,-69.54264068603516,20.570642471313477,11.708904266357422,-0.32827818393707275,8.566747665405273,1545.9867639541626
D4:22:CD:00:05:5E,-161.88668823242188,-66.65089416503906,-15.494889259338379,-0.44385063648223877,-8.527137756347656,11.923643112182617,1545.9867639541626
D4:22:CD:00:05:5D,173.30062866210938,-48.4036865234375,42.480751037597656,-0.8046889305114746,-0.5273009538650513,-3.714995861053467,1546.015962600708
D4:22:CD:00:05:6B,-79.09513092041016,-38.35308837890625,-72.67560577392578,-1.5676631927490234,21.8841552734375,20.42281723022461,1546.015962600708
D4:22:CD:00:49:AA,150.70944213867188,-71.6551742553711,132.8408966064453,-4.844809532165527,7.288220405578613,12.730113983154297,1546.015962600708
D4:22:CD:00:05:6E,73.50889587402344,-59.86414337158203,12.416764259338379,33.798370361328125,-9.637250900268555,6.34033203125,1546.015962600708
D4:22:CD:00:05:5E,-161.44085693359375,-64.25236511230469,-17.166763305664062,0.858149528503418,-8.035337448120117,13.757644653320312,1546.015962600708
D4:22:CD:00:05:5D,174.13377380371094,-45.45957565307617,45.789085388183594,-9.700185775756836,-1.0230388641357422,-1.7619924545288086,1546.046122789383
D4:22:CD:00:05:6B,-76.46440887451172,-21.26067543029785,-65.86429595947266,5.130609512329102,13.642004013061523,22.40605926513672,1546.046122789383
D4:22:CD:00:49:AA,148.1645050048828,-71.90165710449219,135.48007202148438,1.9207227230072021,3.7482080459594727,13.241903305053711,1546.046122789383
D4:22:CD:00:05:6E,84.36222839355469,-50.707908630371094,17.459941864013672,18.672348022460938,12.591552734375,8.014444351196289,1546.046122789383
D4:22:CD:00:05:5E,-158.63299560546875,-61.18881607055664,-18.996273040771484,11.182527542114258,-7.853921890258789,16.36574935913086,1546.046122789383
D4:22:CD:00:05:5D,173.94631958007812,-44.9869384765625,47.03250503540039,-1.9934451580047607,1.141218662261963,3.9715070724487305,1546.10653424263
D4:22:CD:00:05:6B,-64.74290466308594,-5.390925884246826,-60.71481704711914,7.244678497314453,0.17016243934631348,16.933326721191406,1546.10653424263
D4:22:CD:00:49:AA,144.2417449951172,-72.3114013671875,138.0117950439453,-3.535168170928955,0.05810129642486572,11.590934753417969,1546.10653424263
D4:22:CD:00:05:6E,87.94513702392578,-47.531185150146484,23.410572052001953,11.540809631347656,15.255128860473633,8.062286376953125,1546.10653424263
D4:22:CD:00:05:5E,-156.09593200683594,-58.33678436279297,-20.291385650634766,10.82305908203125,-10.613182067871094,6.61182975769043,1546.10653424263
D4:22:CD:00:05:5D,173.54847717285156,-46.63840866088867,48.32267379760742,2.152306079864502,-3.5577945709228516,2.276614189147949,1546.1368656158447
D4:22:CD:00:05:6B,-54.44873809814453,7.59461784362793,-56.52292251586914,3.6738786697387695,-2.7184576988220215,8.61557388305664,1546.1368656158447
D4:22:CD:00:49:AA,140.29913330078125,-72.93767547607422,141.45811462402344,-8.524484634399414,-4.095912933349609,5.6372528076171875,1546.1368656158447
D4:22:CD:00:05:6E,89.13751983642578,-49.727081298828125,26.314544677734375,3.4003381729125977,5.341291427612305,8.31541633605957,1546.1368656158447
D4:22:CD:00:05:5E,-157.54144287109375,-55.747291564941406,-18.413711547851562,4.138937950134277,-10.388263702392578,8.05511474609375,1546.1368656158447
D4:22:CD:00:05:5D,174.16082763671875,-50.11766815185547,49.94892883300781,1.7131712436676025,-1.6819806098937988,3.321483612060547,1546.1668727397919
D4:22:CD:00:05:6B,-46.85021209716797,16.574796676635742,-51.95886993408203,-3.988668441772461,-2.996253490447998,12.196043014526367,1546.1668727397919
D4:22:CD:00:49:AA,138.60330200195312,-74.07904052734375,144.97425842285156,-6.503702163696289,-1.7803428173065186,2.1710128784179688,1546.1668727397919
D4:22:CD:00:05:6E,94.27578735351562,-54.25779342651367,28.907745361328125,-4.87619686126709,0.820069432258606,3.891371726989746,1546.1668727397919
D4:22:CD:00:05:5E,-157.54061889648438,-56.820152282714844,-16.625043869018555,2.5756940841674805,3.8027172088623047,1.1209735870361328,1546.1668727397919
D4:22:CD:00:05:5D,175.124267578125,-54.81130599975586,51.052825927734375,3.529013156890869,2.1837210655212402,7.592037200927734,1546.1963956356049
D4:22:CD:00:05:6B,-36.308349609375,22.16614532470703,-48.92068099975586,-14.623445510864258,-6.124455451965332,3.2527923583984375,1546.1963956356049
D4:22:CD:00:49:AA,141.7923583984375,-76.14411163330078,145.55206298828125,-1.9965441226959229,-1.755955696105957,0.22241878509521484,1546.1963956356049
D4:22:CD:00:05:6E,99.92686462402344,-59.93555450439453,33.53974151611328,-10.440601348876953,-1.612201452255249,-2.5582785606384277,1546.1963956356049
D4:22:CD:00:05:5E,-153.1306915283203,-60.811195373535156,-18.498783111572266,-0.36468666791915894,7.5363311767578125,-7.25601863861084,1546.1963956356049
D4:22:CD:00:05:5D,174.26280212402344,-59.885719299316406,52.981895446777344,3.1510143280029297,6.590069770812988,6.806266784667969,1546.226399421692
D4:22:CD:00:05:6B,-24.525789260864258,26.518142700195312,-47.425838470458984,-11.25478744506836,-1.7438373565673828,-8.423402786254883,1546.226399421692
D4:22:CD:00:49:AA,149.78506469726562,-78.15956115722656,142.0946807861328,2.4741978645324707,1.018653154373169,-3.5681400299072266,1546.226399421692
D4:22:CD:00:05:6E,103.19549560546875,-64.91835021972656,41.42961120605469,-7.811556816101074,-3.048463821411133,-5.64427375793457,1546.226399421692
D4:22:CD:00:05:5E,-145.3173370361328,-66.34715270996094,-26.368255615234375,-0.607990026473999,10.232612609863281,-11.455848693847656,1546.226399421692
D4:22:CD:00:05:5D,170.99595642089844,-65.36697387695312,55.18805694580078,0.9756977558135986,9.916593551635742,-0.5386009216308594,1546.2563967704773
D4:22:CD:00:05:6B,-15.856731414794922,31.564687728881836,-48.18204879760742,-6.278354644775391,-0.8391568660736084,-12.759258270263672,1546.2563967704773
D4:22:CD:00:49:AA,157.75469970703125,-79.7928466796875,137.0478057861328,3.5601625442504883,3.0629091262817383,-6.346133232116699,1546.2563967704773
D4:22:CD:00:05:6E,106.0085678100586,-68.16735076904297,52.683319091796875,-7.124164581298828,-2.2330322265625,-7.909473419189453,1546.2563967704773
D4:22:CD:00:05:5E,-129.3511505126953,-72.19356536865234,-43.79533386230469,0.6085962057113647,7.896317481994629,-11.066154479980469,1546.2563967704773
D4:22:CD:00:05:5D,163.4569854736328,-67.80479431152344,58.928016662597656,-9.820344924926758,5.292801856994629,-7.805939674377441,1546.2862157821655
D4:22:CD:00:05:6B,-8.221905708312988,37.44309997558594,-52.51527786254883,-4.8525495529174805,-0.9369276762008667,-15.199954986572266,1546.2862157821655
D4:22:CD:00:49:AA,158.48463439941406,-81.9087142944336,137.81903076171875,1.4831223487854004,2.7739758491516113,-10.366521835327148,1546.2862157821655
D4:22:CD:00:05:6E,110.80856323242188,-69.82704162597656,62.9160270690918,-6.39090633392334,-4.882291793823242,-8.566457748413086,1546.2862157821655
D4:22:CD:00:05:5E,-98.00615692138672,-75.64192199707031,-78.2385482788086,-0.5118286609649658,2.8702187538146973,-6.971297264099121,1546.2862157821655
D4:22:CD:00:05:5D,164.8316650390625,-68.93828582763672,61.87338638305664,-0.40371274948120117,7.679381370544434,-9.088470458984375,1546.3164570331573
D4:22:CD:00:05:6B,-1.7230764627456665,43.79228210449219,-61.933982849121094,-0.05889724940061569,0.1436053216457367,-14.378612518310547,1546.3164570331573
D4:22:CD:00:49:AA,150.22132873535156,-84.22789764404297,147.58779907226562,-0.9823124408721924,1.6536784172058105,-10.637208938598633,1546.3164570331573
D4:22:CD:00:05:6E,115.62484741210938,-70.28881072998047,69.66068267822266,-1.8399403095245361,-7.840908050537109,-7.683023452758789,1546.3164570331573
D4:22:CD:00:05:5E,-66.38758087158203,-72.89851379394531,-115.81863403320312,-7.7986345291137695,-3.2362265586853027,-5.300632476806641,1546.3164570331573
D4:22:CD:00:05:5D,168.02186584472656,-71.81481170654297,59.52448272705078,-2.2847213745117188,3.2948741912841797,-7.939658164978027,1546.3466217517853
D4:22:CD:00:05:6B,-0.9761661887168884,48.82796096801758,-80.48680877685547,0.7870908975601196,4.2752532958984375,-14.940437316894531,1546.3466217517853
D4:22:CD:00:49:AA,130.04275512695312,-85.86615753173828,168.97019958496094,0.5092955827713013,1.697312593460083,-10.029579162597656,1546.3466217517853
D4:22:CD:00:05:6E,115.69160461425781,-69.09288024902344,76.275390625,3.481306552886963,-9.326303482055664,-7.135405540466309,1546.3466217517853
D4:22:CD:00:05:5E,-56.54807662963867,-66.48157501220703,-135.21728515625,-18.36398696899414,-6.030223846435547,-3.229921340942383,1546.3466217517853
