Device,EulerX,EulerY,EulerZ,FreeAccX,FreeAccY,FreeAccZ,Timestamp
D4:22:CD:00:05:5D,-178.8021697998047,-67.14835357666016,-116.17463684082031,-3.4365644454956055,-3.8144631385803223,8.760982513427734,608.2678616046906
D4:22:CD:00:05:6B,-3.035355806350708,32.46302032470703,-15.635522842407227,-0.7976044416427612,-2.944645404815674,-0.9577884674072266,608.2678616046906
D4:22:CD:00:49:AA,163.19775390625,-70.81200408935547,143.4752655029297,-3.4888916015625,-1.9757838249206543,-1.9591093063354492,608.2678616046906
D4:22:CD:00:05:6E,107.92660522460938,-47.44276428222656,47.989749908447266,1.0290520191192627,-4.85542106628418,5.570563316345215,608.2678616046906
D4:22:CD:00:05:5E,-142.99305725097656,-19.80584144592285,-69.12982177734375,0.6499204635620117,1.9704875946044922,-6.70906925201416,608.2678616046906
D4:22:CD:00:05:5D,173.24110412597656,-72.98855590820312,-112.30517578125,-5.795555114746094,-5.282123565673828,0.6527223587036133,608.2808611392975
D4:22:CD:00:05:6B,-10.48903751373291,35.200809478759766,-15.45177173614502,0.3561666011810303,1.8752772808074951,-6.229804039001465,608.2808611392975
D4:22:CD:00:49:AA,170.51644897460938,-71.87178802490234,141.0628662109375,-0.8217942714691162,-1.3310635089874268,-7.64778995513916,608.2808611392975
D4:22:CD:00:05:6E,112.31342315673828,-52.616943359375,44.55287170410156,3.3610482215881348,-3.0835533142089844,-2.188415050506592,608.2808611392975
D4:22:CD:00:05:5E,-141.2050323486328,-27.9979305267334,-76.72364044189453,-4.736385345458984,3.384716510772705,-6.653347015380859,608.2808611392975
D4:22:CD:00:05:5D,164.19400024414062,-74.53046417236328,-100.74569702148438,1.2741713523864746,-4.428535461425781,-9.121160507202148,608.2898604869843
D4:22:CD:00:05:6B,-18.86123275756836,37.30359649658203,-20.26845359802246,2.535208225250244,-6.920494079589844,-8.24053955078125,608.2898604869843
D4:22:CD:00:49:AA,173.44825744628906,-72.8428955078125,140.7218475341797,2.557286262512207,3.4207653999328613,-8.729330062866211,608.2898604869843
D4:22:CD:00:05:6E,119.2057113647461,-57.29182052612305,40.91729736328125,2.6639437675476074,-2.6370649337768555,-5.702024459838867,608.2898604869843
D4:22:CD:00:05:5E,-139.97537231445312,-35.803470611572266,-84.11322021484375,-6.250516891479492,2.222822666168213,-4.781408309936523,608.2898604869843
D4:22:CD:00:05:5D,152.13169860839844,-74.26329040527344,-136.0839080810547,5.125906944274902,0.9714920520782471,0.04779624938964844,608.2978553771973
D4:22:CD:00:05:6B,-23.030071258544922,38.419254302978516,-32.93824768066406,2.4833312034606934,-0.4892927408218384,-12.433691024780273,608.2978553771973
D4:22:CD:00:49:AA,174.14138793945312,-74.73548126220703,141.3065948486328,2.220027446746826,2.9576382637023926,-8.828313827514648,608.2978553771973
D4:22:CD:00:05:6E,127.1478271484375,-61.504878997802734,37.62810516357422,1.5557208061218262,-4.3406524658203125,-8.06939697265625,608.2978553771973
D4:22:CD:00:05:5E,-137.99266052246094,-42.84865951538086,-92.5744857788086,-9.128120422363281,-2.27487850189209,-0.8959169387817383,608.2978553771973
D4:22:CD:00:05:5D,176.45484924316406,-48.10302734375,-149.9810791015625,-1.1638474464416504,1.5605857372283936,4.559621810913086,608.3038697242737
D4:22:CD:00:05:6B,-38.435428619384766,5.967674255371094,-43.167118072509766,6.456579208374023,-16.464439392089844,24.762271881103516,608.3038697242737
D4:22:CD:00:49:AA,171.94288635253906,-73.35975646972656,111.32535552978516,-2.9152846336364746,-1.8329706192016602,6.545583724975586,608.3038697242737
D4:22:CD:00:05:6E,135.19058227539062,-60.80405044555664,-20.344013214111328,1.209609031677246,-4.80001163482666,7.8220672607421875,608.3038697242737
D4:22:CD:00:05:5D,179.3075408935547,-48.779884338378906,-150.1383056640625,-0.4155195355415344,1.1338589191436768,1.8539619445800781,608.3334021568298
D4:22:CD:00:05:6B,-22.582237243652344,14.26639175415039,-36.916507720947266,8.281732559204102,-14.362432479858398,6.878719329833984,608.3334021568298
D4:22:CD:00:49:AA,177.9557647705078,-73.55644226074219,108.97350311279297,-4.600494384765625,-0.430198073387146,5.667153358459473,608.3334021568298
D4:22:CD:00:05:6E,131.4302978515625,-63.96872329711914,-16.61542510986328,2.8653016090393066,-3.4520487785339355,6.270029067993164,608.3334021568298
D4:22:CD:00:05:5E,168.24114990234375,-59.195472717285156,-67.20629119873047,8.748907089233398,5.616168975830078,2.2891149520874023,608.3334021568298
D4:22:CD:00:05:5D,-178.44874572753906,-50.80540466308594,-150.40663146972656,-2.02974796295166,1.7458221912384033,1.933624267578125,608.3633890151978
D4:22:CD:00:05:6B,-8.985718727111816,19.939735412597656,-31.605775833129883,6.322381973266602,-7.396453857421875,-1.4349651336669922,608.3633890151978
D4:22:CD:00:49:AA,-168.45852661132812,-74.52586364746094,99.84317016601562,-0.5755007266998291,-0.21249845623970032,3.37646484375,608.3633890151978
D4:22:CD:00:05:6E,139.4023895263672,-72.5268325805664,-17.43778419494629,-1.8988571166992188,-0.9322546720504761,4.753603935241699,608.3633890151978
D4:22:CD:00:05:5E,-149.3769073486328,-53.968135833740234,-102.82769012451172,6.3345537185668945,6.292793273925781,-3.652440071105957,608.3633890151978
D4:22:CD:00:05:5D,-176.37826538085938,-54.21675109863281,-151.0208740234375,-4.210219383239746,3.863959312438965,4.774779319763184,608.3933885097504
D4:22:CD:00:05:6B,1.3367506265640259,23.349674224853516,-28.511905670166016,0.2847137451171875,-3.3005056381225586,-4.795905113220215,608.3933885097504
D4:22:CD:00:49:AA,-157.02317810058594,-74.05088806152344,94.42764282226562,1.8607594966888428,1.4767024517059326,0.4078207015991211,608.3933885097504
D4:22:CD:00:05:6E,158.97166442871094,-75.0684814453125,-24.823261260986328,-7.53054141998291,-2.1691884994506836,5.152056694030762,608.3933885097504
D4:22:CD:00:05:5E,-129.12013244628906,-45.01087188720703,-118.45073699951172,8.303213119506836,7.092764854431152,-7.801616668701172,608.3933885097504
D4:22:CD:00:05:5D,-176.1953887939453,-58.67951583862305,-149.95179748535156,-8.649942398071289,2.8656015396118164,7.911159515380859,608.453914642334
D4:22:CD:00:05:6B,4.585021018981934,24.73843765258789,-27.328868865966797,-2.930572509765625,-0.020766854286193848,-7.407061576843262,608.453914642334
D4:22:CD:00:49:AA,-150.44593811035156,-73.13325500488281,92.2138900756836,2.3118247985839844,1.7211484909057617,-2.4685049057006836,608.453914642334
D4:22:CD:00:05:6E,168.6741180419922,-72.62715911865234,-20.617284774780273,-5.321028709411621,-5.345285415649414,0.8670015335083008,608.453914642334
D4:22:CD:00:05:5E,-116.13944244384766,-37.041202545166016,-130.5716552734375,5.742919921875,3.884477138519287,-8.84686279296875,608.453914642334
D4:22:CD:00:05:5D,-179.34970092773438,-64.72937774658203,-149.037109375,-12.091163635253906,-3.6061954498291016,4.813376426696777,608.4834098815918
D4:22:CD:00:05:6B,0.9946870803833008,23.837291717529297,-30.418319702148438,-1.6939563751220703,4.590238571166992,-9.247652053833008,608.4834098815918
D4:22:CD:00:49:AA,-148.4889373779297,-73.03983306884766,91.02529907226562,4.551135063171387,0.2864300608634949,-5.237199783325195,608.4834098815918
D4:22:CD:00:05:6E,174.69976806640625,-69.95028686523438,-10.630977630615234,-4.3539276123046875,-7.474250793457031,-1.4220466613769531,608.4834098815918
D4:22:CD:00:05:5E,-110.8181381225586,-31.164108276367188,-140.6061248779297,2.4674863815307617,3.9213595390319824,-11.545347213745117,608.4834098815918
D4:22:CD:00:05:5D,169.98045349121094,-68.36803436279297,-143.49192810058594,2.827261447906494,-8.600507736206055,-8.857894897460938,608.5137038230896
D4:22:CD:00:05:6B,-2.5193698406219482,21.676410675048828,-38.410892486572266,0.49573957920074463,-0.11269867420196533,-7.79824161529541,608.5137038230896
D4:22:CD:00:49:AA,-148.73118591308594,-73.70272827148438,90.92222595214844,0.5102115869522095,1.7158706188201904,-9.846977233886719,608.5137038230896
D4:22:CD:00:05:6E,174.74949645996094,-67.02674865722656,-0.09994012862443924,-2.2026896476745605,-10.023805618286133,-5.649489402770996,608.5137038230896
D4:22:CD:00:05:5E,-109.37742614746094,-28.231441497802734,-149.48492431640625,-0.11141248047351837,4.202411651611328,-12.62899398803711,608.5137038230896
D4:22:CD:00:05:5D,164.05422973632812,-73.1263656616211,-135.33204650878906,0.7807906866073608,-8.904441833496094,-11.048294067382812,608.5734782218933
D4:22:CD:00:05:6B,-1.2895737886428833,18.987573623657227,-50.19588088989258,-1.882012128829956,0.9215296506881714,-9.25767707824707,608.5734782218933
D4:22:CD:00:49:AA,-146.59884643554688,-75.93588256835938,90.53165435791016,-2.85174560546875,0.6039190292358398,-9.056602478027344,608.5734782218933
D4:22:CD:00:05:6E,170.17019653320312,-63.09953689575195,9.733686447143555,1.0938456058502197,-7.1974992752075195,-8.944826126098633,608.5734782218933
D4:22:CD:00:05:5E,-108.11592864990234,-27.809741973876953,-158.2548828125,-2.7812867164611816,4.404980659484863,-10.501752853393555,608.5734782218933
D4:22:CD:00:05:5D,154.55670166015625,-80.01629638671875,-125.27581024169922,5.148075103759766,-1.2481584548950195,-6.34641170501709,608.5794806480408
D4:22:CD:00:05:6B,5.403987884521484,15.710394859313965,-66.13613891601562,0.5411592721939087,-2.2144932746887207,-9.28359603881836,608.5794806480408
D4:22:CD:00:49:AA,-139.7474365234375,-78.27171325683594,86.14994812011719,0.170034259557724,-1.8454887866973877,-8.634883880615234,608.5794806480408
D4:22:CD:00:05:6E,166.94580078125,-58.88212585449219,17.380035400390625,3.251923084259033,-5.58930778503418,-11.173587799072266,608.5794806480408
D4:22:CD:00:05:5E,-109.86389923095703,-29.606889724731445,-166.30755615234375,-11.211021423339844,9.178560256958008,-11.575119018554688,608.5794806480408
D4:22:CD:00:05:5D,152.7027130126953,-81.78264617919922,-120.4463882446289,12.80177116394043,17.842769622802734,-0.8545742034912109,608.6035821437836
D4:22:CD:00:05:6B,12.425527572631836,11.172919273376465,-85.3898696899414,-1.26359224319458,-16.77783966064453,-13.112693786621094,608.6035821437836
D4:22:CD:00:49:AA,-129.96817016601562,-79.36958312988281,78.51753997802734,1.740370273590088,1.106273889541626,-3.8986682891845703,608.6035821437836
D4:22:CD:00:05:6E,164.35366821289062,-54.94581604003906,23.508846282958984,3.7114105224609375,-6.670621871948242,-10.20843505859375,608.6035821437836
D4:22:CD:00:05:5E,-116.31765747070312,-33.4504280090332,-171.9336395263672,-14.275413513183594,14.035133361816406,-5.407177925109863,608.6035821437836
D4:22:CD:00:05:5D,151.7095184326172,-80.0997085571289,-115.32528686523438,-1.338810920715332,1.4245002269744873,-2.8095669746398926,608.633118391037
D4:22:CD:00:05:6B,30.132400512695312,12.49563980102539,-105.36515045166016,-21.331310272216797,-36.94367218017578,-10.999744415283203,608.633118391037
D4:22:CD:00:49:AA,-125.45848846435547,-79.7384262084961,73.9295425415039,2.4749507904052734,3.229565143585205,-0.056817054748535156,608.633118391037
D4:22:CD:00:05:6E,160.0348358154297,-51.88304138183594,27.814495086669922,5.813907623291016,-8.027313232421875,-7.089414596557617,608.633118391037
D4:22:CD:00:05:5E,-123.7516098022461,-37.49833679199219,-172.94259643554688,-6.8387298583984375,18.417190551757812,-0.43799495697021484,608.633118391037
D4:22:CD:00:05:5D,150.6526641845703,-78.74044036865234,-111.32330322265625,-0.08652007579803467,-1.4453017711639404,1.1265792846679688,608.6631112098694
D4:22:CD:00:05:6B,19.813121795654297,13.75391960144043,-100.8670654296875,24.681053161621094,14.47667121887207,-5.567427635192871,608.6631112098694
D4:22:CD:00:49:AA,-128.70616149902344,-79.90345764160156,75.4833755493164,-1.4088175296783447,-2.2614474296569824,-0.9244918823242188,608.6631112098694
D4:22:CD:00:05:6E,152.95616149902344,-50.992897033691406,32.0124626159668,7.237432479858398,-3.417468547821045,-5.265130996704102,608.6631112098694
D4:22:CD:00:05:5E,-132.6619873046875,-38.466888427734375,-167.4617156982422,-2.737227439880371,29.062801361083984,5.640281677246094,608.6631112098694
D4:22:CD:00:05:5D,148.3535614013672,-77.56417846679688,-107.91325378417969,-1.1889774799346924,-0.6444170475006104,2.2433605194091797,608.6933190822601
D4:22:CD:00:05:6B,-9.629154205322266,15.170103073120117,-88.0926284790039,-6.069726943969727,-4.2687530517578125,-11.281547546386719,608.6933190822601
D4:22:CD:00:49:AA,-140.19924926757812,-79.64849090576172,84.12555694580078,-0.8114011287689209,-1.632857084274292,0.46525096893310547,608.6933190822601
D4:22:CD:00:05:6E,148.56097412109375,-52.859397888183594,36.220787048339844,8.039188385009766,-0.5898532867431641,-0.928532600402832,608.6933190822601
D4:22:CD:00:05:5E,-143.48793029785156,-36.64826583862305,-160.1084747314453,-13.094572067260742,-13.246952056884766,-11.944257736206055,608.6933190822601
D4:22:CD:00:05:5D,142.51527404785156,-76.44029235839844,-103.96778106689453,-1.205204963684082,-0.7483294010162354,3.288119316101074,608.7538371086121
D4:22:CD:00:05:6B,-17.82666778564453,18.857606887817383,-79.4022445678711,-1.9260694980621338,-4.4600934982299805,-11.27680778503418,608.7538371086121
D4:22:CD:00:49:AA,-147.1454620361328,-79.0855712890625,87.10296630859375,0.3909241557121277,-2.22037935256958,1.7096099853515625,608.7538371086121
D4:22:CD:00:05:6E,142.96780395507812,-54.95204544067383,37.4560546875,6.711853981018066,-3.107583999633789,-0.5511493682861328,608.7538371086121
D4:22:CD:00:05:5E,-148.58013916015625,-37.06572341918945,-155.1490478515625,-15.235010147094727,-3.202108383178711,3.5577898025512695,608.7538371086121
D4:22:CD:00:05:5D,134.46359252929688,-75.18453216552734,-98.76639556884766,-1.091264009475708,-1.910033941268921,1.8160858154296875,608.7833905220032
D4:22:CD:00:05:6B,-22.990175247192383,21.73124122619629,-68.14195251464844,-3.3354740142822266,-12.598749160766602,-9.40870475769043,608.7833905220032
D4:22:CD:00:49:AA,-153.77694702148438,-78.26859283447266,88.59174346923828,2.704030990600586,-0.8514120578765869,-0.6765336990356445,608.7833905220032
D4:22:CD:00:05:6E,133.24635314941406,-55.55685043334961,35.16310119628906,9.732873916625977,-0.9027500152587891,1.5343694686889648,608.7833905220032
D4:22:CD:00:05:5E,-157.50289916992188,-37.30841827392578,-150.28160095214844,-22.693504333496094,-5.162045478820801,-3.142955780029297,608.7833905220032
D4:22:CD:00:05:5D,128.15426635742188,-73.62151336669922,-95.62635803222656,0.08391301333904266,-4.785671234130859,4.30921745300293,608.813601732254
D4:22:CD:00:05:6B,-26.136159896850586,23.312782287597656,-55.48329162597656,-2.4376587867736816,-9.604034423828125,-11.613956451416016,608.813601732254
D4:22:CD:00:49:AA,-159.4249725341797,-76.51973724365234,89.30944061279297,3.7192959785461426,-2.944943904876709,-2.0013675689697266,608.813601732254
D4:22:CD:00:05:6E,120.37614440917969,-54.98862075805664,33.919132232666016,10.271003723144531,6.094634056091309,0.10350513458251953,608.813601732254
D4:22:CD:00:05:5E,-157.7667236328125,-38.84273910522461,-146.92596435546875,0.8026778697967529,0.7187749147415161,-2.1543631553649902,608.813601732254
D4:22:CD:00:05:5D,121.5656509399414,-72.69054412841797,-96.24555206298828,8.624900817871094,-6.899332046508789,4.796749114990234,608.8432283401489
D4:22:CD:00:05:6B,-27.04431915283203,22.8546085357666,-43.919063568115234,-4.028729438781738,-6.306526184082031,-3.189944267272949,608.8432283401489
D4:22:CD:00:49:AA,-157.66812133789062,-74.34330749511719,86.25,-0.20392003655433655,-0.8129541873931885,2.463637351989746,608.8432283401489
D4:22:CD:00:05:6E,107.72349548339844,-54.22688293457031,34.492271423339844,4.154060363769531,11.283641815185547,-1.951612949371338,608.8432283401489
D4:22:CD:00:05:5E,-156.78428649902344,-37.5476188659668,-145.12432861328125,-8.115694046020508,-3.2251439094543457,0.45394134521484375,608.8432283401489
D4:22:CD:00:05:5D,126.41606903076172,-68.90201568603516,-111.13587188720703,25.578868865966797,2.516143798828125,6.405834197998047,608.8732361793518
D4:22:CD:00:05:6B,-25.497140884399414,20.421621322631836,-34.80686569213867,-14.455575942993164,-2.9211745262145996,3.724842071533203,608.8732361793518
D4:22:CD:00:49:AA,-155.32229614257812,-73.30724334716797,85.72321319580078,1.1070704460144043,3.9005961418151855,-0.6273860931396484,608.8732361793518
D4:22:CD:00:05:6E,98.31914520263672,-54.93783950805664,37.006656646728516,7.938668251037598,12.364082336425781,-5.507369041442871,608.8732361793518
D4:22:CD:00:05:5E,-157.37237548828125,-35.97127914428711,-143.91448974609375,-6.224640846252441,-1.0507330894470215,-1.762685775756836,608.8732361793518
D4:22:CD:00:05:5D,138.2181854248047,-60.04536056518555,-128.73529052734375,16.826263427734375,-1.1139588356018066,4.419136047363281,608.9036803245544
D4:22:CD:00:05:6B,-22.955081939697266,13.535520553588867,-28.272932052612305,-2.8700575828552246,19.235172271728516,-6.416012763977051,608.9036803245544
D4:22:CD:00:49:AA,-155.24465942382812,-71.75756072998047,87.23717498779297,1.1781799793243408,3.8035759925842285,1.322312355041504,608.9036803245544
D4:22:CD:00:05:6E,97.54570007324219,-56.805084228515625,43.268611907958984,-0.3514953851699829,11.410873413085938,-0.5028238296508789,608.9036803245544
D4:22:CD:00:05:5E,-158.0806427001953,-34.91886520385742,-142.8039093017578,-6.618259429931641,-2.461301803588867,-1.4090290069580078,608.9036803245544
D4:22:CD:00:05:5D,146.6483917236328,-48.39351272583008,-142.2131805419922,6.82767391204834,-3.104076385498047,-0.6661376953125,608.9342157840729
D4:22:CD:00:05:6B,-37.155487060546875,3.313558578491211,-24.8924503326416,1.912755012512207,27.069122314453125,-16.291309356689453,608.9342157840729
D4:22:CD:00:49:AA,-154.8517608642578,-71.03742980957031,88.9840316772461,4.2577314376831055,0.6115399599075317,4.462416648864746,608.9342157840729
D4:22:CD:00:05:6E,100.49871063232422,-57.97758483886719,49.47809982299805,-5.909554481506348,9.524946212768555,2.663262367248535,608.9342157840729
D4:22:CD:00:05:5E,-158.39991760253906,-34.2501335144043,-141.6764678955078,-7.02017879486084,-0.8749041557312012,-2.615489959716797,608.9342157840729
D4:22:CD:00:05:5D,153.15078735351562,-36.06572341918945,-151.092529296875,-1.0971436500549316,0.3640453815460205,-5.850903511047363,608.9632036685944
D4:22:CD:00:05:6B,-58.755821228027344,-10.786983489990234,-23.375398635864258,-11.54604721069336,-6.761280059814453,21.589767456054688,608.9632036685944
D4:22:CD:00:49:AA,-155.23126220703125,-71.61788940429688,90.43885040283203,6.332675933837891,3.288461685180664,2.1820859909057617,608.9632036685944
D4:22:CD:00:05:6E,103.7043685913086,-58.026275634765625,52.76850509643555,-4.035712242126465,4.310735702514648,3.5307064056396484,608.9632036685944
D4:22:CD:00:05:5E,-158.49937438964844,-33.778099060058594,-140.96224975585938,-6.766666412353516,-1.2788801193237305,-2.537428379058838,608.9632036685944
D4:22:CD:00:05:5D,158.56365966796875,-25.042049407958984,-156.42080688476562,-2.316502094268799,2.496290683746338,-10.253835678100586,608.9932024478912
D4:22:CD:00:05:6B,-62.0604248046875,-21.085214614868164,-18.00275993347168,-13.357465744018555,14.586116790771484,14.692144393920898,608.9932024478912
D4:22:CD:00:49:AA,-155.95059204101562,-72.59933471679688,90.85160827636719,3.820068836212158,2.054311752319336,-0.3258810043334961,608.9932024478912
D4:22:CD:00:05:6E,105.91122436523438,-57.032806396484375,53.99217224121094,1.297692060470581,-0.9185056686401367,1.9967765808105469,608.9932024478912
D4:22:CD:00:05:5E,-158.4769744873047,-33.06210708618164,-140.6982879638672,-7.035460472106934,-1.1857614517211914,-3.306626319885254,608.9932024478912
D4:22:CD:00:05:5D,164.7758331298828,-16.9669246673584,-160.072021484375,-0.7393409013748169,1.2288720607757568,-9.169288635253906,609.0567297935486
D4:22:CD:00:05:6B,-70.41570281982422,-24.102956771850586,-7.945714473724365,-7.188262939453125,10.207632064819336,0.19833946228027344,609.0567297935486
D4:22:CD:00:49:AA,-157.44847106933594,-73.74280548095703,90.89103698730469,3.8834409713745117,0.6757237911224365,-1.454925537109375,609.0567297935486
D4:22:CD:00:05:6E,106.23926544189453,-55.25515365600586,54.95809555053711,4.718939781188965,-0.616323709487915,-2.212184429168701,609.0567297935486
D4:22:CD:00:05:5E,-158.07171630859375,-31.688806533813477,-140.7716522216797,-7.504694938659668,0.2619209885597229,-4.689716339111328,609.0567297935486
D4:22:CD:00:05:5D,170.59423828125,-12.977142333984375,-163.1103515625,-2.080512046813965,0.5401532649993896,-7.485197067260742,609.0847244262695
D4:22:CD:00:05:6B,-81.8874282836914,-22.736347198486328,4.122314929962158,-7.781064033508301,3.656874656677246,5.827061653137207,609.0847244262695
D4:22:CD:00:49:AA,-159.1388397216797,-74.96782684326172,90.9522705078125,3.5734548568725586,0.996181845664978,-4.703885078430176,609.0847244262695
D4:22:CD:00:05:6E,107.44760131835938,-53.05600357055664,56.34699630737305,4.869815826416016,0.496259868144989,-4.919347763061523,609.0847244262695
D4:22:CD:00:05:5E,-157.86277770996094,-29.663545608520508,-141.29429626464844,-6.8758392333984375,-0.9101413488388062,-3.68300199508667,609.0847244262695
D4:22:CD:00:05:5D,173.86109924316406,-13.375456809997559,-165.96041870117188,-10.454357147216797,2.2577719688415527,-12.534616470336914,609.1134281158447
D4:22:CD:00:05:6B,-83.39363861083984,-21.912736892700195,16.388328552246094,-1.9740667343139648,2.1302008628845215,-3.5229315757751465,609.1134281158447
D4:22:CD:00:49:AA,-160.5480194091797,-75.39138793945312,90.2154312133789,3.9780964851379395,0.7594120502471924,-4.231611251831055,609.1134281158447
D4:22:CD:00:05:6E,109.02078247070312,-50.958045959472656,59.92201614379883,6.154529571533203,-1.044220209121704,-4.659195899963379,609.1134281158447
D4:22:CD:00:05:5E,-158.8574981689453,-26.659936904907227,-142.25926208496094,-7.579328536987305,0.11567220091819763,-3.9299302101135254,609.1134281158447
D4:22:CD:00:05:5D,171.23483276367188,-18.28964614868164,-167.539306640625,-16.143016815185547,5.183730125427246,-12.836891174316406,609.1433837413788
D4:22:CD:00:05:6B,-77.6071548461914,-25.29718017578125,29.306726455688477,2.1795549392700195,3.856874942779541,-2.1313600540161133,609.1433837413788
D4:22:CD:00:49:AA,-160.95733642578125,-75.65806579589844,87.87831115722656,1.4844677448272705,0.5034162998199463,-1.5411767959594727,609.1433837413788
D4:22:CD:00:05:6E,108.49793243408203,-49.272586822509766,66.95397186279297,4.005908012390137,2.8428521156311035,-3.630840301513672,609.1433837413788
D4:22:CD:00:05:5E,-160.58154296875,-22.754762649536133,-143.2137451171875,-6.594937324523926,-1.7903075218200684,-2.26035737991333,609.1433837413788
D4:22:CD:00:05:5D,168.00648498535156,-20.197593688964844,-168.32301330566406,-3.8723602294921875,3.17572021484375,50.0367431640625,609.1733837127686
D4:22:CD:00:05:6B,-59.69585418701172,-34.12528610229492,39.67914962768555,6.020979881286621,8.754650115966797,1.6070480346679688,609.1733837127686
D4:22:CD:00:49:AA,-159.80638122558594,-75.607421875,83.90415954589844,-1.4272758960723877,-0.694679856300354,-0.5671863555908203,609.1733837127686
D4:22:CD:00:05:6E,110.66260528564453,-45.430171966552734,77.03804779052734,0.04376327246427536,-2.3419666290283203,5.859540939331055,609.1733837127686
D4:22:CD:00:05:5E,-162.6931915283203,-19.236425399780273,-143.68502807617188,-7.198785781860352,-2.8814597129821777,-1.6192216873168945,609.1733837127686
D4:22:CD:00:05:5D,169.4946746826172,-20.111570358276367,-167.40516662597656,-19.746822357177734,2.986233711242676,2.203852653503418,609.2034130096436
D4:22:CD:00:05:6B,-30.677207946777344,-45.086185455322266,37.5421257019043,16.526199340820312,25.015960693359375,15.692201614379883,609.2034130096436
D4:22:CD:00:49:AA,-160.20591735839844,-74.37337493896484,82.15763854980469,-3.015651226043701,0.6112730503082275,5.31171989440918,609.2034130096436
D4:22:CD:00:05:6E,115.81523132324219,-35.03621292114258,89.59261322021484,17.99156951904297,-12.51915168762207,27.933971405029297,609.2034130096436
D4:22:CD:00:05:5E,-163.9613494873047,-18.181293487548828,-143.12136840820312,-6.324779510498047,-3.903235912322998,-0.038245201110839844,609.2034130096436
D4:22:CD:00:05:5D,170.95310974121094,-19.38475227355957,-166.76568603515625,-19.745136260986328,4.373536109924316,6.313701629638672,609.233145236969
D4:22:CD:00:05:6B,-21.051366806030273,-48.66361618041992,26.96939468383789,31.57923126220703,12.293115615844727,0.40753173828125,609.233145236969
D4:22:CD:00:49:AA,-161.92376708984375,-73.57464599609375,82.81265258789062,-0.28023380041122437,-0.40664875507354736,9.368158340454102,609.233145236969
D4:22:CD:00:05:6E,117.22724914550781,-20.150524139404297,99.8742446899414,24.370986938476562,8.488384246826172,24.294719696044922,609.233145236969
D4:22:CD:00:05:5E,-164.98477172851562,-18.722972869873047,-141.99560546875,-7.020286560058594,-1.547398328781128,-1.0358686447143555,609.233145236969
D4:22:CD:00:05:5D,170.15231323242188,-17.50360679626465,-166.2613525390625,-20.929550170898438,5.477150917053223,9.509740829467773,609.2643435001373
D4:22:CD:00:05:6B,-37.2414665222168,-48.76276779174805,25.25984001159668,20.910015106201172,-7.453985214233398,16.676307678222656,609.2643435001373
D4:22:CD:00:49:AA,-162.666748046875,-73.58037567138672,83.4770736694336,0.3073177933692932,1.5814902782440186,8.257198333740234,609.2643435001373
D4:22:CD:00:05:6E,106.54340362548828,0.08278362452983856,106.22681427001953,11.017457962036133,15.974824905395508,17.294158935546875,609.2643435001373
D4:22:CD:00:05:5E,-166.26470947265625,-20.61326789855957,-141.00308227539062,-6.796831130981445,-1.54170560836792,-0.4025440216064453,609.2643435001373
D4:22:CD:00:05:5D,168.5077362060547,-14.86474895477295,-165.19699096679688,-12.916543960571289,-5.651736259460449,8.29539680480957,609.2935240268707
D4:22:CD:00:05:6B,-44.60173034667969,-48.73760223388672,21.9754638671875,4.247037887573242,5.679196357727051,14.467876434326172,609.2935240268707
D4:22:CD:00:49:AA,-164.0592803955078,-74.05068969726562,84.70907592773438,2.196723461151123,2.5474939346313477,7.071474075317383,609.2935240268707
D4:22:CD:00:05:6E,98.5519790649414,21.19474220275879,112.7731704711914,8.204198837280273,11.684911727905273,-0.15348529815673828,609.2935240268707
D4:22:CD:00:05:5E,-167.62722778320312,-23.923294067382812,-140.1155242919922,-6.853713035583496,-2.1841039657592773,0.10545730590820312,609.2935240268707
D4:22:CD:00:05:5D,167.98614501953125,-13.09426212310791,-164.60214233398438,-10.196477890014648,0.42143768072128296,6.344091415405273,609.353856086731
D4:22:CD:00:05:6B,-47.71235656738281,-53.30885696411133,16.107177734375,-0.9298597574234009,-4.80416202545166,4.2158708572387695,609.353856086731
D4:22:CD:00:49:AA,-169.13711547851562,-74.49636840820312,88.97943115234375,5.765742301940918,3.6471657752990723,7.047554016113281,609.353856086731
D4:22:CD:00:05:6E,95.50511932373047,40.26633071899414,121.68392181396484,7.316973686218262,8.283679962158203,-4.585915565490723,609.353856086731
D4:22:CD:00:05:5E,-169.2029571533203,-28.94017791748047,-139.9593505859375,-8.122373580932617,0.6450024843215942,0.5517234802246094,609.353856086731
D4:22:CD:00:05:5D,167.50660705566406,-13.886886596679688,-163.96754455566406,-2.8642001152038574,-0.21877753734588623,0.5712575912475586,609.3835985660553
D4:22:CD:00:05:6B,-55.10546112060547,-63.08222961425781,14.107046127319336,-2.5252742767333984,-6.640727996826172,-1.9791879653930664,609.3835985660553
D4:22:CD:00:49:AA,-177.30718994140625,-74.71478271484375,95.02171325683594,5.082313537597656,3.4534621238708496,4.550000190734863,609.3835985660553
D4:22:CD:00:05:6E,100.11473846435547,54.159698486328125,134.41261291503906,6.780743598937988,4.323539733886719,-4.943568229675293,609.3835985660553
D4:22:CD:00:05:5E,-169.232177734375,-38.11466979980469,-140.7891845703125,-16.189701080322266,-7.585295677185059,-0.44171810150146484,609.3835985660553
D4:22:CD:00:05:5D,167.6174774169922,-18.002927780151367,-163.3441925048828,0.4678010940551758,1.3947134017944336,-5.53695011138916,609.413562297821
D4:22:CD:00:05:6B,-69.283447265625,-76.64681243896484,20.274765014648438,-8.178632736206055,-3.5845861434936523,0.7507505416870117,609.413562297821
D4:22:CD:00:49:AA,174.18641662597656,-74.70275115966797,100.65625762939453,2.1254916191101074,0.5367642641067505,-1.70751953125,609.413562297821
D4:22:CD:00:05:6E,116.29629516601562,62.2456169128418,149.0576629638672,3.4767279624938965,-1.738776445388794,-2.4112253189086914,609.413562297821
D4:22:CD:00:05:5E,-163.92428588867188,-46.926021575927734,-141.53964233398438,-7.621247291564941,3.656362533569336,2.190767288208008,609.413562297821
D4:22:CD:00:05:5D,165.57266235351562,-25.907442092895508,-162.6829833984375,-1.6869068145751953,1.8886749744415283,-14.167810440063477,609.4430887699127
D4:22:CD:00:05:6B,-178.2748565673828,-84.43060302734375,122.23867797851562,-8.548322677612305,-1.778306245803833,1.367034912109375,609.4430887699127
D4:22:CD:00:49:AA,164.3607177734375,-73.9937973022461,107.45008850097656,1.811852216720581,-0.10515955090522766,-7.3325042724609375,609.4430887699127
D4:22:CD:00:05:6E,136.8740997314453,66.34595489501953,160.44744873046875,-1.7417702674865723,-3.742055892944336,0.4265632629394531,609.4430887699127
D4:22:CD:00:05:5E,-157.8628692626953,-47.99992752075195,-142.2810516357422,7.212862968444824,10.594064712524414,4.865256309509277,609.4430887699127
D4:22:CD:00:05:5D,161.94732666015625,-37.027687072753906,-161.886474609375,-6.722109794616699,0.9537880420684814,-18.214778900146484,609.4730939865112
D4:22:CD:00:05:6B,138.07498168945312,-71.00487518310547,157.70132446289062,-11.69955062866211,0.30431556701660156,0.2495584487915039,609.4730939865112
D4:22:CD:00:49:AA,154.0133056640625,-74.50393676757812,115.27828216552734,-1.2482483386993408,-1.7576704025268555,-8.932777404785156,609.4730939865112
D4:22:CD:00:05:6E,150.54638671875,69.27455139160156,164.81016540527344,-2.1213936805725098,4.080497741699219,-2.4363808631896973,609.4730939865112
D4:22:CD:00:05:5E,-162.4125213623047,-41.507118225097656,-142.3658905029297,-7.9880571365356445,2.6431026458740234,-12.033809661865234,609.4730939865112
D4:22:CD:00:05:5D,159.8194580078125,-51.07558059692383,-160.62481689453125,-8.3663330078125,-0.2906675934791565,-15.507495880126953,609.5030825138092
D4:22:CD:00:05:6B,129.71812438964844,-59.77867126464844,159.66896057128906,-11.199121475219727,4.107436180114746,-3.154491901397705,609.5030825138092
D4:22:CD:00:49:AA,145.73764038085938,-75.23789978027344,122.26616668701172,-2.976749897003174,1.8843908309936523,-9.444215774536133,609.5030825138092
D4:22:CD:00:05:6E,156.16937255859375,70.36734771728516,166.7854461669922,-0.7754547595977783,6.57491397857666,-7.189343452453613,609.5030825138092
D4:22:CD:00:05:5E,-169.99464416503906,-38.522911071777344,-143.27444458007812,-11.676769256591797,-13.16065788269043,-24.84958267211914,609.5030825138092
D4:22:CD:00:05:5D,157.6338653564453,-69.6064682006836,-159.0634765625,-5.676977157592773,-0.11608424782752991,1.9048385620117188,609.5337555408478
D4:22:CD:00:05:6B,125.84320068359375,-53.33562469482422,158.42849731445312,-7.4443254470825195,3.1738791465759277,-6.756567001342773,609.5337555408478
D4:22:CD:00:49:AA,140.93287658691406,-75.49899291992188,125.49092864990234,0.09105101227760315,3.0510263442993164,-9.619134902954102,609.5337555408478
D4:22:CD:00:05:6E,153.67576599121094,69.17391204833984,164.3649139404297,-3.4693284034729004,3.172840118408203,-8.04511833190918,609.5337555408478
D4:22:CD:00:05:5E,-172.06546020507812,-38.46126174926758,-142.9298553466797,-8.082447052001953,-4.428258895874023,-1.4056625366210938,609.5337555408478
D4:22:CD:00:05:5D,-8.022401809692383,-88.26100158691406,5.304089069366455,3.6963658332824707,-2.836073398590088,27.575843811035156,609.5637638568878
D4:22:CD:00:05:6B,124.8138656616211,-50.851253509521484,157.31126403808594,-5.58127498626709,5.439011573791504,-8.4278564453125,609.5637638568878
D4:22:CD:00:49:AA,136.61734008789062,-75.84749603271484,127.24314880371094,2.581521987915039,0.38512712717056274,-7.516157150268555,609.5637638568878
D4:22:CD:00:05:6E,143.532958984375,64.86749267578125,156.101318359375,-5.267670631408691,6.7100372314453125,-12.022026062011719,609.5637638568878
D4:22:CD:00:05:5E,-176.09388732910156,-35.76548767089844,-143.78585815429688,-6.86505126953125,-3.8660330772399902,-4.419591903686523,609.5637638568878
D4:22:CD:00:05:5D,-13.786490440368652,-69.25115203857422,13.11459732055664,38.826026916503906,20.247650146484375,6.4739532470703125,609.5937633514404
D4:22:CD:00:05:6B,122.75602722167969,-50.50015640258789,157.24603271484375,-3.9806442260742188,6.128809928894043,-7.577596664428711,609.5937633514404
D4:22:CD:00:49:AA,136.50753784179688,-75.34027862548828,124.68231964111328,2.085050582885742,-3.8418140411376953,-3.0050296783447266,609.5937633514404
D4:22:CD:00:05:6E,129.04354858398438,56.25849533081055,149.18338012695312,-9.61398696899414,9.621965408325195,-15.22519302368164,609.5937633514404
D4:22:CD:00:05:5E,178.4005126953125,-31.724374771118164,-145.84352111816406,-11.255949020385742,-0.9869837760925293,-1.7895517349243164,609.5937633514404
D4:22:CD:00:05:5D,-16.220590591430664,-66.86014556884766,8.242419242858887,13.407169342041016,-3.4235987663269043,-3.0388269424438477,609.6534464359283
D4:22:CD:00:05:6B,120.16693115234375,-50.23393249511719,157.58261108398438,-5.516347885131836,6.821542739868164,-7.860093116760254,609.6534464359283
D4:22:CD:00:49:AA,143.5369873046875,-74.04984283447266,116.19679260253906,0.89284348487854,-4.172490119934082,6.068659782409668,609.6534464359283
D4:22:CD:00:05:6E,116.7317886352539,46.68375778198242,147.51129150390625,-11.371772766113281,11.042198181152344,-15.240564346313477,609.6534464359283
D4:22:CD:00:05:5E,176.5155792236328,-29.54622459411621,-147.43569946289062,-10.624629974365234,-2.504344940185547,-1.6579532623291016,609.6534464359283
D4:22:CD:00:05:5D,-17.15106201171875,-68.61470031738281,5.2689900398254395,8.558954238891602,-5.261119842529297,-7.463373184204102,609.6833915710449
D4:22:CD:00:05:6B,118.90535736083984,-49.48586654663086,158.30752563476562,-6.08477783203125,8.116025924682617,-6.428193092346191,609.6833915710449
D4:22:CD:00:49:AA,144.71435546875,-74.9124755859375,114.9078369140625,-0.29607510566711426,4.856189727783203,5.379820823669434,609.6833915710449
D4:22:CD:00:05:6E,109.735107421875,42.54509353637695,149.35939025878906,1.2990763187408447,-7.725386619567871,-3.8140149116516113,609.6833915710449
D4:22:CD:00:05:5E,178.44842529296875,-29.433734893798828,-148.2191162109375,-6.641753196716309,-2.6544604301452637,-1.7514867782592773,609.6833915710449
D4:22:CD:00:05:5D,-9.181307792663574,-74.19245147705078,-2.494722604751587,9.644123077392578,-2.509340763092041,4.815372467041016,609.7134003639221
D4:22:CD:00:05:6B,118.12047576904297,-49.56397247314453,158.62326049804688,-7.408418655395508,7.988679885864258,-3.228269577026367,609.7134003639221
D4:22:CD:00:49:AA,150.99871826171875,-75.69713592529297,109.92401123046875,0.5368825197219849,0.2620803117752075,2.657289505004883,609.7134003639221
D4:22:CD:00:05:6E,105.07867431640625,46.209083557128906,149.60821533203125,4.137409210205078,-5.882084846496582,-13.95144271850586,609.7134003639221
D4:22:CD:00:05:5E,179.95506286621094,-29.879636764526367,-149.17037963867188,-9.285676956176758,-3.4327220916748047,-0.3511209487915039,609.7134003639221
D4:22:CD:00:05:5D,9.260704040527344,-81.30113983154297,-14.847533226013184,5.7101287841796875,-7.561534881591797,-1.266312599182129,609.7434515953064
D4:22:CD:00:05:6B,119.58049774169922,-51.64247512817383,157.43641662597656,-7.673349380493164,8.387735366821289,-0.7693319320678711,609.7434515953064
D4:22:CD:00:49:AA,156.7946014404297,-75.62046813964844,105.85009002685547,1.5096631050109863,2.8949990272521973,2.370560646057129,609.7434515953064
D4:22:CD:00:05:6E,116.28556823730469,56.44273376464844,155.22157287597656,-8.125921249389648,13.069246292114258,-6.839484214782715,609.7434515953064
D4:22:CD:00:05:5E,-177.3896942138672,-30.618099212646484,-150.64625549316406,-8.747215270996094,-2.4842281341552734,-1.6250104904174805,609.7434515953064
D4:22:CD:00:05:5D,83.83341217041016,-85.15483856201172,-78.59727478027344,12.281877517700195,-0.45747071504592896,0.2279062271118164,609.7734525203705
D4:22:CD:00:05:6B,124.71211242675781,-55.592613220214844,155.59463500976562,-6.183477401733398,6.746180534362793,2.469902992248535,609.7734525203705
D4:22:CD:00:49:AA,158.85159301757812,-75.18724060058594,105.71562194824219,1.4221177101135254,1.1702311038970947,0.38550567626953125,609.7734525203705
D4:22:CD:00:05:6E,132.56336975097656,68.28562927246094,171.82028198242188,-4.181549072265625,8.510108947753906,-15.890104293823242,609.7734525203705
D4:22:CD:00:05:5E,-173.7144775390625,-31.218780517578125,-152.6799774169922,-9.122547149658203,-2.3584656715393066,-2.407881736755371,609.7734525203705
D4:22:CD:00:05:5D,137.50399780273438,-80.88844299316406,-126.92931365966797,-4.820137023925781,7.962806701660156,4.586834907531738,609.8034706115723
D4:22:CD:00:05:6B,131.30296325683594,-60.9014778137207,151.84555053710938,-4.686058044433594,5.4959564208984375,3.9691905975341797,609.8034706115723
D4:22:CD:00:49:AA,161.82603454589844,-74.78224182128906,106.00218963623047,-1.468278408050537,-1.5271389484405518,0.22750568389892578,609.8034706115723
D4:22:CD:00:05:6E,177.70101928710938,75.2833251953125,-144.21742248535156,-3.6487536430358887,7.330822944641113,-13.812891006469727,609.8034706115723
D4:22:CD:00:05:5E,-167.99658203125,-32.82389831542969,-154.70437622070312,-13.254690170288086,-3.1436767578125,-4.50107479095459,609.8034706115723
D4:22:CD:00:05:5D,149.27383422851562,-79.09526824951172,-141.72686767578125,-20.089557647705078,-13.737071990966797,1.4266443252563477,609.8335068225861
D4:22:CD:00:05:6B,138.82376098632812,-65.7347183227539,144.31248474121094,-0.03278684616088867,4.456255912780762,2.2235631942749023,609.8335068225861
D4:22:CD:00:49:AA,166.88034057617188,-74.09979248046875,106.53709411621094,-2.028779983520508,-3.0104308128356934,0.42900562286376953,609.8335068225861
D4:22:CD:00:05:6E,-139.54837036132812,71.36174774169922,-101.44974517822266,4.146783828735352,1.995054006576538,-5.472350120544434,609.8335068225861
D4:22:CD:00:05:5E,-160.33822631835938,-33.808311462402344,-157.50729370117188,-12.320619583129883,0.33633917570114136,-2.7285943031311035,609.8335068225861
D4:22:CD:00:05:5D,159.8990020751953,-79.10411834716797,-145.91184997558594,6.149883270263672,1.501941204071045,3.9361515045166016,609.8633375167847
D4:22:CD:00:05:6B,149.06153869628906,-68.62179565429688,130.2931365966797,-3.1220145225524902,4.0680131912231445,-1.1529979705810547,609.8633375167847
D4:22:CD:00:49:AA,172.07228088378906,-73.21251678466797,108.13359832763672,-0.9767282009124756,-2.121506690979004,-2.7078442573547363,609.8633375167847
D4:22:CD:00:05:6E,-117.58206176757812,63.91997146606445,-83.63204956054688,5.576333999633789,-2.3890762329101562,-2.1474390029907227,609.8633375167847
D4:22:CD:00:05:5E,-147.10003662109375,-33.15550231933594,-159.55230712890625,-0.11703518033027649,16.303916931152344,9.18229866027832,609.8633375167847
D4:22:CD:00:05:5D,169.3304901123047,-78.36687469482422,-149.7357635498047,-3.2471203804016113,2.160257339477539,2.1866378784179688,609.8934240341187
D4:22:CD:00:05:6B,163.32733154296875,-69.86821746826172,115.60015869140625,1.6698684692382812,6.693869590759277,-3.1826186180114746,609.8934240341187
D4:22:CD:00:49:AA,174.2580108642578,-71.64583587646484,111.40782165527344,0.8554143905639648,0.2495540976524353,-3.0060243606567383,609.8934240341187
D4:22:CD:00:05:6E,-99.6016616821289,58.94643783569336,-77.16677856445312,2.050943374633789,-4.332099914550781,5.79078483581543,609.8934240341187
D4:22:CD:00:05:5E,-134.76083374023438,-28.40944480895996,-157.83761596679688,-5.858895301818848,19.639480590820312,10.045768737792969,609.8934240341187
D4:22:CD:00:05:5D,176.60914611816406,-76.79505157470703,-154.0435333251953,-2.449225425720215,1.5750367641448975,-0.09702396392822266,609.9539666175842
D4:22:CD:00:05:6B,171.0679931640625,-70.2759017944336,112.48262023925781,11.635072708129883,-1.5643486976623535,-4.539987564086914,609.9539666175842
D4:22:CD:00:49:AA,172.99685668945312,-70.73556518554688,114.69317626953125,2.8898024559020996,3.90958309173584,-0.6549158096313477,609.9539666175842
D4:22:CD:00:05:6E,-78.39045715332031,58.7908935546875,-72.54735565185547,3.1628785133361816,-10.177780151367188,10.953752517700195,609.9539666175842
D4:22:CD:00:05:5E,-131.3268585205078,-19.519861221313477,-152.018798828125,-8.138402938842773,14.736639022827148,-1.3325366973876953,609.9539666175842
D4:22:CD:00:05:5D,-178.3001708984375,-74.31388854980469,-156.86172485351562,-1.06982421875,-1.5557200908660889,-0.2436380386352539,610.0135171413422
D4:22:CD:00:05:6B,170.76409912109375,-70.10945129394531,113.82768249511719,-0.5250823497772217,-5.945893287658691,-1.0346040725708008,610.0135171413422
D4:22:CD:00:49:AA,170.67555236816406,-71.0349349975586,116.67146301269531,0.25030988454818726,2.4489831924438477,-0.5635948181152344,610.0135171413422
D4:22:CD:00:05:6E,-47.185489654541016,63.44622039794922,-62.78824996948242,-0.12284539639949799,-8.18206787109375,1.5558881759643555,610.0135171413422
D4:22:CD:00:05:5E,-135.07012939453125,-10.09874439239502,-143.7895050048828,-5.998492240905762,7.765829086303711,-9.254671096801758,610.0135171413422
D4:22:CD:00:05:5D,-176.17074584960938,-71.76592254638672,-157.9125213623047,1.0952439308166504,-0.342708945274353,0.23528575897216797,610.02290391922
D4:22:CD:00:05:6B,165.5071563720703,-70.56657409667969,117.98045349121094,-7.417059898376465,-3.420405864715576,2.599686622619629,610.02290391922
D4:22:CD:00:49:AA,168.41273498535156,-70.93314361572266,119.30467987060547,-3.6929478645324707,1.5919544696807861,1.3706140518188477,610.02290391922
D4:22:CD:00:05:6E,-8.252340316772461,68.2968521118164,-35.87906265258789,2.2561697959899902,0.9520207643508911,-1.7343387603759766,610.02290391922
D4:22:CD:00:05:5E,-140.46963500976562,-2.479748487472534,-135.1136016845703,-3.294881820678711,1.7147257328033447,-10.320272445678711,610.02290391922
D4:22:CD:00:05:5D,-175.5345001220703,-69.62336730957031,-157.90863037109375,0.5386908054351807,0.02699265256524086,0.5755796432495117,610.0438268184662
D4:22:CD:00:05:6B,158.5109405517578,-72.74560546875,122.28206634521484,-7.636533737182617,-1.3736600875854492,2.3722705841064453,610.0438268184662
D4:22:CD:00:49:AA,165.81581115722656,-71.10396575927734,122.87130737304688,-3.718636989593506,0.616753339767456,0.42154979705810547,610.0438268184662
D4:22:CD:00:05:6E,32.23884582519531,62.815555572509766,2.9575326442718506,3.8242478370666504,-0.2604871392250061,-4.753168106079102,610.0438268184662
D4:22:CD:00:05:5E,-145.05596923828125,2.084746837615967,-127.4570541381836,-1.5415034294128418,-2.4758410453796387,-10.178916931152344,610.0438268184662
D4:22:CD:00:05:5D,-175.96339416503906,-67.88175201416016,-157.1277313232422,0.1376209557056427,0.15597090125083923,0.3316488265991211,610.0734534263611
D4:22:CD:00:05:6B,154.03565979003906,-75.91403198242188,121.78306579589844,-4.244259834289551,-2.7863802909851074,-0.509857177734375,610.0734534263611
D4:22:CD:00:49:AA,162.3076171875,-71.32980346679688,126.51870727539062,-1.609992265701294,-0.13847699761390686,-0.2993278503417969,610.0734534263611
D4:22:CD:00:05:6E,49.78947830200195,47.98624038696289,21.375349044799805,11.051620483398438,-2.5931334495544434,-4.811598777770996,610.0734534263611
D4:22:CD:00:05:5E,-148.5743408203125,2.934654474258423,-121.64129638671875,-1.7630136013031006,-4.11982536315918,-10.585128784179688,610.0734534263611
D4:22:CD:00:05:5D,-177.02662658691406,-66.21737670898438,-155.83041381835938,0.016056276857852936,-0.9082789421081543,-0.1551380157470703,610.1329724788666
D4:22:CD:00:05:6B,153.36866760253906,-79.37120056152344,115.0191421508789,-6.074184417724609,0.40848827362060547,-2.5000224113464355,610.1329724788666
D4:22:CD:00:49:AA,157.14990234375,-71.75819396972656,131.42401123046875,-0.023327376693487167,0.43989551067352295,-1.2588529586791992,610.1329724788666
D4:22:CD:00:05:6E,61.797523498535156,31.029958724975586,30.026329040527344,16.655349731445312,2.1690101623535156,-10.973146438598633,610.1329724788666
D4:22:CD:00:05:5E,-149.2413787841797,-0.4175630509853363,-118.04238891601562,-1.2711131572723389,-11.319547653198242,-10.605401992797852,610.1329724788666
D4:22:CD:00:05:5D,-178.4000244140625,-64.30371856689453,-153.92054748535156,0.1451198160648346,-1.159346580505371,-0.4909076690673828,610.1379806995392
D4:22:CD:00:05:6B,153.36524963378906,-83.15777587890625,108.12884521484375,0.5158578157424927,2.6453933715820312,-3.521879196166992,610.1379806995392
D4:22:CD:00:49:AA,151.56939697265625,-72.27849578857422,136.73086547851562,-0.22759810090065002,1.1577949523925781,-2.338601589202881,610.1379806995392
D4:22:CD:00:05:6E,76.40762329101562,13.751270294189453,36.97930145263672,18.385482788085938,16.62517547607422,-5.7365875244140625,610.1379806995392
D4:22:CD:00:05:5E,-144.3734130859375,-7.784535884857178,-117.30414581298828,0.7092776298522949,-15.090961456298828,-10.576126098632812,610.1379806995392
D4:22:CD:00:05:5D,-179.85009765625,-62.12643814086914,-151.93162536621094,-0.7366482019424438,-0.30240339040756226,-0.025298118591308594,610.1634171009064
D4:22:CD:00:05:6B,135.55218505859375,-87.79167175292969,118.17697143554688,-1.4852523803710938,4.817266464233398,-3.924447536468506,610.1634171009064
D4:22:CD:00:49:AA,146.5634307861328,-72.61067199707031,141.5556640625,-0.700309157371521,0.598677396774292,-4.031982421875,610.1634171009064
D4:22:CD:00:05:6E,84.13177490234375,-4.081050872802734,42.7464714050293,16.329906463623047,16.591407775878906,-1.5837154388427734,610.1634171009064
D4:22:CD:00:05:5E,-134.70611572265625,-12.887029647827148,-117.07512664794922,-23.313026428222656,-1.328289270401001,29.319156646728516,610.1634171009064
D4:22:CD:00:05:5D,178.13275146484375,-59.53075408935547,-149.78057861328125,0.059663206338882446,-1.0132195949554443,-1.0379600524902344,610.1935286521912
D4:22:CD:00:05:6B,-40.46455383300781,-85.70440673828125,-77.47699737548828,-2.902278423309326,1.529268503189087,-4.548346519470215,610.1935286521912
D4:22:CD:00:49:AA,140.89126586914062,-72.79536437988281,147.35818481445312,-1.7437736988067627,-0.4771765470504761,-3.9942097663879395,610.1935286521912
D4:22:CD:00:05:6E,88.95689392089844,-20.20726203918457,44.789581298828125,15.323442459106445,11.011728286743164,10.693574905395508,610.1935286521912
D4:22:CD:00:05:5E,-138.3131561279297,-13.628026962280273,-116.68860626220703,-1.5563757419586182,-10.760276794433594,-1.8695306777954102,610.1935286521912
