Device,EulerX,EulerY,EulerZ,FreeAccX,FreeAccY,FreeAccZ,Timestamp
D4:22:CD:00:05:5D,167.43856811523438,-79.15199279785156,-118.11112976074219,3.0504608154296875,5.491182327270508,-3.944436550140381,2395.2958719730377
D4:22:CD:00:05:6B,0.4794257581233978,54.9185676574707,11.554797172546387,-3.2144293785095215,-2.1809983253479004,-5.309892654418945,2395.2958719730377
D4:22:CD:00:49:AA,-165.36697387695312,-71.5420150756836,107.41749572753906,1.238234281539917,0.2774431109428406,-9.345651626586914,2395.2958719730377
D4:22:CD:00:05:6E,-155.2670135498047,-63.49089050292969,32.831546783447266,3.721853256225586,-5.180658340454102,-8.699392318725586,2395.2958719730377
D4:22:CD:00:05:5E,-106.65941619873047,-59.10210418701172,-45.878482818603516,-1.9179866313934326,-9.591691970825195,-1.7256746292114258,2395.2958719730377
D4:22:CD:00:49:AA,-162.70538330078125,-70.98651123046875,106.2813720703125,0.5853308439254761,1.7616736888885498,-10.388545989990234,2395.2988801002502
D4:22:CD:00:05:6E,-142.77017211914062,-61.27153778076172,25.095914840698242,4.298588752746582,-4.994919776916504,-8.876258850097656,2395.2988801002502
D4:22:CD:00:05:5E,-92.50154113769531,-61.43698501586914,-70.01652526855469,-8.029071807861328,-17.108997344970703,-1.908717155456543,2395.2988801002502
D4:22:CD:00:05:5D,169.62034606933594,-65.53950500488281,-112.38531494140625,-1.7838733196258545,-0.42568933963775635,-1.2296619415283203,2395.300880908966
D4:22:CD:00:49:AA,-161.02188110351562,-72.44075012207031,105.79435729980469,0.057524241507053375,0.6863583326339722,-8.269155502319336,2395.300880908966
D4:22:CD:00:05:6E,-138.1608123779297,-57.89187240600586,19.659570693969727,6.775386810302734,-4.02824592590332,-10.612878799438477,2395.300880908966
D4:22:CD:00:05:5E,-86.56939697265625,-59.99388885498047,-87.16995239257812,-14.764925003051758,-16.55408477783203,-2.647451400756836,2395.300880908966
D4:22:CD:00:05:5D,164.22537231445312,-60.36418151855469,-105.39277648925781,0.31248539686203003,1.7363076210021973,2.245965003967285,2395.303880214691
D4:22:CD:00:05:6B,156.25323486328125,-16.599008560180664,-30.717458724975586,3.8218116760253906,8.954118728637695,-11.066850662231445,2395.303880214691
D4:22:CD:00:49:AA,-159.40977478027344,-74.66693115234375,105.41661834716797,-0.1920951008796692,-1.0509607791900635,-8.552766799926758,2395.303880214691
D4:22:CD:00:05:6E,-141.40914916992188,-54.39769744873047,16.380159378051758,7.590301513671875,-2.4633846282958984,-10.987798690795898,2395.303880214691
D4:22:CD:00:05:5E,-83.75019836425781,-58.88996505737305,-95.56326293945312,-14.43109130859375,-13.054826736450195,-10.929901123046875,2395.303880214691
D4:22:CD:00:05:5D,163.9693145751953,-54.667083740234375,-105.08927154541016,-2.262928009033203,2.230729579925537,3.5369300842285156,2395.339879989624
D4:22:CD:00:05:6B,159.4174041748047,-17.405826568603516,-34.59268569946289,18.189414978027344,11.518198013305664,-21.223201751708984,2395.339879989624
D4:22:CD:00:49:AA,-100.32048034667969,-81.70976257324219,18.16853141784668,-0.3664921522140503,-7.543558120727539,5.216955184936523,2395.339879989624
D4:22:CD:00:05:6E,-79.4721450805664,-37.55085754394531,-139.37625122070312,-6.454870223999023,0.20292896032333374,15.578813552856445,2395.339879989624
D4:22:CD:00:05:5D,162.35232543945312,-50.442630767822266,-102.63428497314453,2.838688850402832,3.3387389183044434,-1.1469135284423828,2395.3751459121704
D4:22:CD:00:05:6B,-160.0635528564453,-27.043325424194336,-56.385040283203125,35.25371551513672,21.862045288085938,-3.2835612297058105,2395.3751459121704
D4:22:CD:00:49:AA,-148.07440185546875,-71.0293197631836,66.87918853759766,7.897458076477051,0.1530762016773224,10.31471061706543,2395.3751459121704
D4:22:CD:00:05:6E,-70.7019271850586,-37.04751968383789,-134.33453369140625,-21.585697174072266,-11.001443862915039,2.930291175842285,2395.3751459121704
D4:22:CD:00:05:5E,114.7365951538086,-58.68471908569336,122.77699279785156,-1.2326884269714355,2.3542308807373047,23.52908706665039,2395.3751459121704
D4:22:CD:00:05:5D,163.18775939941406,-47.868282318115234,-101.46044921875,7.347838401794434,-1.2466979026794434,0.6239376068115234,2395.4302213191986
D4:22:CD:00:05:6B,-106.73970031738281,-7.458287239074707,-81.03856658935547,7.407393455505371,10.215639114379883,14.18372917175293,2395.4302213191986
D4:22:CD:00:49:AA,-173.95541381835938,-69.60968017578125,91.79306030273438,8.935491561889648,1.6323082447052002,7.4393463134765625,2395.4302213191986
D4:22:CD:00:05:6E,-82.25747680664062,-57.00532150268555,-119.32999420166016,-19.699298858642578,-12.626581192016602,5.030063629150391,2395.4302213191986
D4:22:CD:00:05:5E,127.81868743896484,-57.78253936767578,112.55552673339844,-3.6107401847839355,1.553774356842041,23.2908935546875,2395.4302213191986
D4:22:CD:00:05:5D,166.24911499023438,-47.95390319824219,-102.01412200927734,-0.362309992313385,-0.720816969871521,2.013151168823242,2395.4602706432343
D4:22:CD:00:05:6B,-76.3920669555664,19.725528717041016,-72.9024429321289,1.8327555656433105,-16.472492218017578,28.734249114990234,2395.4602706432343
D4:22:CD:00:49:AA,163.2277374267578,-67.83158111572266,111.667236328125,-1.6526389122009277,-0.9542360305786133,4.971663475036621,2395.4602706432343
D4:22:CD:00:05:6E,-107.9998550415039,-69.14398956298828,-90.38800048828125,-8.36154556274414,-9.432233810424805,7.287939071655273,2395.4602706432343
D4:22:CD:00:05:5E,145.16201782226562,-53.56135177612305,93.9185791015625,-4.572628974914551,6.751209259033203,21.95461654663086,2395.4602706432343
D4:22:CD:00:05:5D,169.15333557128906,-49.18818664550781,-102.21294403076172,-1.508047103881836,0.4515855312347412,1.9754838943481445,2395.4909389019012
D4:22:CD:00:05:6B,-41.58403778076172,30.108890533447266,-51.47825622558594,1.7079477310180664,-27.721500396728516,15.074018478393555,2395.4909389019012
D4:22:CD:00:49:AA,157.95077514648438,-67.4610824584961,116.48417663574219,-9.831361770629883,3.282214641571045,7.100856781005859,2395.4909389019012
D4:22:CD:00:05:6E,-121.06745147705078,-72.658935546875,-62.038963317871094,-9.012351989746094,-14.304559707641602,3.827082633972168,2395.4909389019012
D4:22:CD:00:05:5E,161.44215393066406,-51.1380729675293,80.21346282958984,-13.254024505615234,0.39427775144577026,11.727823257446289,2395.4909389019012
D4:22:CD:00:05:5D,170.9737091064453,-51.84716033935547,-102.01880645751953,0.28675925731658936,0.8992958068847656,2.9914865493774414,2395.5208632946014
D4:22:CD:00:05:6B,-8.473031044006348,30.404624938964844,-33.056758880615234,5.2208051681518555,-27.15595245361328,2.317516326904297,2395.5208632946014
D4:22:CD:00:49:AA,166.24266052246094,-70.95173645019531,110.13154602050781,-4.251307487487793,4.8504743576049805,5.140778541564941,2395.5208632946014
D4:22:CD:00:05:6E,-125.03997039794922,-72.68809509277344,-39.62814712524414,-6.7612104415893555,-16.762100219726562,-0.6104631423950195,2395.5208632946014
D4:22:CD:00:05:5E,178.6844940185547,-46.86286926269531,67.63812255859375,-14.69198226928711,1.2467515468597412,-0.8941059112548828,2395.5208632946014
D4:22:CD:00:05:5D,171.2082977294922,-56.030052185058594,-99.97262573242188,-1.0906734466552734,0.3082156181335449,4.252999305725098,2395.550863265991
D4:22:CD:00:05:6B,14.4100980758667,29.217609405517578,-23.292194366455078,2.1511173248291016,-11.482522964477539,-4.57231330871582,2395.550863265991
D4:22:CD:00:49:AA,-179.5341033935547,-74.05154418945312,99.64588165283203,0.5057735443115234,3.9661221504211426,3.8933801651000977,2395.550863265991
D4:22:CD:00:05:6E,-127.70892333984375,-71.33735656738281,-19.94169044494629,-0.347048819065094,-11.855489730834961,-2.5763802528381348,2395.550863265991
D4:22:CD:00:05:5E,-167.6502685546875,-43.86033630371094,56.92701721191406,-15.63443374633789,3.5240578651428223,-13.702613830566406,2395.550863265991
D4:22:CD:00:05:5D,169.6566619873047,-61.42787551879883,-94.3415756225586,1.859959363937378,-6.544624328613281,11.222158432006836,2395.5804142951965
D4:22:CD:00:05:6B,20.114805221557617,28.272262573242188,-16.86771583557129,-4.938416481018066,-12.475759506225586,-5.043282508850098,2395.5804142951965
D4:22:CD:00:49:AA,-163.41580200195312,-75.54334259033203,87.02521514892578,-0.45142507553100586,3.66483211517334,0.7844486236572266,2395.5804142951965
D4:22:CD:00:05:6E,-125.74894714355469,-69.93901062011719,-4.870417594909668,2.5890979766845703,-9.29749870300293,-4.456914901733398,2395.5804142951965
D4:22:CD:00:05:5E,-153.7458953857422,-43.31692123413086,44.07478332519531,-13.305843353271484,9.739452362060547,-20.683135986328125,2395.5804142951965
D4:22:CD:00:05:5D,160.33221435546875,-68.40995025634766,-89.61798858642578,8.363914489746094,-5.332094192504883,0.3832559585571289,2395.610415458679
D4:22:CD:00:05:6B,14.697551727294922,28.01119613647461,-12.072118759155273,-3.7852296829223633,-3.7724404335021973,-7.3401994705200195,2395.610415458679
D4:22:CD:00:49:AA,-149.05844116210938,-74.77925109863281,76.11955261230469,-0.2134983241558075,0.5404105186462402,-6.691959381103516,2395.610415458679
D4:22:CD:00:05:6E,-122.84249877929688,-68.68850708007812,6.473001480102539,5.317803382873535,-7.886371612548828,-9.101688385009766,2395.610415458679
D4:22:CD:00:05:5E,-137.03184509277344,-43.530818939208984,27.1287841796875,-8.776866912841797,11.009370803833008,-21.753379821777344,2395.610415458679
D4:22:CD:00:05:5D,162.19265747070312,-67.7291030883789,-86.55449676513672,19.06542205810547,1.1182992458343506,-5.597933769226074,2395.6454145908356
D4:22:CD:00:05:6B,4.184549808502197,29.378084182739258,-11.945752143859863,0.435260534286499,-0.2667250633239746,-8.959968566894531,2395.6454145908356
D4:22:CD:00:49:AA,-145.3084259033203,-73.4542465209961,74.32457733154297,5.105434417724609,1.1551225185394287,-10.652164459228516,2395.6454145908356
D4:22:CD:00:05:6E,-126.17250061035156,-66.80339813232422,16.424938201904297,8.178625106811523,-6.1812591552734375,-12.313108444213867,2395.6454145908356
D4:22:CD:00:05:5E,-119.65660858154297,-42.65596008300781,8.059946060180664,-0.8847525119781494,7.06031608581543,-17.50070571899414,2395.6454145908356
D4:22:CD:00:05:5D,168.95034790039062,-67.51637268066406,-85.9383773803711,0.8650362491607666,-8.407901763916016,-14.518829345703125,2395.674962282181
D4:22:CD:00:05:6B,3.4732918739318848,31.632627487182617,-21.817529678344727,3.4825491905212402,4.3250274658203125,-7.526084899902344,2395.674962282181
D4:22:CD:00:49:AA,-146.95977783203125,-73.23726654052734,75.06261444091797,2.6764063835144043,1.269650936126709,-7.904304504394531,2395.674962282181
D4:22:CD:00:05:6E,-137.8801727294922,-63.709510803222656,25.561918258666992,7.423757553100586,-4.450119972229004,-13.083114624023438,2395.674962282181
D4:22:CD:00:05:5E,-105.47422790527344,-41.142478942871094,-10.508368492126465,3.770142078399658,-1.581449031829834,-15.314750671386719,2395.674962282181
D4:22:CD:00:05:5D,-179.28656005859375,-71.9242935180664,-94.7850112915039,1.2246508598327637,9.824363708496094,-6.6920366287231445,2395.7049593925476
D4:22:CD:00:05:6B,7.924041271209717,32.46452713012695,-43.046836853027344,4.308292388916016,15.777294158935547,-14.559585571289062,2395.7049593925476
D4:22:CD:00:49:AA,-144.70677185058594,-75.48492431640625,72.93753814697266,-3.196934700012207,-0.11258581280708313,-6.603399276733398,2395.7049593925476
D4:22:CD:00:05:6E,-154.80026245117188,-59.4163818359375,32.04563903808594,7.360679626464844,-2.592625617980957,-10.701210021972656,2395.7049593925476
D4:22:CD:00:05:5E,-95.70304870605469,-40.556556701660156,-27.334888458251953,4.90623664855957,-8.099031448364258,-10.354179382324219,2395.7049593925476
D4:22:CD:00:05:5D,-176.4031219482422,-73.6798095703125,-102.63605499267578,-11.401601791381836,12.573781967163086,-2.333096981048584,2395.759974002838
D4:22:CD:00:05:6B,2.25990891456604,27.013301849365234,-67.8565444946289,9.32331657409668,-13.091638565063477,-21.52145004272461,2395.759974002838
D4:22:CD:00:49:AA,-138.4553985595703,-77.49923706054688,68.53202056884766,-3.1769256591796875,0.10141083598136902,-6.577791213989258,2395.759974002838
D4:22:CD:00:05:6E,-171.27523803710938,-55.38797378540039,35.69017028808594,5.611445426940918,0.8896085023880005,-5.924473762512207,2395.759974002838
D4:22:CD:00:05:5E,-87.54769134521484,-40.7879753112793,-43.495845794677734,6.007149696350098,-13.396150588989258,-5.428727149963379,2395.759974002838
D4:22:CD:00:05:5D,-178.59605407714844,-73.41068267822266,-99.99800109863281,-12.216320037841797,-2.448873519897461,-2.8381834030151367,2395.7905135154724
D4:22:CD:00:05:6B,7.3751220703125,20.44007682800293,-92.72655487060547,-32.366180419921875,-33.124755859375,-26.347679138183594,2395.7905135154724
D4:22:CD:00:49:AA,-130.86878967285156,-79.08187866210938,61.8104133605957,1.8373510837554932,0.04576829820871353,-1.6571874618530273,2395.7905135154724
D4:22:CD:00:05:6E,178.34756469726562,-52.2924919128418,36.0674934387207,8.344785690307617,1.9932198524475098,-2.6919641494750977,2395.7905135154724
D4:22:CD:00:05:5E,-81.9802474975586,-41.403282165527344,-59.03717803955078,2.460963726043701,-26.447616577148438,-2.3378238677978516,2395.7905135154724
D4:22:CD:00:05:5D,178.31480407714844,-73.7301254272461,-93.79712677001953,-0.376276433467865,-2.585562229156494,1.2811107635498047,2395.8205120563507
D4:22:CD:00:05:6B,38.11157989501953,26.460603713989258,-102.68844604492188,35.27313995361328,-6.591621398925781,-20.010852813720703,2395.8205120563507
D4:22:CD:00:49:AA,-125.01885223388672,-80.55706024169922,55.193328857421875,-1.2760279178619385,2.6227898597717285,-6.116451263427734,2395.8205120563507
D4:22:CD:00:05:6E,172.22207641601562,-50.131839752197266,34.14447784423828,10.666166305541992,2.0926413536071777,-0.14078521728515625,2395.8205120563507
D4:22:CD:00:05:5E,-82.42034149169922,-42.6288948059082,-68.88298797607422,-12.04893684387207,-27.56863784790039,-9.675870895385742,2395.8205120563507
D4:22:CD:00:05:5D,176.16909790039062,-74.31111907958984,-88.83761596679688,6.8319244384765625,-2.736556053161621,2.612696647644043,2395.850504875183
D4:22:CD:00:05:6B,12.933716773986816,21.924394607543945,-90.53759765625,2.0174031257629395,4.771152496337891,-17.754207611083984,2395.850504875183
D4:22:CD:00:49:AA,-133.76022338867188,-80.69363403320312,61.15455627441406,0.6142832040786743,-1.7138617038726807,-5.537870407104492,2395.850504875183
D4:22:CD:00:05:6E,168.33737182617188,-46.65928268432617,30.64643669128418,13.46110725402832,0.9674078226089478,-3.116170883178711,2395.850504875183
D4:22:CD:00:05:5E,-87.00083923339844,-45.2771110534668,-69.0940170288086,-13.644935607910156,-11.571744918823242,-3.9532814025878906,2395.850504875183
D4:22:CD:00:05:5D,172.02655029296875,-74.62759399414062,-83.59339904785156,1.1957294940948486,-2.7078189849853516,2.5010061264038086,2395.880054473877
D4:22:CD:00:05:6B,-14.370626449584961,19.40581703186035,-70.05791473388672,-15.620954513549805,-23.156078338623047,-10.151721954345703,2395.880054473877
D4:22:CD:00:49:AA,-156.67572021484375,-79.38398742675781,80.54969787597656,-1.007788896560669,-4.517895698547363,7.53639030456543,2395.880054473877
D4:22:CD:00:05:6E,164.24786376953125,-42.6565055847168,27.262895584106445,14.093135833740234,1.5021913051605225,-2.073395252227783,2395.880054473877
D4:22:CD:00:05:5E,-96.76822662353516,-45.80662536621094,-58.69336700439453,-22.852527618408203,-27.17108154296875,-9.913541793823242,2395.880054473877
D4:22:CD:00:05:5D,164.13645935058594,-74.46855926513672,-75.28418731689453,0.31841742992401123,-2.415736675262451,3.615663528442383,2395.911054611206
D4:22:CD:00:05:6B,-17.43158721923828,17.264938354492188,-52.84518051147461,-5.0147705078125,-15.98862075805664,-6.600411415100098,2395.911054611206
D4:22:CD:00:49:AA,-164.27340698242188,-78.30973052978516,86.08199310302734,-4.525055885314941,-2.1747474670410156,6.066587448120117,2395.911054611206
D4:22:CD:00:05:6E,157.17098999023438,-40.017704010009766,24.7813777923584,11.535385131835938,2.063112735748291,-0.5136127471923828,2395.911054611206
D4:22:CD:00:05:5E,-102.90922546386719,-45.75539779663086,-50.518699645996094,27.829296112060547,1.3642117977142334,0.2544422149658203,2395.911054611206
D4:22:CD:00:05:5D,153.5627899169922,-73.69081115722656,-65.57603454589844,-0.0629260390996933,-2.391660690307617,3.4178543090820312,2395.9450573921204
D4:22:CD:00:05:6B,-9.772424697875977,13.481009483337402,-39.714927673339844,2.0619258880615234,-7.4582977294921875,-2.9978089332580566,2395.9450573921204
D4:22:CD:00:49:AA,-169.67881774902344,-77.52255249023438,87.74876403808594,1.6490657329559326,-2.3814477920532227,1.4594125747680664,2395.9450573921204
D4:22:CD:00:05:6E,142.85707092285156,-40.18446731567383,21.89114761352539,5.052146911621094,13.200719833374023,-4.106977462768555,2395.9450573921204
D4:22:CD:00:05:5E,-103.62361907958984,-47.70650863647461,-46.8375129699707,6.740085601806641,-10.282230377197266,3.6351966857910156,2395.9450573921204
D4:22:CD:00:05:5D,140.8543701171875,-72.24114227294922,-56.667442321777344,2.2074904441833496,-5.236380577087402,4.797267913818359,2395.975605726242
D4:22:CD:00:05:6B,-9.885825157165527,10.067471504211426,-30.21660614013672,-5.022731781005859,4.220851898193359,1.346644401550293,2395.975605726242
D4:22:CD:00:49:AA,-178.03199768066406,-76.87136840820312,89.94876098632812,7.272539138793945,-0.550788164138794,-0.5720720291137695,2395.975605726242
D4:22:CD:00:05:6E,126.99193572998047,-41.49186325073242,20.02552604675293,-0.5679521560668945,14.053705215454102,-9.367855072021484,2395.975605726242
D4:22:CD:00:05:5E,-109.73198699951172,-49.121604919433594,-42.261627197265625,-0.319058358669281,0.7859338521957397,2.8304624557495117,2395.975605726242
D4:22:CD:00:05:5D,131.95462036132812,-69.37727355957031,-56.091373443603516,11.01225471496582,12.607803344726562,2.938216209411621,2396.0056030750275
D4:22:CD:00:05:6B,-18.04859161376953,6.706381797790527,-23.251239776611328,-11.630403518676758,5.201687812805176,0.8186426162719727,2396.0056030750275
D4:22:CD:00:49:AA,177.65232849121094,-75.64714050292969,87.20829010009766,4.321193695068359,-0.4197744131088257,-4.557958602905273,2396.0056030750275
D4:22:CD:00:05:6E,123.13854217529297,-45.70030975341797,18.149383544921875,-5.265045166015625,1.8523929119110107,-0.3220329284667969,2396.0056030750275
D4:22:CD:00:05:5E,-113.07276153564453,-50.37760543823242,-38.09489059448242,14.689905166625977,-14.426734924316406,-0.7795333862304688,2396.0056030750275
D4:22:CD:00:05:5D,134.99964904785156,-61.623939514160156,-69.07962036132812,20.798664093017578,23.16167449951172,12.16830062866211,2396.0606186389923
D4:22:CD:00:05:6B,-22.17019271850586,2.0683417320251465,-17.752832412719727,-12.541383743286133,4.9071502685546875,2.579618453979492,2396.0606186389923
D4:22:CD:00:49:AA,179.5629119873047,-75.23070526123047,81.11394500732422,-2.4735536575317383,0.2293325662612915,-1.2944860458374023,2396.0606186389923
D4:22:CD:00:05:6E,120.9027099609375,-51.13685607910156,15.72780704498291,-2.2801122665405273,0.2806723713874817,5.593294143676758,2396.0606186389923
D4:22:CD:00:05:5E,-120.17283630371094,-48.73923873901367,-31.590181350708008,2.1078743934631348,-9.863468170166016,-6.251334190368652,2396.0606186389923
D4:22:CD:00:05:5D,141.2100372314453,-50.18778610229492,-83.26006317138672,16.63992691040039,7.675222396850586,4.345944404602051,2396.090146303177
D4:22:CD:00:05:6B,-25.845617294311523,-3.660290241241455,-12.255751609802246,-5.951259613037109,15.14918327331543,-8.960470199584961,2396.090146303177
D4:22:CD:00:49:AA,-174.7668914794922,-74.97309875488281,76.25900268554688,-5.130528450012207,3.3540148735046387,4.219874382019043,2396.090146303177
D4:22:CD:00:05:6E,119.44951629638672,-54.664005279541016,15.327859878540039,1.972580909729004,4.397513389587402,2.913787841796875,2396.090146303177
D4:22:CD:00:05:5E,-127.11632537841797,-46.49174118041992,-27.7415714263916,1.56709885597229,-8.60811996459961,-3.024435520172119,2396.090146303177
D4:22:CD:00:05:5D,146.17495727539062,-37.54398727416992,-95.35511016845703,7.286487579345703,-1.470296859741211,-4.518866539001465,2396.120146036148
D4:22:CD:00:05:6B,-36.89211654663086,-9.314628601074219,-6.655537128448486,-5.4899187088012695,14.234807968139648,0.6997642517089844,2396.120146036148
D4:22:CD:00:49:AA,-168.32843017578125,-74.99702453613281,72.03312683105469,4.942005157470703,3.5821242332458496,-0.16683006286621094,2396.120146036148
D4:22:CD:00:05:6E,122.36865997314453,-55.986995697021484,18.360538482666016,3.036661148071289,2.981842517852783,0.34899234771728516,2396.120146036148
D4:22:CD:00:05:5E,-129.76434326171875,-44.842994689941406,-25.965892791748047,3.253861427307129,-3.618194103240967,1.5887327194213867,2396.120146036148
D4:22:CD:00:05:5D,152.11021423339844,-25.201120376586914,-104.31775665283203,-1.7834513187408447,-2.9087533950805664,-12.238969802856445,2396.1511466503143
D4:22:CD:00:05:6B,-46.490394592285156,-15.022576332092285,-1.459064245223999,-7.27440071105957,5.4431352615356445,-1.7282037734985352,2396.1511466503143
D4:22:CD:00:49:AA,-164.37095642089844,-75.15884399414062,68.04679107666016,8.455543518066406,-1.2051260471343994,-0.4827413558959961,2396.1511466503143
D4:22:CD:00:05:6E,125.07559967041016,-56.417354583740234,24.631757736206055,-0.14405116438865662,0.18523815274238586,-1.2009286880493164,2396.1511466503143
D4:22:CD:00:05:5E,-132.08656311035156,-42.970069885253906,-24.384973526000977,3.3234286308288574,-3.2591190338134766,-0.7029018402099609,2396.1511466503143
D4:22:CD:00:05:5D,159.4311065673828,-14.473737716674805,-110.2304916381836,-2.5830230712890625,1.347442626953125,-15.953968048095703,2396.180687904358
D4:22:CD:00:05:6B,-52.23303985595703,-21.781339645385742,3.7880678176879883,-7.571725845336914,2.7879600524902344,-4.38801383972168,2396.180687904358
D4:22:CD:00:49:AA,-161.94845581054688,-75.30499267578125,65.78943634033203,2.571789264678955,0.5634185075759888,-1.7411251068115234,2396.180687904358
D4:22:CD:00:05:6E,124.90773010253906,-56.36936950683594,32.135597229003906,1.7848377227783203,-0.045680344104766846,-3.594076156616211,2396.180687904358
D4:22:CD:00:05:5E,-133.9228973388672,-41.33190155029297,-22.58381462097168,3.406458854675293,-3.727652072906494,-1.5036821365356445,2396.180687904358
D4:22:CD:00:05:5D,167.74600219726562,-7.71311092376709,-114.78009796142578,-5.7312726974487305,-2.686020851135254,-13.622072219848633,2396.2096951007843
D4:22:CD:00:05:6B,-56.81272888183594,-30.87843132019043,9.911619186401367,-4.415496826171875,0.7756534814834595,-8.875715255737305,2396.2096951007843
D4:22:CD:00:49:AA,-159.30587768554688,-75.65409851074219,63.24744415283203,-0.7537779808044434,2.500636577606201,-2.7091617584228516,2396.2096951007843
D4:22:CD:00:05:6E,124.04553985595703,-56.68412399291992,40.254173278808594,4.926520347595215,1.2150754928588867,-3.9310684204101562,2396.2096951007843
D4:22:CD:00:05:5E,-134.53025817871094,-40.377113342285156,-19.81678009033203,3.8904824256896973,-4.739246368408203,-1.104269027709961,2396.2096951007843
D4:22:CD:00:05:5D,173.61224365234375,-5.855928421020508,-118.69669342041016,-5.954758644104004,-1.6556305885314941,-8.395299911499023,2396.245705842972
D4:22:CD:00:05:6B,-64.66900634765625,-43.76453399658203,18.76688003540039,2.1160120964050293,1.1698274612426758,-5.216829299926758,2396.245705842972
D4:22:CD:00:49:AA,-153.2458953857422,-75.77291107177734,58.412139892578125,3.885748863220215,0.2691582441329956,-2.3705430030822754,2396.245705842972
D4:22:CD:00:05:6E,125.80241394042969,-57.610939025878906,49.6834716796875,7.995455741882324,2.4966230392456055,0.662877082824707,2396.245705842972
D4:22:CD:00:05:5E,-135.47433471679688,-38.794063568115234,-16.858461380004883,3.2523622512817383,-6.433332443237305,-2.9078311920166016,2396.245705842972
D4:22:CD:00:05:5D,175.732666015625,-8.293867111206055,-123.32473754882812,-12.611600875854492,-8.962398529052734,-4.4665117263793945,2396.2752397060394
D4:22:CD:00:05:6B,-77.650634765625,-60.89009094238281,33.37701416015625,8.545686721801758,4.2755889892578125,13.076953887939453,2396.2752397060394
D4:22:CD:00:49:AA,-149.30593872070312,-75.73310089111328,55.29010009765625,4.83760929107666,-1.5989313125610352,-1.2230768203735352,2396.2752397060394
D4:22:CD:00:05:6E,136.83724975585938,-58.58422088623047,65.43855285644531,0.5593842267990112,14.525390625,9.042057037353516,2396.2752397060394
D4:22:CD:00:05:5E,-137.84591674804688,-35.95122146606445,-14.790032386779785,1.6843063831329346,-5.824487686157227,-1.9374017715454102,2396.2752397060394
D4:22:CD:00:05:5D,173.91246032714844,-13.404927253723145,-127.91188049316406,-18.560317993164062,-5.072410583496094,29.87726593017578,2396.3303945064545
D4:22:CD:00:05:6B,-84.23384094238281,-78.57947540283203,50.041954040527344,-9.444925308227539,12.246173858642578,48.383544921875,2396.3303945064545
D4:22:CD:00:49:AA,-151.46299743652344,-75.0464096069336,57.40347671508789,-2.5578560829162598,-0.057920701801776886,-2.0276107788085938,2396.3303945064545
D4:22:CD:00:05:6E,154.86093139648438,-54.201141357421875,93.13018035888672,4.443877220153809,-21.261112213134766,21.414264678955078,2396.3303945064545
D4:22:CD:00:05:5E,-139.36471557617188,-33.597206115722656,-13.988091468811035,3.512943744659424,-6.669349670410156,-0.893610954284668,2396.3303945064545
D4:22:CD:00:05:5D,168.38063049316406,-11.17404842376709,-127.0112075805664,-20.836307525634766,-19.43841552734375,0.42798423767089844,2396.3604085445404
D4:22:CD:00:05:6B,-45.49313735961914,-84.5769271850586,24.91205406188965,8.747932434082031,11.131351470947266,4.5052900314331055,2396.3604085445404
D4:22:CD:00:49:AA,-156.74913024902344,-73.45934295654297,63.2227783203125,1.4178273677825928,-0.9811481237411499,7.109041213989258,2396.3604085445404
D4:22:CD:00:05:6E,139.2319793701172,-42.62727737426758,114.57649993896484,23.07086181640625,31.623027801513672,14.33049201965332,2396.3604085445404
D4:22:CD:00:05:5E,-140.211669921875,-32.45091247558594,-13.514283180236816,3.637554168701172,-5.885680198669434,-0.928797721862793,2396.3604085445404
D4:22:CD:00:05:5D,167.9570770263672,-7.640410900115967,-125.19348907470703,-17.366962432861328,-15.666339874267578,7.01264762878418,2396.3899364471436
D4:22:CD:00:05:6B,-52.66093826293945,-76.82649230957031,30.057552337646484,14.518424987792969,16.501567840576172,13.929826736450195,2396.3899364471436
D4:22:CD:00:49:AA,-160.56622314453125,-72.79154205322266,66.0914535522461,5.995378494262695,1.2935950756072998,10.633451461791992,2396.3899364471436
D4:22:CD:00:05:6E,129.09442138671875,-29.349266052246094,126.55784606933594,19.54431915283203,7.0007123947143555,6.586591720581055,2396.3899364471436
D4:22:CD:00:05:5E,-140.72964477539062,-32.79376983642578,-12.846641540527344,2.922110080718994,-6.020025253295898,-1.8782291412353516,2396.3899364471436
D4:22:CD:00:05:5D,164.91427612304688,-2.1160948276519775,-124.60240173339844,-13.75285530090332,-15.030017852783203,6.183727264404297,2396.419945001602
D4:22:CD:00:05:6B,-64.76993560791016,-64.86205291748047,29.56718635559082,12.341913223266602,-7.68000602722168,18.009449005126953,2396.419945001602
D4:22:CD:00:49:AA,-165.40467834472656,-73.20128631591797,69.38346862792969,2.274596691131592,-0.7618334293365479,3.361797332763672,2396.419945001602
D4:22:CD:00:05:6E,123.70866394042969,-11.826447486877441,134.42042541503906,26.629310607910156,13.100358963012695,19.500778198242188,2396.419945001602
D4:22:CD:00:05:5E,-140.8814239501953,-34.148807525634766,-12.540331840515137,2.8873977661132812,-6.6810302734375,-1.1346826553344727,2396.419945001602
D4:22:CD:00:05:5D,162.6980743408203,1.832055687904358,-125.0491943359375,-12.443878173828125,-6.780550003051758,5.046067237854004,2396.449944972992
D4:22:CD:00:05:6B,-61.86841583251953,-56.183109283447266,22.295425415039062,6.862137794494629,-0.7537150382995605,7.740627288818359,2396.449944972992
D4:22:CD:00:49:AA,-169.86585998535156,-74.73504638671875,73.68338012695312,3.2215471267700195,5.715686798095703,12.457597732543945,2396.449944972992
D4:22:CD:00:05:6E,110.16527557373047,7.522716522216797,139.76187133789062,-2.843292236328125,13.382644653320312,-0.6348962783813477,2396.449944972992
D4:22:CD:00:05:5E,-140.5846405029297,-36.50986862182617,-13.151415824890137,2.915731906890869,-7.517133712768555,-0.2994260787963867,2396.449944972992
D4:22:CD:00:05:5D,158.61778259277344,2.3880295753479004,-126.03073120117188,-3.0826454162597656,-3.494554042816162,-3.9715046882629395,2396.4804921150208
D4:22:CD:00:05:6B,-59.0132942199707,-51.467472076416016,13.002730369567871,3.0840930938720703,-2.754444122314453,2.737368583679199,2396.4804921150208
D4:22:CD:00:49:AA,-178.67620849609375,-75.60334777832031,80.40029907226562,7.596048355102539,1.2766783237457275,7.589672088623047,2396.4804921150208
D4:22:CD:00:05:6E,101.49088287353516,21.838457107543945,143.59832763671875,-0.3799840807914734,6.558028221130371,-5.49521541595459,2396.4804921150208
D4:22:CD:00:05:5E,-139.7279815673828,-39.815467834472656,-15.866557121276855,3.0293636322021484,-9.591474533081055,-0.2086620330810547,2396.4804921150208
D4:22:CD:00:05:5D,156.53086853027344,-1.2684980630874634,-127.57476806640625,-0.9933842420578003,1.0219368934631348,-9.636699676513672,2396.510486841202
D4:22:CD:00:05:6B,-58.48147201538086,-52.33137512207031,3.7763309478759766,-2.0123281478881836,-5.867313385009766,-1.9434332847595215,2396.510486841202
D4:22:CD:00:49:AA,170.79849243164062,-76.20796966552734,89.39384460449219,4.6210126876831055,1.7758162021636963,5.172605514526367,2396.510486841202
D4:22:CD:00:05:6E,95.48237609863281,30.76847267150879,146.56541442871094,0.17256540060043335,-1.764995813369751,-2.7265477180480957,2396.510486841202
D4:22:CD:00:05:5E,-137.65200805664062,-43.84269714355469,-21.197729110717773,7.947439193725586,-11.055612564086914,3.132706642150879,2396.510486841202
D4:22:CD:00:05:5D,155.3487548828125,-9.669971466064453,-128.44580078125,-2.20487642288208,0.7360072135925293,-16.420886993408203,2396.545487642288
D4:22:CD:00:05:6B,-57.31562805175781,-59.11996078491211,-6.054290771484375,-3.1075305938720703,-1.8897404670715332,-1.8520817756652832,2396.545487642288
D4:22:CD:00:49:AA,160.51339721679688,-75.89459228515625,97.53948974609375,3.0685129165649414,0.7065067291259766,2.2530431747436523,2396.545487642288
D4:22:CD:00:05:6E,90.28549194335938,36.1462516784668,148.9597930908203,-0.6935809850692749,-4.977381706237793,-4.223479270935059,2396.545487642288
D4:22:CD:00:05:5E,-128.39620971679688,-50.7913932800293,-31.880905151367188,17.403980255126953,-7.863870620727539,-4.149595260620117,2396.545487642288
D4:22:CD:00:05:5D,156.41943359375,-21.716327667236328,-127.86868286132812,-3.7821831703186035,-2.3876585960388184,-18.580169677734375,2396.5750210285187
D4:22:CD:00:05:6B,-54.72354507446289,-68.53633880615234,-18.122289657592773,-4.541567802429199,-3.0940356254577637,-4.446993827819824,2396.5750210285187
D4:22:CD:00:49:AA,152.8780517578125,-74.95347595214844,103.11043548583984,1.4814865589141846,-0.9295076131820679,-6.45125675201416,2396.5750210285187
D4:22:CD:00:05:6E,86.7354965209961,39.149471282958984,152.7334747314453,-0.46357470750808716,-3.88704252243042,-7.7638444900512695,2396.5750210285187
D4:22:CD:00:05:5E,-116.78487396240234,-54.236656188964844,-36.67660140991211,-10.932178497314453,-8.900156021118164,-8.367815017700195,2396.5750210285187
D4:22:CD:00:05:5D,157.8356475830078,-36.61333084106445,-126.13026428222656,-5.716168403625488,-2.994002342224121,-12.008586883544922,2396.6300365924835
D4:22:CD:00:05:6B,-36.44591522216797,-78.63006591796875,-43.665077209472656,-6.781525611877441,-1.4739878177642822,-4.859339714050293,2396.6300365924835
D4:22:CD:00:49:AA,151.2202911376953,-73.69931030273438,103.35200500488281,-1.6531333923339844,0.4648998975753784,-9.024654388427734,2396.6300365924835
D4:22:CD:00:05:6E,84.81888580322266,40.2045783996582,158.2726593017578,-1.4200553894042969,-2.9608378410339355,-7.841828346252441,2396.6300365924835
D4:22:CD:00:05:5E,-121.12383270263672,-55.44175338745117,-32.541358947753906,1.7280421257019043,-6.428752899169922,-11.226570129394531,2396.6300365924835
D4:22:CD:00:05:5D,155.48043823242188,-54.055912017822266,-123.26107788085938,-3.7540879249572754,-2.6433300971984863,-3.2679977416992188,2396.6600506305695
D4:22:CD:00:05:6B,28.651212692260742,-82.32386779785156,-116.12044525146484,-4.284304618835449,-0.9065384864807129,-7.661020278930664,2396.6600506305695
D4:22:CD:00:49:AA,151.10130310058594,-73.15193176269531,102.75418853759766,-1.7110214233398438,0.40250420570373535,-9.221166610717773,2396.6600506305695
D4:22:CD:00:05:6E,83.6734848022461,39.08700942993164,165.50115966796875,-2.3784399032592773,-2.110713005065918,-9.36214828491211,2396.6600506305695
D4:22:CD:00:05:5E,-128.92227172851562,-55.5796012878418,-29.879274368286133,4.19023323059082,1.4331512451171875,-11.41438102722168,2396.6600506305695
D4:22:CD:00:05:5D,146.10096740722656,-73.59976959228516,-114.62307739257812,0.026421017944812775,-3.0960845947265625,8.409082412719727,2396.6905801296234
D4:22:CD:00:05:6B,66.66616821289062,-76.37447357177734,-162.84226989746094,-7.473967552185059,1.9153342247009277,-8.509775161743164,2396.6905801296234
D4:22:CD:00:49:AA,148.61260986328125,-74.1001205444336,104.4291763305664,-0.6610907316207886,0.7201230525970459,-9.668956756591797,2396.6905801296234
D4:22:CD:00:05:6E,84.61473083496094,34.66753387451172,173.91868591308594,-4.0060577392578125,-2.6916332244873047,-9.560037612915039,2396.6905801296234
D4:22:CD:00:05:5E,-133.03237915039062,-56.49898910522461,-30.577558517456055,-12.50986099243164,2.569277763366699,0.917241096496582,2396.6905801296234
D4:22:CD:00:05:5D,18.925710678100586,-83.64372253417969,13.835631370544434,11.345706939697266,0.15057039260864258,24.618404388427734,2396.7205798625946
D4:22:CD:00:05:6B,78.60688018798828,-68.66326141357422,179.6934356689453,-5.163396835327148,2.482057571411133,-9.781698226928711,2396.7205798625946
D4:22:CD:00:49:AA,144.54725646972656,-74.95759582519531,107.30729675292969,2.292409896850586,0.4067343473434448,-10.822284698486328,2396.7205798625946
D4:22:CD:00:05:6E,87.42108154296875,25.876609802246094,-178.80699157714844,-11.970745086669922,-0.9016587734222412,-9.668781280517578,2396.7205798625946
D4:22:CD:00:05:5E,-131.66110229492188,-55.434696197509766,-30.075960159301758,1.649512767791748,6.231808662414551,-0.6582221984863281,2396.7205798625946
D4:22:CD:00:05:5D,-6.538912773132324,-67.93720245361328,43.069908142089844,16.728496551513672,30.973251342773438,-10.193565368652344,2396.750582933426
D4:22:CD:00:05:6B,85.69506072998047,-62.12578201293945,168.03062438964844,-6.1216840744018555,6.197307586669922,-8.29189682006836,2396.750582933426
D4:22:CD:00:49:AA,139.8315887451172,-75.06647491455078,110.20622253417969,1.8196680545806885,-1.1093430519104004,-6.809584617614746,2396.750582933426
D4:22:CD:00:05:6E,91.66020202636719,15.573963165283203,-173.535888671875,-26.534996032714844,0.9235327243804932,-8.632081985473633,2396.750582933426
D4:22:CD:00:05:5E,-134.64698791503906,-52.81026840209961,-28.50657081604004,6.5416975021362305,-0.6892267465591431,-0.1262378692626953,2396.750582933426
D4:22:CD:00:05:5D,-6.442785739898682,-67.07684326171875,39.91460418701172,8.580938339233398,-1.0203967094421387,3.4661436080932617,2396.780129671097
D4:22:CD:00:05:6B,96.34173583984375,-54.65663146972656,160.80751037597656,-8.403535842895508,8.749448776245117,-6.700958251953125,2396.780129671097
D4:22:CD:00:49:AA,138.67919921875,-75.57139587402344,111.19058990478516,-1.086371898651123,-2.1968259811401367,-5.365030288696289,2396.780129671097
D4:22:CD:00:05:6E,105.41526794433594,16.5364990234375,-171.73480224609375,7.453786849975586,4.712594985961914,-12.641019821166992,2396.780129671097
D4:22:CD:00:05:5E,-144.87863159179688,-46.730220794677734,-26.53987693786621,8.198343276977539,-9.660554885864258,-6.762447357177734,2396.780129671097
D4:22:CD:00:05:5D,-1.499691128730774,-68.8200912475586,35.47465515136719,5.794712066650391,3.395941734313965,-4.864267349243164,2396.8111238479614
D4:22:CD:00:05:6B,110.5256118774414,-46.489524841308594,159.90869140625,-5.767795562744141,5.240917205810547,-4.8350419998168945,2396.8111238479614
D4:22:CD:00:49:AA,148.89064025878906,-73.9688491821289,101.56722259521484,-1.337613582611084,-2.633582592010498,2.2713146209716797,2396.8111238479614
D4:22:CD:00:05:6E,116.18109893798828,26.166854858398438,-172.8669891357422,-2.445559501647949,2.6312341690063477,5.7601776123046875,2396.8111238479614
D4:22:CD:00:05:5E,-148.46966552734375,-42.803157806396484,-25.962812423706055,2.4642653465270996,-10.741996765136719,-2.656376361846924,2396.8111238479614
D4:22:CD:00:05:5D,14.286930084228516,-72.90161895751953,23.37484359741211,10.641317367553711,10.892435073852539,2.392679214477539,2396.845130443573
D4:22:CD:00:05:6B,116.94091033935547,-42.883506774902344,160.3804473876953,-2.0767745971679688,4.475865364074707,0.8345174789428711,2396.845130443573
D4:22:CD:00:49:AA,152.4525604248047,-74.45002746582031,98.17118072509766,1.3319475650787354,4.119460105895996,8.884574890136719,2396.845130443573
D4:22:CD:00:05:6E,114.1236343383789,37.722320556640625,-177.4081268310547,-1.6001522541046143,2.3853020668029785,-7.759871482849121,2396.845130443573
D4:22:CD:00:05:5E,-145.86856079101562,-42.32085037231445,-26.94322967529297,7.683684349060059,-6.850018501281738,4.918353080749512,2396.845130443573
D4:22:CD:00:05:5D,34.26776123046875,-77.64214324951172,5.776195526123047,9.12054443359375,4.094407081604004,-0.03611564636230469,2396.874658346176
D4:22:CD:00:05:6B,112.1792221069336,-44.27993392944336,158.05911254882812,-8.814403533935547,5.623757362365723,8.873199462890625,2396.874658346176
D4:22:CD:00:49:AA,157.02493286132812,-75.12666320800781,95.33226776123047,6.228277206420898,0.2351222038269043,6.813447952270508,2396.874658346176
D4:22:CD:00:05:6E,114.78649139404297,51.445823669433594,171.57647705078125,-10.54182243347168,0.7944369316101074,-11.447870254516602,2396.874658346176
D4:22:CD:00:05:5E,-143.960205078125,-42.45433044433594,-28.846256256103516,9.198110580444336,-8.932926177978516,5.022127151489258,2396.874658346176
D4:22:CD:00:05:5D,76.46739959716797,-80.69861602783203,-32.85008239746094,11.731170654296875,-2.5932364463806152,7.1062469482421875,2396.9056737422943
D4:22:CD:00:05:6B,112.07434844970703,-45.83436965942383,155.22010803222656,-13.535150527954102,7.917293548583984,2.9812803268432617,2396.9056737422943
D4:22:CD:00:49:AA,161.9718780517578,-74.88494873046875,92.34838104248047,3.9284119606018066,-2.719265937805176,9.420761108398438,2396.9056737422943
D4:22:CD:00:05:6E,99.2691650390625,61.749481201171875,146.8775177001953,-12.437973022460938,1.061335563659668,-8.839286804199219,2396.9056737422943
D4:22:CD:00:05:5E,-139.20848083496094,-43.63974380493164,-32.286590576171875,9.013086318969727,-8.762899398803711,1.631692886352539,2396.9056737422943
D4:22:CD:00:05:5D,108.16665649414062,-81.34501647949219,-65.05006408691406,-7.586398124694824,-14.882902145385742,4.243170738220215,2396.9606878757477
D4:22:CD:00:05:6B,121.04365539550781,-46.760101318359375,152.74534606933594,-6.529874801635742,5.632075309753418,6.76380729675293,2396.9606878757477
D4:22:CD:00:49:AA,168.5895538330078,-75.05037689208984,90.35203552246094,-0.11955820024013519,-2.2066168785095215,3.1518468856811523,2396.9606878757477
D4:22:CD:00:05:6E,72.3883285522461,62.77869415283203,114.31062316894531,6.399085998535156,-0.8437464237213135,-15.559202194213867,2396.9606878757477
D4:22:CD:00:05:5E,-127.14649963378906,-46.23044204711914,-39.21514129638672,9.065420150756836,-6.309136390686035,-4.9677534103393555,2396.9606878757477
D4:22:CD:00:05:5D,115.5211181640625,-84.94642639160156,-75.45603942871094,-5.27448844909668,-1.9969227313995361,5.4945068359375,2396.990223169327
D4:22:CD:00:05:6B,128.55421447753906,-48.737953186035156,148.8053436279297,-0.8793965578079224,5.2256975173950195,5.108551979064941,2396.990223169327
D4:22:CD:00:49:AA,174.82525634765625,-74.53211212158203,89.6785659790039,-1.3800184726715088,-1.2060456275939941,-2.449596881866455,2396.990223169327
D4:22:CD:00:05:6E,66.87162017822266,57.92384338378906,93.27308654785156,8.094366073608398,-5.01052188873291,-6.839015007019043,2396.990223169327
D4:22:CD:00:05:5E,-112.22270965576172,-45.69978713989258,-42.56464385986328,-4.788132667541504,-12.932701110839844,-1.6968202590942383,2396.990223169327
D4:22:CD:00:05:5D,145.4182891845703,-85.79313659667969,-102.2073745727539,-3.179063320159912,2.475162982940674,-2.2219390869140625,2397.020223379135
D4:22:CD:00:05:6B,134.66172790527344,-50.69158935546875,144.4927978515625,-0.46867966651916504,4.225052833557129,-3.1415882110595703,2397.020223379135
D4:22:CD:00:49:AA,178.57322692871094,-72.58116912841797,90.54582214355469,-1.78550386428833,1.317943811416626,-8.880949020385742,2397.020223379135
D4:22:CD:00:05:6E,73.44731903076172,51.79287338256836,81.22523498535156,6.729199409484863,-0.6108063459396362,-4.161174774169922,2397.020223379135
D4:22:CD:00:05:5E,-102.26010131835938,-42.7919807434082,-38.847557067871094,-10.186660766601562,-31.782806396484375,-3.1981239318847656,2397.020223379135
D4:22:CD:00:05:5D,170.6726531982422,-84.83472442626953,-124.83487701416016,0.8906083106994629,-2.765237331390381,3.0108585357666016,2397.050224304199
D4:22:CD:00:05:6B,140.6732177734375,-53.6927604675293,140.70591735839844,2.925565719604492,-0.9313309192657471,-6.18037223815918,2397.050224304199
D4:22:CD:00:49:AA,178.45101928710938,-70.65324401855469,93.34072875976562,-0.45230239629745483,2.744278907775879,-5.029618263244629,2397.050224304199
D4:22:CD:00:05:6E,84.32495880126953,45.34314727783203,75.68647003173828,8.687845230102539,2.7934441566467285,2.3794641494750977,2397.050224304199
D4:22:CD:00:05:5E,-103.64727783203125,-38.248905181884766,-27.45355224609375,-2.6048436164855957,-20.446285247802734,-8.986530303955078,2397.050224304199
D4:22:CD:00:05:5D,-178.46331787109375,-82.62004852294922,-136.13235473632812,1.9961731433868408,0.08098722994327545,-0.09841251373291016,2397.0797667503357
D4:22:CD:00:05:6B,143.1742706298828,-56.93839645385742,136.87533569335938,-1.394897699356079,-3.9485726356506348,-1.855210781097412,2397.0797667503357
D4:22:CD:00:49:AA,176.5384063720703,-69.46247863769531,94.6649169921875,0.0537472665309906,-0.5259978771209717,4.748682975769043,2397.0797667503357
D4:22:CD:00:05:6E,92.06038665771484,39.450416564941406,71.85546112060547,3.0116095542907715,6.740808486938477,11.742734909057617,2397.0797667503357
D4:22:CD:00:05:5E,-109.0880126953125,-34.1348762512207,-14.651768684387207,-1.66571044921875,-8.060653686523438,-14.00189208984375,2397.0797667503357
D4:22:CD:00:05:5D,-175.81285095214844,-80.33285522460938,-139.31008911132812,1.2820260524749756,-2.9217276573181152,0.03979778289794922,2397.109766960144
D4:22:CD:00:05:6B,141.59384155273438,-58.92277908325195,136.7273406982422,-4.0971832275390625,-2.7515883445739746,-0.7614250183105469,2397.109766960144
D4:22:CD:00:49:AA,175.14942932128906,-68.07209014892578,95.03986358642578,-2.3794822692871094,3.060582160949707,0.6978073120117188,2397.109766960144
D4:22:CD:00:05:6E,96.2688980102539,34.74518966674805,66.67913055419922,5.242504119873047,2.4887876510620117,2.6659927368164062,2397.109766960144
D4:22:CD:00:05:5E,-114.5593490600586,-31.184011459350586,-3.0181055068969727,-1.3789646625518799,-2.4582133293151855,-15.29470443725586,2397.109766960144
D4:22:CD:00:05:5D,-174.00958251953125,-78.3964614868164,-140.34530639648438,0.5863205194473267,0.8884903192520142,0.4180326461791992,2397.1753017902374
D4:22:CD:00:05:6B,135.88858032226562,-61.15586853027344,138.75027465820312,-6.5838470458984375,-2.781482219696045,-2.055820941925049,2397.1753017902374
D4:22:CD:00:49:AA,173.03012084960938,-67.861083984375,96.79939270019531,-3.0720205307006836,2.9297757148742676,-2.583310604095459,2397.1753017902374
D4:22:CD:00:05:6E,103.18193054199219,29.75678062438965,60.211082458496094,2.124030113220215,2.934825897216797,-2.3058319091796875,2397.1753017902374
D4:22:CD:00:05:5E,-121.941650390625,-29.23380470275879,7.018540382385254,-2.5030055046081543,0.6270908117294312,-14.70115852355957,2397.1753017902374
D4:22:CD:00:05:5D,-174.25892639160156,-76.75370025634766,-139.89047241210938,0.377673864364624,-0.15133246779441833,-0.10698890686035156,2397.1793179512024
D4:22:CD:00:05:6B,129.5397186279297,-64.70600891113281,140.78091430664062,-4.781795501708984,-3.2081661224365234,-1.1300344467163086,2397.1793179512024
D4:22:CD:00:49:AA,169.75965881347656,-67.29798889160156,99.3419418334961,-2.1876063346862793,1.3318486213684082,-0.8899688720703125,2397.1793179512024
D4:22:CD:00:05:6E,109.00709533691406,21.7235050201416,53.24550247192383,2.4727001190185547,5.611719131469727,-4.7062835693359375,2397.1793179512024
D4:22:CD:00:05:5E,-130.18597412109375,-28.73676872253418,14.785235404968262,-1.6820273399353027,1.9478790760040283,-11.423152923583984,2397.1793179512024
D4:22:CD:00:05:5D,-176.4100799560547,-74.72467803955078,-137.42457580566406,0.05988135188817978,-2.0939645767211914,-1.031754493713379,2397.205318212509
D4:22:CD:00:05:6B,121.85635375976562,-69.9935302734375,143.86817932128906,-6.573190689086914,-1.1858937740325928,-2.2455010414123535,2397.205318212509
D4:22:CD:00:49:AA,165.77748107910156,-67.28009796142578,102.13581848144531,-1.22104811668396,1.5220904350280762,-1.7422151565551758,2397.205318212509
D4:22:CD:00:05:6E,111.00311279296875,8.797807693481445,46.32568359375,5.972654342651367,7.81398868560791,-5.443263053894043,2397.205318212509
D4:22:CD:00:05:5E,-137.86837768554688,-30.552331924438477,20.112783432006836,2.067866802215576,1.4616799354553223,-8.598075866699219,2397.205318212509
D4:22:CD:00:05:5D,-179.2495880126953,-71.67669677734375,-133.25096130371094,0.578364372253418,-2.780353546142578,-0.8837652206420898,2397.2603330612183
D4:22:CD:00:05:6B,108.48371124267578,-76.32683563232422,152.24484252929688,-4.549389839172363,0.26454830169677734,-4.874594688415527,2397.2603330612183
D4:22:CD:00:49:AA,160.17886352539062,-68.09124755859375,105.91757202148438,-1.8711225986480713,1.7591736316680908,-4.246249198913574,2397.2603330612183
D4:22:CD:00:05:6E,105.16947174072266,-9.642537117004395,39.19038772583008,13.396669387817383,16.062278747558594,0.619359016418457,2397.2603330612183
D4:22:CD:00:05:5E,-142.00747680664062,-35.44388198852539,22.3619384765625,5.748818397521973,7.098300933837891,-2.7915520668029785,2397.2603330612183
D4:22:CD:00:05:5D,176.2628173828125,-67.51954650878906,-127.26190185546875,-0.5522587299346924,-1.8223004341125488,-1.276947021484375,2397.2898528575897
D4:22:CD:00:05:6B,76.48145294189453,-82.02587890625,179.21194458007812,-4.373538017272949,1.4775428771972656,-6.924344062805176,2397.2898528575897
D4:22:CD:00:49:AA,155.20509338378906,-68.72673034667969,109.16780090332031,-1.2043492794036865,1.7602274417877197,-4.659298896789551,2397.2898528575897
D4:22:CD:00:05:6E,81.01961517333984,-28.967485427856445,36.03933334350586,24.339820861816406,19.605533599853516,20.079151153564453,2397.2898528575897
D4:22:CD:00:05:5E,-138.2845001220703,-42.47407150268555,20.126224517822266,1.895777702331543,-3.3489670753479004,17.46902084350586,2397.2898528575897
D4:22:CD:00:05:5D,172.7792510986328,-62.297611236572266,-120.25146484375,-1.2259902954101562,0.7175875902175903,1.1805648803710938,2397.320987701416
D4:22:CD:00:05:6B,16.479578018188477,-82.18583679199219,-123.4212875366211,-5.606987953186035,1.8020155429840088,-7.0279436111450195,2397.320987701416
D4:22:CD:00:49:AA,150.9922332763672,-69.74373626708984,113.1111068725586,-1.4867937564849854,-0.3797670602798462,-0.7900419235229492,2397.320987701416
D4:22:CD:00:05:6E,52.88642883300781,-35.38865661621094,36.05360412597656,24.511993408203125,14.088479995727539,-21.711868286132812,2397.320987701416
D4:22:CD:00:05:5E,-139.5406951904297,-44.09394836425781,18.695707321166992,8.61640739440918,23.805156707763672,-1.7856340408325195,2397.320987701416
D4:22:CD:00:05:5D,170.3362274169922,-56.99614715576172,-114.40019226074219,-2.5120291709899902,1.0890874862670898,1.3725976943969727,2397.350070476532
D4:22:CD:00:05:6B,-11.742241859436035,-76.35018920898438,-95.39708709716797,-7.015616416931152,2.2637739181518555,-5.083580017089844,2397.350070476532
D4:22:CD:00:49:AA,142.3953094482422,-71.61639404296875,121.97868347167969,1.1295976638793945,1.6780939102172852,-1.2649755477905273,2397.350070476532
D4:22:CD:00:05:6E,52.24631881713867,-34.0361328125,32.633323669433594,32.63239288330078,4.271611213684082,-15.83535385131836,2397.350070476532
D4:22:CD:00:05:5E,-140.8164825439453,-47.07442092895508,17.86277198791504,9.844823837280273,5.9183454513549805,13.961771011352539,2397.350070476532
D4:22:CD:00:05:5D,170.3952178955078,-52.940982818603516,-111.26346588134766,0.653377890586853,2.2624411582946777,-0.8784360885620117,2397.3806223869324
D4:22:CD:00:05:6B,-25.348833084106445,-68.30896759033203,-83.43031311035156,-12.553356170654297,4.576326370239258,1.2688493728637695,2397.3806223869324
D4:22:CD:00:49:AA,138.5847625732422,-71.44339752197266,124.19662475585938,0.5550121068954468,2.2037010192871094,7.010290145874023,2397.3806223869324
D4:22:CD:00:05:6E,66.06000518798828,-33.09564971923828,33.18043899536133,8.759561538696289,20.409862518310547,3.9223289489746094,2397.3806223869324
D4:22:CD:00:05:5E,-143.0651092529297,-46.710906982421875,18.432188034057617,14.599235534667969,2.5791196823120117,10.844989776611328,2397.3806223869324
D4:22:CD:00:05:5D,171.39178466796875,-50.40566635131836,-110.69805145263672,2.7131195068359375,0.6797199249267578,1.7786493301391602,2397.41077542305
D4:22:CD:00:05:6B,-36.4666748046875,-58.295684814453125,-73.77930450439453,-17.670734405517578,16.112842559814453,11.14017105102539,2397.41077542305
D4:22:CD:00:49:AA,136.25770568847656,-71.22997283935547,126.0155029296875,-6.036466598510742,-0.30757349729537964,8.737743377685547,2397.41077542305
D4:22:CD:00:05:6E,77.30021667480469,-36.89643478393555,35.13636779785156,9.258224487304688,20.714580535888672,-4.427215576171875,2397.41077542305
D4:22:CD:00:05:5E,-144.6344757080078,-43.433319091796875,18.845596313476562,17.789730072021484,-7.044389724731445,3.458889961242676,2397.41077542305
D4:22:CD:00:05:5D,172.35069274902344,-49.90357971191406,-111.63874816894531,3.5906782150268555,1.838219165802002,-0.062005043029785156,2397.4457817077637
D4:22:CD:00:05:6B,-38.32897186279297,-45.87359619140625,-64.41879272460938,1.1942663192749023,20.78376007080078,14.764055252075195,2397.4457817077637
D4:22:CD:00:49:AA,136.56332397460938,-71.58732604980469,124.7304458618164,-0.9543131589889526,1.5359275341033936,9.228706359863281,2397.4457817077637
D4:22:CD:00:05:6E,85.4399642944336,-43.7908935546875,34.18727493286133,7.283511161804199,17.083587646484375,7.73155403137207,2397.4457817077637
D4:22:CD:00:05:5E,-138.32179260253906,-41.17601776123047,18.96544647216797,21.09146499633789,1.3040528297424316,11.068328857421875,2397.4457817077637
D4:22:CD:00:05:5D,172.66107177734375,-51.33794403076172,-112.1384048461914,1.411574125289917,0.7314233779907227,1.3144493103027344,2397.4753098487854
D4:22:CD:00:05:6B,-38.74835968017578,-29.34039878845215,-54.236820220947266,-13.303550720214844,13.403724670410156,28.693897247314453,2397.4753098487854
D4:22:CD:00:49:AA,137.13134765625,-71.57312774658203,122.22198486328125,-2.8517723083496094,-0.9687216281890869,8.08112907409668,2397.4753098487854
D4:22:CD:00:05:6E,96.3076171875,-49.97904586791992,31.937746047973633,4.3752641677856445,9.045434951782227,10.643386840820312,2397.4753098487854
D4:22:CD:00:05:5E,-135.9104461669922,-34.724178314208984,20.10897445678711,24.639820098876953,-4.147629737854004,6.884984970092773,2397.4753098487854
