Device,EulerX,EulerY,EulerZ,FreeAccX,FreeAccY,FreeAccZ,Timestamp
D4:22:CD:00:05:5D,173.50799560546875,-59.74094009399414,-97.41449737548828,4.870901107788086,0.8952188491821289,1.6146736145019531,2361.7833774089813
D4:22:CD:00:05:6B,-83.90323638916016,-55.64302444458008,-64.5954818725586,6.862610816955566,14.698736190795898,5.25284481048584,2361.7833774089813
D4:22:CD:00:49:AA,149.89076232910156,-72.40692901611328,134.7628936767578,0.0829237550497055,1.581136703491211,3.0293502807617188,2361.7833774089813
D4:22:CD:00:05:6E,99.54621887207031,-40.84750747680664,14.77169132232666,16.23922348022461,3.1984682083129883,-0.24359798431396484,2361.7833774089813
D4:22:CD:00:05:5E,173.45565795898438,-55.85977554321289,-44.263607025146484,-3.5011234283447266,-9.883230209350586,11.558977127075195,2361.7833774089813
D4:22:CD:00:05:5D,173.30740356445312,-56.277225494384766,-96.51638793945312,2.655332565307617,0.8680235147476196,1.1525697708129883,2361.78737783432
D4:22:CD:00:05:6B,-77.38701629638672,-49.86437225341797,-72.76396179199219,0.4017457962036133,19.75667953491211,9.063835144042969,2361.78737783432
D4:22:CD:00:49:AA,144.86483764648438,-72.73060607910156,141.2803955078125,-3.818333625793457,-0.611616849899292,6.455686569213867,2361.78737783432
D4:22:CD:00:05:6E,104.34719848632812,-34.942996978759766,16.274778366088867,12.669347763061523,7.021676063537598,7.551261901855469,2361.78737783432
D4:22:CD:00:05:5E,-178.38449096679688,-54.41238021850586,-44.93269348144531,5.489622116088867,-6.4217023849487305,19.045928955078125,2361.78737783432
D4:22:CD:00:05:6B,-74.28065490722656,-38.936485290527344,-73.62037658691406,4.015505790710449,17.533573150634766,9.413551330566406,2361.790452003479
D4:22:CD:00:49:AA,142.3082275390625,-73.01273345947266,145.28175354003906,-3.163259983062744,1.2185733318328857,13.049005508422852,2361.790452003479
D4:22:CD:00:05:6E,104.25526428222656,-28.377185821533203,16.586286544799805,17.396099090576172,8.378692626953125,9.122188568115234,2361.790452003479
D4:22:CD:00:05:5E,-167.08583068847656,-54.20310592651367,-47.356529235839844,4.203041076660156,-7.2274169921875,10.27674674987793,2361.790452003479
D4:22:CD:00:05:5D,-92.97319030761719,-77.58084106445312,-179.54946899414062,-1.382176399230957,1.7138121128082275,-2.2281503677368164,2361.7924518585205
D4:22:CD:00:49:AA,139.94720458984375,-73.51117706298828,149.1897735595703,-1.0414061546325684,1.8996474742889404,10.112873077392578,2361.7924518585205
D4:22:CD:00:05:6E,104.66806030273438,-23.295730590820312,15.731274604797363,14.0838623046875,4.303906440734863,8.020692825317383,2361.7924518585205
D4:22:CD:00:05:5E,-165.73968505859375,-50.29045104980469,-50.05890655517578,-1.254030466079712,1.0809540748596191,10.187610626220703,2361.7924518585205
D4:22:CD:00:05:5D,-133.34434509277344,-78.61422729492188,-140.22894287109375,-1.9311249256134033,0.15740966796875,0.6446762084960938,2361.79545211792
D4:22:CD:00:05:6B,168.25387573242188,-47.13090896606445,-36.47121047973633,7.59904670715332,0.09555578231811523,-3.5650391578674316,2361.79545211792
D4:22:CD:00:49:AA,156.78579711914062,-74.22217559814453,127.2791976928711,-0.5666283369064331,-2.2836899757385254,-1.8579521179199219,2361.79545211792
D4:22:CD:00:05:5D,-165.23875427246094,-75.79656219482422,-108.48424530029297,-2.226984977722168,1.2760543823242188,0.7472333908081055,2361.86612868309
D4:22:CD:00:05:6B,163.353271484375,-58.0357780456543,-45.080684661865234,27.855606079101562,-6.070978164672852,-1.744211196899414,2361.86612868309
D4:22:CD:00:49:AA,170.46014404296875,-71.80542755126953,113.03837585449219,-0.6911815404891968,-2.2356653213500977,1.0095243453979492,2361.86612868309
D4:22:CD:00:05:6E,-45.90925979614258,-64.22087860107422,-162.86572265625,-5.672677040100098,-0.31953591108322144,10.443258285522461,2361.86612868309
D4:22:CD:00:05:5E,-135.94410705566406,-68.2086181640625,-68.8283462524414,-4.91213321685791,-11.960147857666016,19.284637451171875,2361.86612868309
D4:22:CD:00:05:5D,178.1938934326172,-70.30799865722656,-90.66905975341797,-0.8431597948074341,4.350927352905273,-1.8685145378112793,2361.895136833191
D4:22:CD:00:05:6B,-140.66775512695312,-73.26229858398438,-97.9791488647461,20.061630249023438,-6.506402969360352,4.497162818908691,2361.895136833191
D4:22:CD:00:49:AA,176.4057159423828,-68.49813842773438,108.16421508789062,0.6798704862594604,-1.0062713623046875,7.102701187133789,2361.895136833191
D4:22:CD:00:05:6E,-32.752403259277344,-71.08506774902344,-169.9740753173828,-6.9562788009643555,3.244563102722168,12.744503021240234,2361.895136833191
D4:22:CD:00:05:5E,-178.1080780029297,-68.22239685058594,-31.985506057739258,5.167824745178223,-1.7025442123413086,22.565044403076172,2361.895136833191
D4:22:CD:00:05:5D,171.96156311035156,-64.4990463256836,-82.78844451904297,3.0609354972839355,4.419743537902832,-1.0174999237060547,2361.925150871277
D4:22:CD:00:05:6B,-80.59759521484375,-59.24384689331055,-150.08888244628906,7.846932411193848,-3.482822895050049,10.84084701538086,2361.925150871277
D4:22:CD:00:49:AA,176.00918579101562,-66.51840209960938,109.61448669433594,1.9672927856445312,-1.237987756729126,5.626622200012207,2361.925150871277
D4:22:CD:00:05:6E,-14.151906967163086,-81.49076843261719,-175.49124145507812,-12.786579132080078,-3.0172815322875977,12.196649551391602,2361.925150871277
D4:22:CD:00:05:5E,-175.93319702148438,-67.80731964111328,-33.48542404174805,-1.4762005805969238,0.6992522478103638,10.142650604248047,2361.925150871277
D4:22:CD:00:05:5D,171.84841918945312,-59.92214584350586,-81.29399108886719,2.5162858963012695,4.000052452087402,-0.6497287750244141,2361.985687971115
D4:22:CD:00:05:6B,-72.66027069091797,-35.717872619628906,-154.7787322998047,8.982612609863281,8.552242279052734,18.165283203125,2361.985687971115
D4:22:CD:00:49:AA,176.1370086669922,-66.2541732788086,111.19210815429688,0.45958197116851807,0.9316332340240479,8.41328239440918,2361.985687971115
D4:22:CD:00:05:6E,84.91224670410156,-81.56793212890625,90.85514831542969,-6.276787757873535,-3.16530179977417,18.176002502441406,2361.985687971115
D4:22:CD:00:05:5E,-170.9976348876953,-66.14398193359375,-38.73125076293945,-0.4601898193359375,2.7705817222595215,-3.226496696472168,2361.985687971115
D4:22:CD:00:05:5D,173.22433471679688,-56.977439880371094,-81.50665283203125,-2.188089370727539,0.029509074985980988,3.6429214477539062,2362.015679836273
D4:22:CD:00:05:6B,-67.17808532714844,-10.95397663116455,-148.75921630859375,-4.543487548828125,-2.6961798667907715,20.67047119140625,2362.015679836273
D4:22:CD:00:49:AA,177.9686279296875,-67.86170196533203,111.78590393066406,0.07453665137290955,3.475799083709717,9.948112487792969,2362.015679836273
D4:22:CD:00:05:6E,91.67955017089844,-71.39969635009766,88.21060180664062,-1.6637492179870605,0.9295746088027954,16.582958221435547,2362.015679836273
D4:22:CD:00:05:5E,-166.3678741455078,-67.65357208251953,-45.119441986083984,-0.05915074795484543,3.1397857666015625,-9.475921630859375,2362.015679836273
D4:22:CD:00:05:5D,174.35601806640625,-55.543697357177734,-81.47152709960938,-0.1510922908782959,2.547855854034424,3.5191125869750977,2362.045229911804
D4:22:CD:00:05:6B,-57.556427001953125,8.925976753234863,-141.00411987304688,-15.872344970703125,-11.227348327636719,10.524026870727539,2362.045229911804
D4:22:CD:00:49:AA,-179.46542358398438,-70.4143295288086,110.2713851928711,1.3734633922576904,5.1870880126953125,10.595207214355469,2362.045229911804
D4:22:CD:00:05:6E,86.90550994873047,-67.57870483398438,100.95387268066406,-2.1042351722717285,-1.969527006149292,3.8506202697753906,2362.045229911804
D4:22:CD:00:05:5E,-158.1522674560547,-72.62739562988281,-55.388282775878906,2.652705192565918,4.530983924865723,-12.253366470336914,2362.045229911804
D4:22:CD:00:05:5D,175.01341247558594,-56.13758087158203,-81.88032531738281,0.21035271883010864,2.246157646179199,4.453866004943848,2362.0752313137054
D4:22:CD:00:05:6B,-43.49010467529297,21.36660385131836,-135.81336975097656,-15.163719177246094,-12.556215286254883,2.4250097274780273,2362.0752313137054
D4:22:CD:00:49:AA,-177.0533447265625,-73.4618148803711,108.54475402832031,-1.221501350402832,3.237198829650879,7.7144012451171875,2362.0752313137054
D4:22:CD:00:05:6E,81.29927825927734,-70.51563262939453,116.63329315185547,3.0182547569274902,-8.966064453125,-6.245151519775391,2362.0752313137054
D4:22:CD:00:05:5E,-127.01561737060547,-79.12523651123047,-84.98741912841797,3.5764236450195312,4.438297271728516,-9.613155364990234,2362.0752313137054
D4:22:CD:00:05:5D,174.86607360839844,-58.64250183105469,-81.00628662109375,1.1756439208984375,-0.8881479501724243,8.569696426391602,2362.1052300930023
D4:22:CD:00:05:6B,-27.744794845581055,30.1065731048584,-134.00840759277344,-13.352584838867188,-3.9619274139404297,1.2832469940185547,2362.1052300930023
D4:22:CD:00:49:AA,-172.80152893066406,-76.47518157958984,105.09455871582031,-4.058743476867676,-0.03548178821802139,3.147416114807129,2362.1052300930023
D4:22:CD:00:05:6E,61.05772399902344,-76.79652404785156,143.6670684814453,4.380246162414551,-8.748668670654297,-9.28984260559082,2362.1052300930023
D4:22:CD:00:05:5E,-64.96863555908203,-78.81329345703125,-144.87274169921875,-0.4750792384147644,2.021353244781494,-8.76357650756836,2362.1052300930023
D4:22:CD:00:05:5D,173.3509063720703,-62.11941146850586,-79.3543701171875,2.2718472480773926,-5.537690162658691,7.333850860595703,2362.1357634067535
D4:22:CD:00:05:6B,-11.669800758361816,38.713172912597656,-133.34323120117188,-13.70367431640625,2.4727020263671875,-5.262363433837891,2362.1357634067535
D4:22:CD:00:49:AA,-164.724365234375,-77.83243560791016,98.34341430664062,-0.7785038948059082,1.901914119720459,-3.446348190307617,2362.1357634067535
D4:22:CD:00:05:6E,13.997777938842773,-79.69979858398438,-165.23081970214844,3.9787158966064453,-3.2635345458984375,-11.636507034301758,2362.1357634067535
D4:22:CD:00:05:5E,-33.23423767089844,-71.79383087158203,-176.7831573486328,-4.663202285766602,-1.0103108882904053,-9.55811882019043,2362.1357634067535
D4:22:CD:00:05:5D,168.6656951904297,-67.87715148925781,-77.59613037109375,0.783786416053772,-3.828951358795166,-1.4046611785888672,2362.165779352188
D4:22:CD:00:05:6B,3.0372538566589355,47.94725799560547,-130.89942932128906,-11.584186553955078,4.425893783569336,-12.053756713867188,2362.165779352188
D4:22:CD:00:49:AA,-156.16769409179688,-78.79422760009766,90.96247100830078,2.66786527633667,1.3115997314453125,-11.073942184448242,2362.165779352188
D4:22:CD:00:05:6E,-28.19207763671875,-76.27871704101562,-120.03495025634766,2.551614761352539,-0.2665554881095886,-12.799600601196289,2362.165779352188
D4:22:CD:00:05:5E,-21.635915756225586,-63.93238830566406,167.90585327148438,-8.022085189819336,0.1476963460445404,-7.959443092346191,2362.165779352188
D4:22:CD:00:05:5D,159.8970947265625,-71.61847686767578,-76.91960906982422,2.4664669036865234,3.8244075775146484,-7.429344177246094,2362.1959846019745
D4:22:CD:00:05:6B,17.616374969482422,56.35223388671875,-124.04550170898438,-3.834414482116699,2.301715850830078,-12.813793182373047,2362.1959846019745
D4:22:CD:00:49:AA,-148.27484130859375,-80.37884521484375,83.35555267333984,-0.41667282581329346,0.13050693273544312,-11.407991409301758,2362.1959846019745
D4:22:CD:00:05:6E,-52.49768829345703,-69.31143951416016,-92.00949096679688,0.3873162269592285,-0.42470282316207886,-9.464824676513672,2362.1959846019745
D4:22:CD:00:05:5E,-21.060827255249023,-57.06888961791992,158.73550415039062,-11.484060287475586,1.563805103302002,-8.584136962890625,2362.1959846019745
D4:22:CD:00:05:5D,159.0615997314453,-73.2518310546875,-73.84915924072266,8.905858993530273,-5.102294921875,-9.134033203125,2362.2252428531647
D4:22:CD:00:05:6B,31.61115837097168,62.22929382324219,-113.66666412353516,0.06905341148376465,2.0584030151367188,-10.389768600463867,2362.2252428531647
D4:22:CD:00:49:AA,-137.8388671875,-82.45018005371094,73.5682144165039,-1.774139642715454,-0.659153938293457,-7.994206428527832,2362.2252428531647
D4:22:CD:00:05:6E,-63.99104690551758,-59.25204086303711,-74.76570129394531,2.2323741912841797,-5.740405082702637,-5.702567100524902,2362.2252428531647
D4:22:CD:00:05:5E,-26.225135803222656,-51.467777252197266,153.835205078125,-13.072507858276367,7.8232011795043945,-6.357823371887207,2362.2252428531647
D4:22:CD:00:05:5D,164.97129821777344,-77.06187438964844,-71.81542205810547,5.632807731628418,-2.8041024208068848,-10.097900390625,2362.285781621933
D4:22:CD:00:05:6B,39.80638122558594,64.56216430664062,-104.06945037841797,0.7310127019882202,1.70235013961792,-7.947185516357422,2362.285781621933
D4:22:CD:00:49:AA,-124.6383285522461,-83.87567901611328,61.177669525146484,-1.6506307125091553,-2.953859329223633,-11.470104217529297,2362.285781621933
D4:22:CD:00:05:6E,-68.05611419677734,-47.485504150390625,-64.9172134399414,7.288736343383789,-10.435541152954102,-4.778111457824707,2362.285781621933
D4:22:CD:00:05:5E,-26.999135971069336,-47.652610778808594,150.61911010742188,-16.967857360839844,7.405019760131836,-13.367332458496094,2362.285781621933
D4:22:CD:00:05:5D,172.05126953125,-80.186767578125,-72.92691040039062,-14.120365142822266,16.933597564697266,-3.6730031967163086,2362.315860271454
D4:22:CD:00:05:6B,39.08086013793945,65.4240951538086,-101.00852966308594,-1.5831563472747803,3.12994384765625,-9.998235702514648,2362.315860271454
D4:22:CD:00:49:AA,-111.56134033203125,-84.12290954589844,49.46352005004883,-1.2529330253601074,-0.5748833417892456,-6.035067558288574,2362.315860271454
D4:22:CD:00:05:6E,-67.98348236083984,-36.53837203979492,-60.13847732543945,9.47035026550293,-9.662513732910156,-6.14851188659668,2362.315860271454
D4:22:CD:00:05:5E,-24.620777130126953,-48.360923767089844,147.5530548095703,-15.062307357788086,2.8379101753234863,-18.347713470458984,2362.315860271454
D4:22:CD:00:05:5D,167.29376220703125,-77.63753509521484,-67.86869812011719,-3.319478988647461,6.553617477416992,-2.040703296661377,2362.345403432846
D4:22:CD:00:05:6B,31.505033493041992,67.8746109008789,-108.95526885986328,-2.797396183013916,3.7427902221679688,-13.658830642700195,2362.345403432846
D4:22:CD:00:49:AA,-95.61177825927734,-84.3188705444336,33.77069091796875,-1.2224178314208984,1.7840430736541748,-1.155634880065918,2362.345403432846
D4:22:CD:00:05:6E,-64.91986083984375,-28.933378219604492,-57.451393127441406,8.962444305419922,-8.740659713745117,-9.881534576416016,2362.345403432846
D4:22:CD:00:05:5E,-27.796497344970703,-54.29008102416992,147.36380004882812,-14.507137298583984,14.682657241821289,-16.01787567138672,2362.345403432846
D4:22:CD:00:05:5D,165.3388214111328,-74.45194244384766,-59.950557708740234,-5.113579750061035,-4.018355369567871,0.8082675933837891,2362.375403881073
D4:22:CD:00:05:6B,15.272662162780762,70.36282348632812,-129.73597717285156,0.558172345161438,2.501617431640625,-13.411397933959961,2362.375403881073
D4:22:CD:00:49:AA,-86.70085144042969,-84.47884368896484,24.296672821044922,0.18128666281700134,-2.4540305137634277,-0.8390712738037109,2362.375403881073
D4:22:CD:00:05:6E,-62.213645935058594,-25.801572799682617,-55.29110336303711,10.410791397094727,-4.807285308837891,-11.021242141723633,2362.375403881073
D4:22:CD:00:05:5E,-34.816925048828125,-61.40155792236328,152.23033142089844,-7.484439849853516,-11.030326843261719,8.19515609741211,2362.375403881073
D4:22:CD:00:05:5D,161.8586883544922,-71.73123931884766,-51.60097122192383,-0.7385048866271973,-2.321627140045166,2.4558353424072266,2362.4054040908813
D4:22:CD:00:05:6B,-7.385378837585449,69.26095581054688,-160.3448486328125,4.655130386352539,-0.621256947517395,-7.9851531982421875,2362.4054040908813
D4:22:CD:00:49:AA,-82.4319076538086,-84.57404327392578,19.059906005859375,-1.2522497177124023,-1.2832298278808594,5.454852104187012,2362.4054040908813
D4:22:CD:00:05:6E,-58.17531204223633,-26.160633087158203,-54.99187088012695,8.176046371459961,-4.787270545959473,-8.779487609863281,2362.4054040908813
D4:22:CD:00:05:5E,-41.80686569213867,-66.62516021728516,156.07176208496094,-4.003145217895508,-1.19228196144104,10.851579666137695,2362.4054040908813
D4:22:CD:00:05:5D,157.5996856689453,-69.26886749267578,-43.50522232055664,1.9220151901245117,-0.17190268635749817,3.4792585372924805,2362.4354174137115
D4:22:CD:00:05:6B,-23.081892013549805,62.4864387512207,170.46060180664062,-0.6001367568969727,3.3182945251464844,-7.6403608322143555,2362.4354174137115
D4:22:CD:00:49:AA,-75.97483825683594,-84.60594940185547,9.35482120513916,0.8040122985839844,-1.3854749202728271,3.2347564697265625,2362.4354174137115
D4:22:CD:00:05:6E,-52.93606185913086,-28.235830307006836,-55.00902557373047,7.50556755065918,-6.320919036865234,-9.641307830810547,2362.4354174137115
D4:22:CD:00:05:5E,-48.518863677978516,-70.31708526611328,161.69296264648438,-0.47905707359313965,5.211373329162598,9.526449203491211,2362.4354174137115
D4:22:CD:00:05:5D,152.2762451171875,-67.08267974853516,-35.92500686645508,0.7944917678833008,-0.13534089922904968,2.3957138061523438,2362.465877532959
D4:22:CD:00:05:6B,-26.41686248779297,54.0693244934082,154.55088806152344,-2.9147777557373047,1.2181720733642578,-7.095889091491699,2362.465877532959
D4:22:CD:00:49:AA,-68.8614501953125,-84.56963348388672,-1.5915169715881348,0.4392959475517273,-1.621778964996338,1.6998176574707031,2362.465877532959
D4:22:CD:00:05:6E,-50.77657699584961,-31.501731872558594,-53.89768600463867,11.281845092773438,-5.024844169616699,-8.740598678588867,2362.465877532959
D4:22:CD:00:05:5E,-56.01668930053711,-73.51217651367188,167.28591918945312,-5.0205583572387695,5.031057357788086,1.492422103881836,2362.465877532959
D4:22:CD:00:05:5D,146.07493591308594,-65.5213851928711,-30.482967376708984,0.5637220144271851,-0.6196415424346924,5.508125305175781,2362.4960157871246
D4:22:CD:00:05:6B,-30.013486862182617,50.12172317504883,150.76968383789062,7.918302536010742,-6.787360191345215,-5.642327308654785,2362.4960157871246
D4:22:CD:00:49:AA,-66.94171142578125,-84.2591552734375,-6.959251403808594,-1.4175353050231934,-1.4243357181549072,3.8170957565307617,2362.4960157871246
D4:22:CD:00:05:6E,-53.28453826904297,-35.49822235107422,-51.94892501831055,9.921102523803711,-4.300749778747559,-5.519904136657715,2362.4960157871246
D4:22:CD:00:05:5E,-57.84266662597656,-76.0789794921875,167.96495056152344,-6.316557884216309,3.8609261512756348,-3.522622585296631,2362.4960157871246
D4:22:CD:00:05:5D,138.42210388183594,-64.60624694824219,-26.68636131286621,2.2878894805908203,-1.5491304397583008,4.77402400970459,2362.5260303020477
D4:22:CD:00:05:6B,-36.66650390625,52.62171173095703,161.7164764404297,-4.728769302368164,3.4905500411987305,1.7627220153808594,2362.5260303020477
D4:22:CD:00:49:AA,-77.90330505371094,-84.33096313476562,0.6338438987731934,4.468628883361816,-1.1058979034423828,2.1338882446289062,2362.5260303020477
D4:22:CD:00:05:6E,-58.21200180053711,-39.170963287353516,-48.86869430541992,11.198738098144531,-4.847460746765137,-1.4813928604125977,2362.5260303020477
D4:22:CD:00:05:5E,-51.850830078125,-77.73371887207031,161.86924743652344,-6.021913528442383,4.4720048904418945,0.12489128112792969,2362.5260303020477
D4:22:CD:00:05:5D,127.69295501708984,-65.02576446533203,-23.55859375,5.802064895629883,-1.9953744411468506,4.654199600219727,2362.5855453014374
D4:22:CD:00:05:6B,-27.016508102416992,55.18470001220703,-175.48292541503906,-9.28316879272461,10.232295989990234,-6.6155853271484375,2362.5855453014374
D4:22:CD:00:49:AA,-91.03776550292969,-84.77910614013672,10.121789932250977,7.781040191650391,0.09596771001815796,-1.347731590270996,2362.5855453014374
D4:22:CD:00:05:6E,-63.52667999267578,-42.64176559448242,-46.23147201538086,12.926492691040039,-3.455410957336426,0.3252735137939453,2362.5855453014374
D4:22:CD:00:05:5E,-44.79206085205078,-78.25712585449219,153.78121948242188,-5.045644760131836,3.918346405029297,0.6831350326538086,2362.5855453014374
D4:22:CD:00:05:5D,121.70934295654297,-63.12897491455078,-25.874408721923828,9.11556625366211,12.581493377685547,2.4960508346557617,2362.615549325943
D4:22:CD:00:05:6B,-8.649731636047363,49.26087188720703,-149.97885131835938,-6.910802841186523,5.709159851074219,-9.206724166870117,2362.615549325943
D4:22:CD:00:49:AA,-113.78125762939453,-85.15180206298828,30.861373901367188,1.1707885265350342,1.1561224460601807,0.8562459945678711,2362.615549325943
D4:22:CD:00:05:6E,-70.66172790527344,-46.67607879638672,-44.39670181274414,9.111156463623047,-3.8571486473083496,0.005013465881347656,2362.615549325943
D4:22:CD:00:05:5E,-34.398109436035156,-78.00289916992188,142.7537841796875,-3.74027156829834,3.914595127105713,1.3206815719604492,2362.615549325943
D4:22:CD:00:05:5D,130.7852325439453,-56.79188537597656,-36.97482681274414,9.345132827758789,17.654930114746094,7.963220596313477,2362.6451003551483
D4:22:CD:00:05:6B,1.6681780815124512,36.032875061035156,-134.47950744628906,1.64668607711792,4.136148452758789,-5.232251167297363,2362.6451003551483
D4:22:CD:00:49:AA,-134.03353881835938,-84.03057861328125,52.387020111083984,-0.060909517109394073,1.744886875152588,3.2720603942871094,2362.6451003551483
D4:22:CD:00:05:6E,-79.2734603881836,-50.985469818115234,-43.257118225097656,3.397454261779785,-6.784554481506348,4.9675493240356445,2362.6451003551483
D4:22:CD:00:05:5E,-21.367107391357422,-76.92701721191406,130.40127563476562,-3.331083297729492,3.2534589767456055,0.929840087890625,2362.6451003551483
D4:22:CD:00:05:5D,140.70269775390625,-49.01591491699219,-49.418296813964844,7.260946273803711,7.878395080566406,4.544523239135742,2362.6750996112823
D4:22:CD:00:05:6B,4.429845333099365,19.48126983642578,-124.05642700195312,5.675067901611328,5.753808975219727,-7.609279632568359,2362.6750996112823
D4:22:CD:00:49:AA,-146.5962677001953,-81.96720123291016,67.46481323242188,7.623668670654297,2.2182416915893555,3.2901363372802734,2362.6750996112823
D4:22:CD:00:05:6E,-84.32843017578125,-54.90887451171875,-43.114742279052734,0.5186747312545776,-5.022154808044434,7.853727340698242,2362.6750996112823
D4:22:CD:00:05:5E,-7.568949222564697,-74.87950134277344,119.29602813720703,-3.1727771759033203,1.330254316329956,1.2454719543457031,2362.6750996112823
D4:22:CD:00:05:5D,145.86473083496094,-40.93518829345703,-59.707664489746094,2.115051746368408,0.09400786459445953,-2.195174217224121,2362.7050993442535
D4:22:CD:00:05:6B,3.277974843978882,0.702171266078949,-113.56088256835938,2.476557731628418,1.5440070629119873,-8.945114135742188,2362.7050993442535
D4:22:CD:00:49:AA,-152.67381286621094,-81.27015686035156,74.93224334716797,7.065964698791504,0.12213551998138428,2.021204948425293,2362.7050993442535
D4:22:CD:00:05:6E,-82.20719146728516,-58.35905075073242,-44.2109260559082,0.09360051155090332,-4.193692207336426,3.8345890045166016,2362.7050993442535
D4:22:CD:00:05:5E,10.42403507232666,-70.7686538696289,110.14662170410156,0.35924243927001953,-0.16659778356552124,-6.0917158126831055,2362.7050993442535
D4:22:CD:00:05:5D,150.20712280273438,-33.554813385009766,-67.34707641601562,-2.7046704292297363,-2.3490538597106934,-8.798999786376953,2362.7356293201447
D4:22:CD:00:05:6B,-2.8450207710266113,-16.408388137817383,-100.46968841552734,2.83260440826416,-2.733893394470215,-8.625078201293945,2362.7356293201447
D4:22:CD:00:49:AA,-152.7814178466797,-81.5926284790039,74.67481231689453,2.0368871688842773,-0.7469677925109863,-1.2939720153808594,2362.7356293201447
D4:22:CD:00:05:6E,-76.93292236328125,-60.159915924072266,-44.42330551147461,-1.533691167831421,-2.2314600944519043,-1.8378429412841797,2362.7356293201447
D4:22:CD:00:05:5E,13.31976318359375,-71.83448791503906,110.1661376953125,-6.00246524810791,0.27588045597076416,-6.45656681060791,2362.7356293201447
D4:22:CD:00:05:5D,155.3056640625,-27.625133514404297,-73.27702331542969,-3.6602001190185547,-1.4946990013122559,-12.247329711914062,2362.7656383514404
D4:22:CD:00:05:6B,-16.151636123657227,-26.92206573486328,-86.19756317138672,-4.143682479858398,0.7535547018051147,4.262321472167969,2362.7656383514404
D4:22:CD:00:49:AA,-149.0489044189453,-81.65367126464844,70.46261596679688,-0.4207580089569092,-0.5736420154571533,-3.3514575958251953,2362.7656383514404
D4:22:CD:00:05:6E,-70.33113861083984,-60.5682258605957,-44.182674407958984,0.4724297523498535,-4.375469207763672,-5.028535842895508,2362.7656383514404
D4:22:CD:00:05:5E,15.059026718139648,-73.13519287109375,112.94438171386719,2.002249240875244,0.34176772832870483,-6.853580474853516,2362.7656383514404
D4:22:CD:00:05:5D,159.2589874267578,-24.335859298706055,-78.50363159179688,-5.458020210266113,-2.002175807952881,-11.115821838378906,2362.795646905899
D4:22:CD:00:05:6B,-20.294872283935547,-27.03830909729004,-77.97149658203125,-1.0101988315582275,2.3326516151428223,9.220014572143555,2362.795646905899
D4:22:CD:00:49:AA,-148.24378967285156,-81.29878997802734,70.26000213623047,0.3181024193763733,-0.5800318717956543,-6.766330718994141,2362.795646905899
D4:22:CD:00:05:6E,-66.33381652832031,-60.663330078125,-43.79979705810547,2.678865909576416,-5.251919746398926,-6.097247123718262,2362.795646905899
D4:22:CD:00:05:5E,12.523375511169434,-75.6159439086914,116.44393157958984,-18.497608184814453,9.852378845214844,-11.848278045654297,2362.795646905899
D4:22:CD:00:05:5D,161.70469665527344,-23.286888122558594,-83.32275390625,-4.831976890563965,-1.7951529026031494,-10.371904373168945,2362.8552045822144
D4:22:CD:00:05:6B,-17.327186584472656,-21.910419464111328,-78.05674743652344,2.9300198554992676,4.7579851150512695,-1.0687036514282227,2362.8552045822144
D4:22:CD:00:49:AA,-152.14385986328125,-80.65435028076172,74.81791687011719,1.4585886001586914,0.9052127599716187,-9.806068420410156,2362.8552045822144
D4:22:CD:00:05:6E,-64.87837982177734,-61.26709747314453,-43.669803619384766,3.276176929473877,-2.657182216644287,-5.157660484313965,2362.8552045822144
D4:22:CD:00:05:5E,-0.6177518963813782,-80.1213607788086,124.25989532470703,-10.683582305908203,-2.628835678100586,-1.9341144561767578,2362.8552045822144
D4:22:CD:00:05:5D,163.87124633789062,-23.914419174194336,-87.93572998046875,-1.0548624992370605,-1.524327039718628,-9.32514762878418,2362.8853027820587
D4:22:CD:00:05:6B,-17.092674255371094,-18.49761962890625,-83.11333465576172,0.3614259958267212,3.6313652992248535,-7.629941940307617,2362.8853027820587
D4:22:CD:00:49:AA,-160.2880401611328,-80.32659149169922,82.63909149169922,2.7588982582092285,2.6354689598083496,-8.48126220703125,2362.8853027820587
D4:22:CD:00:05:6E,-61.56635665893555,-62.944358825683594,-45.071372985839844,3.164989471435547,0.7889569997787476,-6.389913558959961,2362.8853027820587
D4:22:CD:00:05:5E,-23.23874855041504,-84.35028076171875,146.17034912109375,-0.5835845470428467,6.339357376098633,-0.012310981750488281,2362.8853027820587
D4:22:CD:00:05:5D,166.5653839111328,-26.2089900970459,-92.8289794921875,-3.6688642501831055,-2.083603858947754,-8.525472640991211,2362.915785074234
D4:22:CD:00:05:6B,-22.665897369384766,-23.42323875427246,-89.38224029541016,-1.4977083206176758,-5.479068756103516,-10.534200668334961,2362.915785074234
D4:22:CD:00:49:AA,-169.47715759277344,-80.10350036621094,90.45185852050781,1.1823084354400635,1.6865050792694092,-2.411424160003662,2362.915785074234
D4:22:CD:00:05:6E,-55.13969421386719,-65.42089080810547,-48.92706298828125,5.286525726318359,0.593265175819397,-6.634944915771484,2362.915785074234
D4:22:CD:00:05:5E,-82.47774505615234,-85.78690338134766,-155.3854522705078,-5.197789192199707,1.9384739398956299,6.277059555053711,2362.915785074234
D4:22:CD:00:05:5D,167.07302856445312,-29.25912094116211,-98.26187896728516,-4.664834022521973,5.992242813110352,19.105098724365234,2362.945911884308
D4:22:CD:00:05:6B,-32.757240295410156,-39.72924041748047,-95.91947174072266,-12.308340072631836,-24.394485473632812,2.919900894165039,2362.945911884308
D4:22:CD:00:49:AA,-170.36398315429688,-79.61289978027344,90.98139953613281,-1.58189058303833,-2.7054848670959473,1.9453153610229492,2362.945911884308
D4:22:CD:00:05:6E,-46.49931716918945,-67.29133605957031,-54.60590744018555,6.319862365722656,-2.116344928741455,-4.260564804077148,2362.945911884308
D4:22:CD:00:05:5E,-111.3876953125,-85.23243713378906,-125.29244232177734,-4.354948997497559,5.700156211853027,-4.118138313293457,2362.945911884308
D4:22:CD:00:05:5D,162.0774688720703,-26.560827255249023,-101.16387176513672,-2.8831729888916016,-9.97215461730957,4.0566911697387695,2362.9754819869995
D4:22:CD:00:05:6B,-19.890249252319336,-52.87497329711914,-109.76917266845703,-11.670793533325195,-12.456445693969727,61.258628845214844,2362.9754819869995
D4:22:CD:00:49:AA,-171.44952392578125,-79.6255111694336,93.11735534667969,4.9990692138671875,2.15480899810791,6.314216613769531,2362.9754819869995
D4:22:CD:00:05:6E,-40.713623046875,-68.19603729248047,-60.59939193725586,15.361869812011719,-9.496469497680664,-4.422472953796387,2362.9754819869995
D4:22:CD:00:05:5E,-121.11925506591797,-85.3934326171875,-115.61132049560547,-5.516742706298828,4.404221534729004,1.2535247802734375,2362.9754819869995
D4:22:CD:00:05:5D,160.3775634765625,-25.356821060180664,-102.18731689453125,-9.222858428955078,-12.751977920532227,-0.08298397064208984,2363.005479812622
D4:22:CD:00:05:6B,-1.151810884475708,-51.43518829345703,-110.00128936767578,17.04132843017578,-26.331073760986328,1.9490842819213867,2363.005479812622
D4:22:CD:00:49:AA,-177.31268310546875,-79.81719207763672,97.87615203857422,4.593533515930176,0.7318446636199951,6.042656898498535,2363.005479812622
D4:22:CD:00:05:6E,-37.53221893310547,-70.11074829101562,-70.77336883544922,19.437206268310547,-12.713220596313477,3.352029800415039,2363.005479812622
D4:22:CD:00:05:5E,-118.3851547241211,-86.09886932373047,-119.11490631103516,-5.270249366760254,4.984040260314941,-0.6448698043823242,2363.005479812622
D4:22:CD:00:05:5D,160.16696166992188,-23.359722137451172,-100.38260650634766,-9.741357803344727,-15.033243179321289,6.556522369384766,2363.0345842838287
D4:22:CD:00:05:6B,-23.189889907836914,-43.5797004699707,-89.29469299316406,-11.39781379699707,-29.081138610839844,23.260360717773438,2363.0345842838287
D4:22:CD:00:49:AA,179.2427978515625,-78.5842514038086,99.8834228515625,1.8144571781158447,0.8500707149505615,8.135379791259766,2363.0345842838287
D4:22:CD:00:05:6E,-19.287567138671875,-72.6280288696289,-102.75736236572266,18.591297149658203,-14.919530868530273,19.518863677978516,2363.0345842838287
D4:22:CD:00:05:5E,-102.9808120727539,-87.1114730834961,-136.34768676757812,-4.90159797668457,5.0745954513549805,0.12917613983154297,2363.0345842838287
D4:22:CD:00:05:5D,161.77439880371094,-20.517850875854492,-96.06273651123047,-11.229806900024414,-12.563100814819336,13.750288009643555,2363.0652923583984
D4:22:CD:00:05:6B,-29.80986976623535,-31.58464241027832,-82.30855560302734,-1.7927799224853516,-19.960205078125,1.5658693313598633,2363.0652923583984
D4:22:CD:00:49:AA,177.7991943359375,-76.20109558105469,100.25057220458984,0.3574736714363098,-1.182720422744751,8.681018829345703,2363.0652923583984
D4:22:CD:00:05:6E,18.05428695678711,-66.45246887207031,-146.09878540039062,15.518058776855469,-4.967409133911133,15.328218460083008,2363.0652923583984
D4:22:CD:00:05:5E,-31.04140281677246,-86.65485382080078,150.2116241455078,-5.951267242431641,5.409489631652832,2.3437700271606445,2363.0652923583984
D4:22:CD:00:05:5D,160.3490447998047,-16.387964248657227,-90.62097930908203,0.3287285566329956,-13.733285903930664,11.821432113647461,2363.0952858924866
D4:22:CD:00:05:6B,-38.275596618652344,-22.497859954833984,-83.45848846435547,-5.233922004699707,-6.04702091217041,-6.841893196105957,2363.0952858924866
D4:22:CD:00:49:AA,174.89959716796875,-74.59557342529297,102.32264709472656,3.6652088165283203,1.6328675746917725,11.426998138427734,2363.0952858924866
D4:22:CD:00:05:6E,38.721858978271484,-52.58644485473633,-164.6451873779297,17.80795669555664,-3.5327835083007812,4.259271621704102,2363.0952858924866
D4:22:CD:00:05:5E,-3.7041263580322266,-81.25543212890625,121.94944763183594,-3.3811287879943848,5.835916519165039,7.363193511962891,2363.0952858924866
D4:22:CD:00:05:5D,160.1345977783203,-12.059120178222656,-87.40552520751953,0.6031094789505005,-6.863880157470703,7.910758972167969,2363.125584602356
D4:22:CD:00:05:6B,-47.03898620605469,-20.623807907104492,-89.68717193603516,-7.631590843200684,5.875619888305664,-3.5466485023498535,2363.125584602356
D4:22:CD:00:49:AA,170.83544921875,-74.33529663085938,104.44029998779297,4.906027793884277,1.3233537673950195,7.294139862060547,2363.125584602356
D4:22:CD:00:05:6E,45.508628845214844,-36.821598052978516,-174.7386474609375,13.53897476196289,-1.247042179107666,0.9605035781860352,2363.125584602356
D4:22:CD:00:05:5E,7.536068916320801,-71.96546173095703,115.38269805908203,4.139103889465332,0.9285750389099121,3.189380645751953,2363.125584602356
D4:22:CD:00:05:5D,159.78851318359375,-9.25490951538086,-87.0693588256836,2.0534744262695312,-2.1600985527038574,0.11640644073486328,2363.1861810684204
D4:22:CD:00:05:6B,-50.73943328857422,-26.158763885498047,-99.67256164550781,-2.575644016265869,5.980195999145508,-3.0251736640930176,2363.1861810684204
D4:22:CD:00:49:AA,167.29994201660156,-74.21527099609375,106.10885620117188,0.7534384727478027,0.20388716459274292,2.7797813415527344,2363.1861810684204
D4:22:CD:00:05:6E,43.31338882446289,-21.609222412109375,177.6962890625,7.436379432678223,4.14317512512207,0.33045196533203125,2363.1861810684204
D4:22:CD:00:05:5E,6.192587375640869,-68.92425537109375,119.03501892089844,-3.401388168334961,1.8033971786499023,-7.112408638000488,2363.1861810684204
D4:22:CD:00:05:5D,159.20388793945312,-9.215238571166992,-88.04531860351562,-0.3182876706123352,-1.5801167488098145,-8.008255004882812,2363.2151803970337
D4:22:CD:00:05:6B,-54.48164749145508,-35.14670944213867,-110.9242172241211,-2.689309597015381,5.717255592346191,-5.902364730834961,2363.2151803970337
D4:22:CD:00:49:AA,163.9949493408203,-74.10799407958984,108.67784881591797,1.2652716636657715,0.5602625608444214,-2.4137191772460938,2363.2151803970337
D4:22:CD:00:05:6E,35.35268020629883,-8.530052185058594,171.91513061523438,5.761964797973633,0.10185909271240234,-2.04921817779541,2363.2151803970337
D4:22:CD:00:05:5E,-4.884846210479736,-69.58606719970703,126.8715591430664,-6.9424896240234375,7.2940874099731445,-11.078008651733398,2363.2151803970337
D4:22:CD:00:05:5D,158.06076049804688,-12.802902221679688,-89.23365020751953,-3.6690330505371094,-2.9154887199401855,-18.463401794433594,2363.2457206249237
D4:22:CD:00:05:6B,-57.80046463012695,-44.93359375,-121.80093383789062,-3.73374605178833,7.070148468017578,-7.731017112731934,2363.2457206249237
D4:22:CD:00:49:AA,160.4482421875,-73.384033203125,111.5283203125,2.5956459045410156,0.2327328622341156,-6.646370887756348,2363.2457206249237
D4:22:CD:00:05:6E,27.193925857543945,0.9054142832756042,166.0565643310547,4.791975021362305,-1.8576714992523193,-3.388784885406494,2363.2457206249237
D4:22:CD:00:05:5E,-21.449552536010742,-70.72805786132812,138.46507263183594,-1.0869674682617188,-4.670122146606445,-9.590736389160156,2363.2457206249237
D4:22:CD:00:05:5D,156.49183654785156,-20.476709365844727,-89.82706451416016,-6.46942138671875,-5.052593231201172,-19.745376586914062,2363.275726556778
D4:22:CD:00:05:6B,-59.10539627075195,-53.88738250732422,-131.63363647460938,0.16306829452514648,5.769630432128906,-6.369117736816406,2363.275726556778
D4:22:CD:00:49:AA,156.1554412841797,-73.18399047851562,114.35755920410156,0.7318265438079834,-0.14581653475761414,-10.719106674194336,2363.275726556778
D4:22:CD:00:05:6E,22.959861755371094,7.4490437507629395,160.11302185058594,5.353041648864746,-4.307069778442383,-5.425754547119141,2363.275726556778
D4:22:CD:00:05:5E,-35.39175033569336,-69.95446014404297,146.32577514648438,1.6893701553344727,7.277332305908203,-11.7840576171875,2363.275726556778
D4:22:CD:00:05:5D,153.9685821533203,-31.75929069519043,-89.27861022949219,-5.70748233795166,-7.680829048156738,-16.937740325927734,2363.305723428726
D4:22:CD:00:05:6B,-58.570770263671875,-61.192832946777344,-140.69825744628906,2.986110210418701,7.569313049316406,-4.405989646911621,2363.305723428726
D4:22:CD:00:49:AA,150.56130981445312,-73.30564880371094,117.10523223876953,-0.23577678203582764,1.2942945957183838,-10.151266098022461,2363.305723428726
D4:22:CD:00:05:6E,22.96430778503418,11.499846458435059,155.9057159423828,4.5397491455078125,-5.9839324951171875,-5.938071250915527,2363.305723428726
D4:22:CD:00:05:5E,-43.222599029541016,-70.82002258300781,152.42379760742188,-2.821009635925293,4.003772735595703,-0.1344594955444336,2363.305723428726
D4:22:CD:00:05:5D,151.3350830078125,-46.086727142333984,-87.34513854980469,-2.8642916679382324,-7.516218185424805,-7.719199180603027,2363.334825515747
D4:22:CD:00:05:6B,-52.74107360839844,-66.82809448242188,-150.4879608154297,4.628044128417969,4.725040435791016,-4.580373764038086,2363.334825515747
D4:22:CD:00:49:AA,144.1023712158203,-73.90959167480469,119.99242401123047,-0.509361982345581,0.3231050372123718,-10.018013000488281,2363.334825515747
D4:22:CD:00:05:6E,25.227275848388672,14.3915433883667,155.79241943359375,1.426011562347412,0.23174354434013367,-6.058343887329102,2363.334825515747
D4:22:CD:00:05:5E,-52.07537078857422,-72.14722442626953,161.69740295410156,-9.710077285766602,-7.722945213317871,-4.047720909118652,2363.334825515747
D4:22:CD:00:05:5D,147.12403869628906,-62.830909729003906,-83.06680297851562,0.11526070535182953,-5.557947158813477,4.925824165344238,2363.3653585910797
D4:22:CD:00:05:6B,-49.94125747680664,-69.58531951904297,-158.44834899902344,2.16387939453125,1.434783697128296,-6.175932884216309,2363.3653585910797
D4:22:CD:00:49:AA,138.30979919433594,-74.20854187011719,122.61840057373047,0.2522764205932617,0.15793052315711975,-9.248210906982422,2363.3653585910797
D4:22:CD:00:05:6E,32.75113296508789,16.968048095703125,161.1280059814453,-0.40219008922576904,0.13385134935379028,-9.99793815612793,2363.3653585910797
D4:22:CD:00:05:5E,-68.46751403808594,-72.88298034667969,176.0113067626953,-8.084432601928711,0.8875300884246826,0.25842761993408203,2363.3653585910797
D4:22:CD:00:05:5D,131.73826599121094,-78.70814514160156,-65.18632507324219,5.112494468688965,4.917961120605469,12.810911178588867,2363.395354986191
D4:22:CD:00:05:6B,-53.064849853515625,-70.00404357910156,-162.64007568359375,6.620294570922852,3.517024040222168,-3.0412511825561523,2363.395354986191
D4:22:CD:00:49:AA,136.27938842773438,-74.1763916015625,122.33159637451172,-0.649657130241394,-1.4361481666564941,-5.012420654296875,2363.395354986191
D4:22:CD:00:05:6E,40.314598083496094,18.163105010986328,172.09031677246094,-5.966492652893066,-6.622078895568848,-16.013797760009766,2363.395354986191
D4:22:CD:00:05:5E,-77.377197265625,-71.7430419921875,-175.9592742919922,-3.1449460983276367,6.452038764953613,5.21550178527832,2363.395354986191
D4:22:CD:00:05:5D,55.6108512878418,-82.91795349121094,18.575498580932617,4.693982124328613,16.061256408691406,8.688484191894531,2363.425369977951
D4:22:CD:00:05:6B,-55.03596878051758,-70.49783325195312,-163.93800354003906,8.666984558105469,1.7886221408843994,-1.2399587631225586,2363.425369977951
D4:22:CD:00:49:AA,139.2072296142578,-74.49560546875,119.80583953857422,-1.4898407459259033,-0.5833184719085693,1.0678510665893555,2363.425369977951
D4:22:CD:00:05:6E,41.746559143066406,16.922327041625977,-172.7459259033203,-23.413829803466797,-20.548328399658203,-17.636581420898438,2363.425369977951
D4:22:CD:00:05:5E,-77.94564056396484,-70.17643737792969,-175.91702270507812,-6.508475303649902,4.367623329162598,8.370328903198242,2363.425369977951
D4:22:CD:00:05:5D,36.23686599731445,-78.7328872680664,40.53939437866211,-4.603364944458008,32.37681579589844,-10.526273727416992,2363.485897064209
D4:22:CD:00:05:6B,-60.346519470214844,-71.86962127685547,-160.0048065185547,7.671003341674805,0.4145200252532959,0.3800506591796875,2363.485897064209
D4:22:CD:00:49:AA,146.213623046875,-74.90888214111328,114.44502258300781,6.69705867767334,-0.1394917368888855,10.27680778503418,2363.485897064209
D4:22:CD:00:05:6E,34.683345794677734,18.55333137512207,-160.50082397460938,-21.985183715820312,-0.9389539957046509,-14.745927810668945,2363.485897064209
D4:22:CD:00:05:5E,-72.91023254394531,-68.64912414550781,179.40084838867188,-7.448711395263672,2.8160786628723145,5.987245559692383,2363.485897064209
D4:22:CD:00:05:5D,52.30642318725586,-79.50480651855469,20.721933364868164,13.841926574707031,8.423328399658203,-0.9570188522338867,2363.514991044998
D4:22:CD:00:05:6B,-70.44481658935547,-73.13776397705078,-150.89242553710938,4.454636573791504,-4.751033782958984,10.012718200683594,2363.514991044998
D4:22:CD:00:49:AA,152.1922149658203,-75.33592224121094,108.64291381835938,10.920051574707031,0.0408572182059288,9.622907638549805,2363.514991044998
D4:22:CD:00:05:6E,55.48378372192383,22.474620819091797,-165.2464141845703,21.79747772216797,-2.5762228965759277,-7.363987922668457,2363.514991044998
D4:22:CD:00:05:5E,-61.40694808959961,-66.5286636352539,171.08169555664062,-7.15986442565918,-1.0163178443908691,6.208890914916992,2363.514991044998
D4:22:CD:00:05:5D,88.41806030273438,-80.15118408203125,-15.756929397583008,10.102899551391602,-4.835108757019043,7.368810653686523,2363.5455360412598
D4:22:CD:00:05:6B,-77.76245880126953,-74.4607925415039,-142.3463897705078,1.7262868881225586,-12.714962005615234,13.981147766113281,2363.5455360412598
D4:22:CD:00:49:AA,157.47509765625,-75.69529724121094,103.63035583496094,0.7154626846313477,1.8920540809631348,5.213781356811523,2363.5455360412598
D4:22:CD:00:05:6E,66.64543151855469,24.73316764831543,-179.46624755859375,-12.59921646118164,-12.24229621887207,-2.5630788803100586,2363.5455360412598
D4:22:CD:00:05:5E,-47.43798828125,-62.871429443359375,164.04684448242188,-8.314153671264648,-1.5044779777526855,-5.170146942138672,2363.5455360412598
D4:22:CD:00:05:5D,112.19032287597656,-79.56681060791016,-39.64818572998047,5.5258026123046875,-10.884611129760742,2.4665403366088867,2363.575689315796
D4:22:CD:00:05:6B,-82.85535430908203,-76.52154541015625,-135.09500122070312,-1.4307277202606201,-8.980207443237305,8.319345474243164,2363.575689315796
D4:22:CD:00:49:AA,163.1935577392578,-75.44695281982422,100.5750732421875,-2.8370189666748047,0.18588989973068237,2.718785285949707,2363.575689315796
D4:22:CD:00:05:6E,63.95595169067383,23.637067794799805,163.87710571289062,-10.63519287109375,-7.8994951248168945,-10.239887237548828,2363.575689315796
D4:22:CD:00:05:5E,-42.886837005615234,-61.386837005615234,167.47279357910156,-21.35342788696289,14.690153121948242,-12.158672332763672,2363.575689315796
D4:22:CD:00:05:5D,125.8635025024414,-79.85631561279297,-54.020263671875,-8.553955078125,2.8145923614501953,6.479001998901367,2363.6056892871857
D4:22:CD:00:05:6B,-88.29364776611328,-78.25102233886719,-125.09262084960938,-0.26280730962753296,-2.0733156204223633,3.5441646575927734,2363.6056892871857
D4:22:CD:00:49:AA,168.90213012695312,-75.19964599609375,99.84988403320312,-1.8654139041900635,-2.8836259841918945,-1.8426218032836914,2363.6056892871857
D4:22:CD:00:05:6E,61.18097686767578,18.756149291992188,149.96713256835938,0.0002664553467184305,-8.932245254516602,-5.429426193237305,2363.6056892871857
D4:22:CD:00:05:5E,-50.7787971496582,-64.48629760742188,-177.66329956054688,-29.52855682373047,11.726783752441406,-10.15023422241211,2363.6056892871857
D4:22:CD:00:05:5D,141.53343200683594,-79.05853271484375,-66.91009521484375,-2.8165202140808105,-1.2709832191467285,0.3186330795288086,2363.635704278946
D4:22:CD:00:05:6B,-91.34828186035156,-78.23828125,-115.88114166259766,-3.425401210784912,2.292318820953369,-2.2353687286376953,2363.635704278946
D4:22:CD:00:49:AA,173.4907684326172,-74.25045776367188,100.47473907470703,-1.7493903636932373,-0.62312912940979,-6.311347961425781,2363.635704278946
D4:22:CD:00:05:6E,58.07509231567383,10.490065574645996,138.13320922851562,2.5259451866149902,-8.37266731262207,-12.878110885620117,2363.635704278946
D4:22:CD:00:05:5E,-70.65311431884766,-68.72518920898438,-152.39537048339844,-18.433082580566406,3.8902668952941895,-6.500811576843262,2363.635704278946
D4:22:CD:00:05:5D,156.43801879882812,-78.08001708984375,-79.58609008789062,2.1824121475219727,-0.0017485418356955051,-0.7214937210083008,2363.6652388572693
D4:22:CD:00:05:6B,-91.37873077392578,-76.45999145507812,-110.74696350097656,-6.540596961975098,4.7492475509643555,-5.402261734008789,2363.6652388572693
D4:22:CD:00:49:AA,175.19985961914062,-72.94145202636719,102.63969421386719,-0.7696285247802734,1.1959400177001953,-4.57666015625,2363.6652388572693
D4:22:CD:00:05:6E,55.938804626464844,-0.1503787487745285,126.794677734375,2.5600357055664062,-2.5076966285705566,-12.138288497924805,2363.6652388572693
D4:22:CD:00:05:5E,-94.29840850830078,-70.193603515625,-122.736328125,-7.270812034606934,0.045700013637542725,-9.973213195800781,2363.6652388572693
D4:22:CD:00:05:5D,165.3346710205078,-76.05297088623047,-86.0851821899414,2.4995274543762207,0.2801830768585205,0.6694421768188477,2363.6952390670776
D4:22:CD:00:05:6B,-90.55901336669922,-75.1927490234375,-109.66679382324219,-7.237580299377441,4.176523208618164,-3.8696694374084473,2363.6952390670776
D4:22:CD:00:49:AA,175.05335998535156,-72.11951446533203,104.76191711425781,0.2930183410644531,1.8753530979156494,2.163968086242676,2363.6952390670776
D4:22:CD:00:05:6E,59.20112991333008,-9.658913612365723,115.16055297851562,13.745006561279297,8.41435432434082,-13.69017219543457,2363.6952390670776
D4:22:CD:00:05:5E,-119.11514282226562,-68.47328186035156,-94.77445983886719,-1.4619390964508057,-0.39029520750045776,-13.845785140991211,2363.6952390670776
D4:22:CD:00:05:5D,170.9363250732422,-73.72456359863281,-87.99384307861328,-0.8126295804977417,0.7742716073989868,0.6003608703613281,2363.725253343582
D4:22:CD:00:05:6B,-90.83493041992188,-75.00537872314453,-111.07688903808594,-6.603160858154297,5.952640533447266,-1.6866073608398438,2363.725253343582
D4:22:CD:00:49:AA,175.7223358154297,-71.16975402832031,105.87299346923828,-4.418296813964844,4.121866226196289,4.367958068847656,2363.725253343582
D4:22:CD:00:05:6E,80.25275421142578,-17.37868881225586,105.30113983154297,9.465167999267578,4.236379623413086,-20.415931701660156,2363.725253343582
D4:22:CD:00:05:5E,-140.3099822998047,-65.01139068603516,-74.30278015136719,-0.40994638204574585,-0.2757880687713623,-13.532442092895508,2363.725253343582
D4:22:CD:00:05:5D,175.73468017578125,-72.00836181640625,-90.20236206054688,-1.1198980808258057,0.5522028207778931,1.140376091003418,2363.7857723236084
D4:22:CD:00:05:6B,-91.961181640625,-74.93130493164062,-112.37689971923828,-4.349234580993652,5.044803619384766,0.33662986755371094,2363.7857723236084
D4:22:CD:00:49:AA,175.8024444580078,-70.20909881591797,106.688232421875,-1.7259669303894043,2.2329797744750977,2.696488380432129,2363.7857723236084
D4:22:CD:00:05:6E,106.90043640136719,-25.273847579956055,95.53700256347656,-4.515978813171387,-9.243764877319336,14.357782363891602,2363.7857723236084
D4:22:CD:00:05:5E,-157.9772186279297,-62.457763671875,-59.73231506347656,1.3429138660430908,-1.0588386058807373,-9.834220886230469,2363.7857723236084
D4:22:CD:00:05:5D,179.49435424804688,-71.24678039550781,-93.08583068847656,-1.171720027923584,0.7260266542434692,0.8977279663085938,2363.8157727718353
D4:22:CD:00:05:6B,-92.28561401367188,-74.04747772216797,-114.81732177734375,-1.3380842208862305,2.7010250091552734,2.8473424911499023,2363.8157727718353
D4:22:CD:00:49:AA,174.88711547851562,-69.97429656982422,108.0280532836914,-1.0230355262756348,1.2721529006958008,-1.3971443176269531,2363.8157727718353
D4:22:CD:00:05:6E,120.78837585449219,-29.993453979492188,82.8973617553711,9.759103775024414,-5.811318397521973,2.1180553436279297,2363.8157727718353
D4:22:CD:00:05:5E,-174.90794372558594,-62.205223083496094,-46.805938720703125,1.2546439170837402,-0.897850513458252,-4.771854400634766,2363.8157727718353
D4:22:CD:00:05:5D,-177.47927856445312,-71.01344299316406,-96.37804412841797,-0.06617636978626251,-0.9150159358978271,0.06631755828857422,2363.8453216552734
D4:22:CD:00:05:6B,-89.91847229003906,-71.89192199707031,-120.64325714111328,-1.2263762950897217,2.767299175262451,0.6906642913818359,2363.8453216552734
D4:22:CD:00:49:AA,171.4328155517578,-69.85813903808594,111.03396606445312,-1.1936790943145752,1.324641227722168,-4.046600341796875,2363.8453216552734
D4:22:CD:00:05:6E,138.7190399169922,-34.413818359375,68.29855346679688,7.3384599685668945,-0.05622021108865738,1.809321403503418,2363.8453216552734
D4:22:CD:00:05:5E,169.5248260498047,-64.80304718017578,-32.326175689697266,9.137306213378906,-3.594069004058838,0.622502326965332,2363.8453216552734
D4:22:CD:00:05:5D,-174.87791442871094,-70.53070068359375,-99.37351989746094,-0.5892744064331055,-1.4590728282928467,-0.5457086563110352,2363.875321626663
D4:22:CD:00:05:6B,-86.36426544189453,-69.00472259521484,-129.47235107421875,-0.954430103302002,-5.034795761108398,-2.9465513229370117,2363.875321626663
D4:22:CD:00:49:AA,166.62110900878906,-69.41534423828125,114.31878662109375,-0.2405564785003662,0.8563028573989868,-4.547654151916504,2363.875321626663
D4:22:CD:00:05:6E,156.3310089111328,-40.08295822143555,51.35930633544922,19.405235290527344,-3.5051631927490234,9.71906852722168,2363.875321626663
D4:22:CD:00:05:5E,159.6380157470703,-68.98096466064453,-15.48792552947998,-24.451045989990234,44.727996826171875,30.771678924560547,2363.875321626663
D4:22:CD:00:05:5D,-174.76914978027344,-69.04129791259766,-100.53044891357422,0.9863369464874268,-2.1953487396240234,-0.8424148559570312,2363.9053213596344
D4:22:CD:00:05:6B,-79.22615814208984,-65.88951873779297,-140.3020477294922,0.5396252870559692,-0.8257441520690918,-4.696086883544922,2363.9053213596344
D4:22:CD:00:49:AA,162.72560119628906,-69.29190063476562,116.39130401611328,0.19303998351097107,0.19371208548545837,-4.107490539550781,2363.9053213596344
D4:22:CD:00:05:6E,164.8347930908203,-47.62941360473633,31.070858001708984,15.784801483154297,3.4903836250305176,12.856592178344727,2363.9053213596344
D4:22:CD:00:05:5E,157.8343048095703,-70.49382019042969,-11.834839820861816,17.42925262451172,-10.934576034545898,-6.676019668579102,2363.9053213596344
D4:22:CD:00:05:5D,-177.74984741210938,-66.28628540039062,-98.71312713623047,2.843231678009033,-3.9521422386169434,-0.8290739059448242,2363.935343503952
D4:22:CD:00:05:6B,-75.97222137451172,-61.40319061279297,-148.1009521484375,3.3621301651000977,1.5183498859405518,-1.5299396514892578,2363.935343503952
D4:22:CD:00:49:AA,159.72117614746094,-70.0999526977539,117.55157470703125,2.000847816467285,1.3453640937805176,-3.2731337547302246,2363.935343503952
D4:22:CD:00:05:6E,164.75341796875,-52.99592971801758,11.348586082458496,17.58694076538086,-3.528965950012207,14.491277694702148,2363.935343503952
D4:22:CD:00:05:5E,152.58612060546875,-71.9799575805664,-9.715510368347168,8.30211067199707,0.0069139264523983,12.664533615112305,2363.935343503952
D4:22:CD:00:05:5D,178.5403594970703,-62.490821838378906,-94.47472381591797,-1.3169450759887695,0.9422105550765991,-1.6750068664550781,2363.9658823013306
D4:22:CD:00:05:6B,-72.22590637207031,-55.51133728027344,-155.2329864501953,3.5653982162475586,-1.3653638362884521,2.5814905166625977,2363.9658823013306
D4:22:CD:00:49:AA,155.66404724121094,-71.71631622314453,120.47288513183594,-3.2121477127075195,0.9509637355804443,1.2565078735351562,2363.9658823013306
D4:22:CD:00:05:6E,153.65475463867188,-53.542083740234375,7.124871730804443,18.537353515625,23.478553771972656,-7.877763748168945,2363.9658823013306
D4:22:CD:00:05:5E,152.25894165039062,-72.8932113647461,-13.899225234985352,9.12371826171875,4.036250114440918,14.416839599609375,2363.9658823013306
D4:22:CD:00:05:5D,175.84335327148438,-58.312747955322266,-90.43753814697266,-1.8479349613189697,-1.1946229934692383,1.5643863677978516,2363.9958736896515
D4:22:CD:00:05:6B,-70.04740142822266,-47.43922424316406,-161.31179809570312,4.4176483154296875,-2.507991313934326,8.567642211914062,2363.9958736896515
D4:22:CD:00:49:AA,150.5143585205078,-72.81645965576172,126.48780822753906,-6.488716125488281,0.39481550455093384,2.413330078125,2363.9958736896515
D4:22:CD:00:05:6E,160.01707458496094,-54.743743896484375,9.497086524963379,11.931669235229492,10.075664520263672,3.7476511001586914,2363.9958736896515
D4:22:CD:00:05:5E,159.18836975097656,-72.12042236328125,-20.522546768188477,-5.988048553466797,-8.6943359375,16.5562744140625,2363.9958736896515
