Device,EulerX,EulerY,EulerZ,FreeAccX,FreeAccY,FreeAccZ,Timestamp
D4:22:CD:00:05:5D,-173.58773803710938,-73.6331558227539,-138.59713745117188,-0.8159067630767822,0.646701455116272,-0.31093883514404297,2349.3616647720337
D4:22:CD:00:05:6B,-18.33672523498535,8.402997016906738,-22.013334274291992,-6.469572067260742,-6.582337379455566,-4.209659576416016,2349.3616647720337
D4:22:CD:00:49:AA,162.8059539794922,-80.02780151367188,120.29741668701172,-1.3306751251220703,0.9667608737945557,-2.529818534851074,2349.3616647720337
D4:22:CD:00:05:6E,101.35126495361328,-61.00556945800781,93.98091125488281,-0.5124361515045166,-3.4895100593566895,1.6436271667480469,2349.3616647720337
D4:22:CD:00:05:5E,-149.4615478515625,-32.50336837768555,-88.66431427001953,-1.452683448791504,1.7039518356323242,-8.236307144165039,2349.3616647720337
D4:22:CD:00:05:5D,-171.10037231445312,-77.41666412353516,-140.47035217285156,0.8770170211791992,-1.1428883075714111,-0.11954021453857422,2349.3646652698517
D4:22:CD:00:05:6B,-10.428297996520996,12.186003684997559,-22.013816833496094,-7.678559303283691,-7.939506530761719,-6.611660957336426,2349.3646652698517
D4:22:CD:00:49:AA,171.85218811035156,-80.98443603515625,112.5457534790039,1.1475367546081543,1.5623033046722412,-5.481932640075684,2349.3646652698517
D4:22:CD:00:05:6E,97.53977966308594,-68.9458999633789,106.454345703125,-0.80572509765625,-6.2487945556640625,-2.096590518951416,2349.3646652698517
D4:22:CD:00:05:5E,-144.07017517089844,-39.637939453125,-95.62928009033203,-3.416459560394287,1.4491794109344482,-5.970589637756348,2349.3646652698517
D4:22:CD:00:05:6B,5.812415599822998,15.73814582824707,-25.54741096496582,-6.12916374206543,-2.982114791870117,-11.606473922729492,2349.3676567077637
D4:22:CD:00:49:AA,176.98081970214844,-81.27922821044922,107.99176788330078,2.1171388626098633,1.467491865158081,-8.224016189575195,2349.3676567077637
D4:22:CD:00:05:6E,86.4366683959961,-75.85730743408203,121.87055969238281,-0.007724719122052193,-6.562440872192383,-4.380934715270996,2349.3676567077637
D4:22:CD:00:05:5E,-141.31777954101562,-45.986820220947266,-103.63404846191406,-6.888364791870117,0.7801122665405273,-3.674844264984131,2349.3676567077637
D4:22:CD:00:05:5D,-108.337890625,-71.50640869140625,-157.73118591308594,0.9449447393417358,-0.16667258739471436,-0.3418912887573242,2349.369665145874
D4:22:CD:00:49:AA,177.28416442871094,-80.69786071777344,108.0735092163086,-0.8319419622421265,0.08087648451328278,-5.414406776428223,2349.369665145874
D4:22:CD:00:05:6E,62.48282241821289,-81.39913177490234,146.86245727539062,0.8852951526641846,-6.141148567199707,-4.5534210205078125,2349.369665145874
D4:22:CD:00:05:5D,-130.77117919921875,-71.91144561767578,-131.7891082763672,-1.663137435913086,1.3008837699890137,-0.4105186462402344,2349.4462122917175
D4:22:CD:00:05:6B,-94.69651794433594,-47.841041564941406,-58.101829528808594,4.178228378295898,2.107677936553955,-0.5477523803710938,2349.4462122917175
D4:22:CD:00:49:AA,-162.5908966064453,-85.13465881347656,84.84013366699219,2.118044376373291,1.0914883613586426,-2.9103169441223145,2349.4462122917175
D4:22:CD:00:05:6E,-32.5682258605957,-73.98991394042969,165.05142211914062,0.7122269868850708,2.9424171447753906,10.339563369750977,2349.4462122917175
D4:22:CD:00:05:5E,-141.49383544921875,-67.36180114746094,-68.65624237060547,-2.0156707763671875,-5.378776550292969,16.419021606445312,2349.4462122917175
D4:22:CD:00:05:5D,-144.9541015625,-71.21410369873047,-116.1839370727539,-1.7994232177734375,2.1173129081726074,-0.16637420654296875,2349.4752113819122
D4:22:CD:00:05:6B,-86.83792877197266,-44.332435607910156,-64.48356628417969,7.770545959472656,-2.8606367111206055,2.301506996154785,2349.4752113819122
D4:22:CD:00:49:AA,170.85299682617188,-85.97470092773438,110.87507629394531,3.6335039138793945,1.2456626892089844,-2.1783275604248047,2349.4752113819122
D4:22:CD:00:05:6E,-41.790470123291016,-71.7823715209961,-177.53543090820312,-4.471407890319824,5.090435981750488,6.24848747253418,2349.4752113819122
D4:22:CD:00:05:5E,-148.54237365722656,-67.96063232421875,-61.39455795288086,0.07989336550235748,-4.060860633850098,13.143508911132812,2349.4752113819122
D4:22:CD:00:05:5D,-154.09629821777344,-69.5066146850586,-105.0177230834961,-2.106292247772217,2.068622589111328,0.3492708206176758,2349.505211830139
D4:22:CD:00:05:6B,-82.98711395263672,-38.61057662963867,-69.21388244628906,-3.359647750854492,4.452510833740234,19.727649688720703,2349.505211830139
D4:22:CD:00:49:AA,120.31389617919922,-82.84527587890625,160.33946228027344,1.4433586597442627,-2.437913417816162,4.609235763549805,2349.505211830139
D4:22:CD:00:05:6E,-43.036685943603516,-76.56712341308594,-167.234619140625,-9.59150505065918,0.29676103591918945,4.134171485900879,2349.505211830139
D4:22:CD:00:05:5E,-153.81573486328125,-68.14006805419922,-56.21738815307617,1.500833511352539,-2.068826198577881,4.869326591491699,2349.505211830139
D4:22:CD:00:05:5D,-158.90306091308594,-67.7908706665039,-97.86371612548828,-3.583216667175293,1.4548161029815674,0.8182916641235352,2349.535742998123
D4:22:CD:00:05:6B,-78.39805603027344,-27.198787689208984,-68.82794952392578,-0.35108888149261475,-3.4375557899475098,19.601200103759766,2349.535742998123
D4:22:CD:00:49:AA,124.13752746582031,-79.40129089355469,155.87074279785156,-0.5095462799072266,-2.21468448638916,5.056678771972656,2349.535742998123
D4:22:CD:00:05:6E,-19.397045135498047,-84.81930541992188,175.4418487548828,-9.188133239746094,-0.30648207664489746,5.688388824462891,2349.535742998123
D4:22:CD:00:05:5E,-149.1650848388672,-68.29071807861328,-62.197444915771484,3.505842685699463,-0.07304121553897858,-3.0262017250061035,2349.535742998123
D4:22:CD:00:05:5D,-161.96746826171875,-66.83393096923828,-93.79185485839844,-2.87786865234375,1.231198787689209,1.1672344207763672,2349.5657436847687
D4:22:CD:00:05:6B,-77.6579360961914,-10.296673774719238,-64.41136932373047,4.627054214477539,-5.443626403808594,29.135547637939453,2349.5657436847687
D4:22:CD:00:49:AA,127.72258758544922,-78.04454040527344,151.23651123046875,0.19031411409378052,1.4712324142456055,4.8353424072265625,2349.5657436847687
D4:22:CD:00:05:6E,68.60661315917969,-84.93318176269531,94.16726684570312,-5.51484489440918,0.04321444034576416,3.1329832077026367,2349.5657436847687
D4:22:CD:00:05:5E,-134.77610778808594,-69.40123748779297,-77.46504211425781,3.177236557006836,0.09996265172958374,-7.145350456237793,2349.5657436847687
D4:22:CD:00:05:5D,-163.7362518310547,-66.98976135253906,-91.62493896484375,-1.449355125427246,2.0225868225097656,1.3169927597045898,2349.5957441329956
D4:22:CD:00:05:6B,-65.64505004882812,6.618393421173096,-59.216060638427734,19.836071014404297,-16.700298309326172,12.061471939086914,2349.5957441329956
D4:22:CD:00:49:AA,127.91803741455078,-78.35765838623047,150.2348175048828,-1.5408961772918701,2.030655860900879,4.665574073791504,2349.5957441329956
D4:22:CD:00:05:6E,71.26607513427734,-82.45124053955078,100.33847045898438,-5.5098676681518555,-2.477226734161377,-0.5790176391601562,2349.5957441329956
D4:22:CD:00:05:5E,-112.59048461914062,-70.49479675292969,-99.80789947509766,2.760481834411621,-0.3506389260292053,-8.869369506835938,2349.5957441329956
D4:22:CD:00:05:5D,-164.55496215820312,-68.3919448852539,-90.62181091308594,-1.431363821029663,1.8020250797271729,1.1065483093261719,2349.6252903938293
D4:22:CD:00:05:6B,-50.22804260253906,19.828937530517578,-53.319576263427734,19.184185028076172,-9.920167922973633,-0.08920574188232422,2349.6252903938293
D4:22:CD:00:49:AA,130.3167266845703,-79.39854431152344,147.1553497314453,-2.5784988403320312,0.8159912824630737,3.191220283508301,2349.6252903938293
D4:22:CD:00:05:6E,46.888553619384766,-81.68700408935547,133.1435546875,-7.069957733154297,-5.3714189529418945,-6.450861930847168,2349.6252903938293
D4:22:CD:00:05:5E,-84.28399658203125,-69.74480438232422,-128.07583618164062,0.5657548904418945,-1.3982510566711426,-8.805158615112305,2349.6252903938293
D4:22:CD:00:05:5D,-164.3075714111328,-70.81900787353516,-90.84110260009766,-1.8938648700714111,1.030644178390503,0.5038900375366211,2349.685290813446
D4:22:CD:00:05:6B,-37.09021759033203,27.89076805114746,-47.06850051879883,7.4304914474487305,-8.196754455566406,3.0524072647094727,2349.685290813446
D4:22:CD:00:49:AA,134.52236938476562,-80.72254180908203,142.50054931640625,-2.411935329437256,1.0278351306915283,1.7266149520874023,2349.685290813446
D4:22:CD:00:05:6E,12.556769371032715,-80.2018051147461,174.8169403076172,-4.081633567810059,-6.642744064331055,-8.525041580200195,2349.685290813446
D4:22:CD:00:05:5E,-58.26555633544922,-65.75128173828125,-155.10865783691406,-1.6287426948547363,-2.357588291168213,-6.485176086425781,2349.685290813446
D4:22:CD:00:05:5D,-162.66200256347656,-73.69274139404297,-92.82513427734375,-1.4345543384552002,0.006165605038404465,-0.13885021209716797,2349.7153046131134
D4:22:CD:00:05:6B,-22.417743682861328,32.670677185058594,-44.117454528808594,-4.4424333572387695,-11.62226676940918,-1.9455156326293945,2349.7153046131134
D4:22:CD:00:49:AA,142.09999084472656,-82.1348648071289,134.9833526611328,-2.504594326019287,0.3532360792160034,-0.9443502426147461,2349.7153046131134
D4:22:CD:00:05:6E,-10.906174659729004,-76.19530487060547,-153.93421936035156,-1.7695789337158203,-8.791362762451172,-7.968165397644043,2349.7153046131134
D4:22:CD:00:05:5E,-39.65268325805664,-58.74024963378906,-176.3804931640625,-8.125812530517578,-1.667553424835205,-4.599221229553223,2349.7153046131134
D4:22:CD:00:05:5D,-159.9302520751953,-76.56834411621094,-95.99887084960938,0.2732880711555481,-0.14187797904014587,-0.4043245315551758,2349.745816230774
D4:22:CD:00:05:6B,-11.840255737304688,37.271453857421875,-43.17771911621094,-9.339317321777344,-6.456252098083496,-9.352685928344727,2349.745816230774
D4:22:CD:00:49:AA,152.49330139160156,-83.5074691772461,125.28042602539062,-2.0105209350585938,-0.03378800302743912,-3.764688491821289,2349.745816230774
D4:22:CD:00:05:6E,-23.681875228881836,-71.40706634521484,-135.70672607421875,0.35850268602371216,-11.092376708984375,-7.387564659118652,2349.745816230774
D4:22:CD:00:05:5E,-33.29618835449219,-51.216163635253906,169.7801513671875,-18.258316040039062,4.4337615966796875,-9.251367568969727,2349.745816230774
D4:22:CD:00:05:5D,-157.06556701660156,-79.31409454345703,-99.38813018798828,-0.17488166689872742,-0.47535842657089233,-0.4464254379272461,2349.7758162021637
D4:22:CD:00:05:6B,-7.733490467071533,41.80195617675781,-44.18097686767578,-6.9548139572143555,-1.551499605178833,-11.706319808959961,2349.7758162021637
D4:22:CD:00:49:AA,166.5303497314453,-84.33331298828125,112.70594787597656,-1.9873013496398926,0.5465565919876099,-5.68356990814209,2349.7758162021637
D4:22:CD:00:05:6E,-30.974533081054688,-67.6534652709961,-124.68788146972656,0.9354884624481201,-9.02286148071289,-6.745607376098633,2349.7758162021637
D4:22:CD:00:05:5E,-41.033668518066406,-47.27022171020508,162.7178192138672,-21.893070220947266,10.972885131835938,-13.029380798339844,2349.7758162021637
D4:22:CD:00:05:5D,-153.84793090820312,-81.86607360839844,-103.3376693725586,-0.7312458753585815,-0.23193112015724182,-0.20817947387695312,2349.805816888809
D4:22:CD:00:05:6B,-3.9163477420806885,46.79707717895508,-49.64282989501953,-6.106204986572266,-5.672584533691406,-11.652101516723633,2349.805816888809
D4:22:CD:00:49:AA,178.59835815429688,-84.2130126953125,102.97949981689453,-2.085350513458252,-0.28936511278152466,-4.844522476196289,2349.805816888809
D4:22:CD:00:05:6E,-34.524620056152344,-65.3775634765625,-116.60636901855469,1.6520090103149414,-9.114364624023438,-5.968135833740234,2349.805816888809
D4:22:CD:00:05:5E,-50.92230224609375,-47.2884521484375,161.70584106445312,-9.931005477905273,15.18808364868164,-15.603742599487305,2349.805816888809
D4:22:CD:00:05:5D,-146.1103515625,-84.31397247314453,-111.9925765991211,-2.524970531463623,0.0521397590637207,0.09109020233154297,2349.835371494293
D4:22:CD:00:05:6B,-0.5563802719116211,52.97665023803711,-62.93118667602539,-2.49253511428833,2.917966365814209,-12.895669937133789,2349.835371494293
D4:22:CD:00:49:AA,-174.49729919433594,-83.79408264160156,99.1189193725586,-2.494126796722412,-0.8623307943344116,-2.477339267730713,2349.835371494293
D4:22:CD:00:05:6E,-36.177757263183594,-64.25550079345703,-110.15181732177734,3.0309739112854004,-8.691253662109375,-4.618958473205566,2349.835371494293
D4:22:CD:00:05:5E,-56.72438430786133,-50.92222595214844,166.14515686035156,-22.128681182861328,3.0326223373413086,-12.619709014892578,2349.835371494293
D4:22:CD:00:05:5D,-137.8781280517578,-86.09304809570312,-120.9990005493164,5.9542646408081055,-4.949428558349609,-2.148261547088623,2349.8653707504272
D4:22:CD:00:05:6B,-7.1672821044921875,57.083343505859375,-87.33907318115234,3.095810890197754,5.635181427001953,-12.966390609741211,2349.8653707504272
D4:22:CD:00:49:AA,-172.41995239257812,-84.26113891601562,99.88211059570312,-1.753782033920288,-1.6878089904785156,-1.3571367263793945,2349.8653707504272
D4:22:CD:00:05:6E,-37.048133850097656,-63.79665756225586,-104.51718139648438,4.444126129150391,-9.371755599975586,-3.1052193641662598,2349.8653707504272
D4:22:CD:00:05:5E,-58.957366943359375,-57.415287017822266,169.73374938964844,-7.485356330871582,-7.708738327026367,-1.536219596862793,2349.8653707504272
D4:22:CD:00:05:5D,-156.7228240966797,-86.64305114746094,-99.94670104980469,0.36039650440216064,-0.589448094367981,0.021895408630371094,2349.89537024498
D4:22:CD:00:05:6B,-24.620826721191406,54.81021499633789,-119.24217987060547,-3.834247589111328,-2.845029830932617,-20.94805908203125,2349.89537024498
D4:22:CD:00:49:AA,-178.94161987304688,-85.06303405761719,108.19757080078125,0.5895663499832153,-0.9392471313476562,-1.4557971954345703,2349.89537024498
D4:22:CD:00:05:6E,-39.48304748535156,-63.71327590942383,-99.2955322265625,5.919909477233887,-9.541746139526367,-2.202249526977539,2349.89537024498
D4:22:CD:00:05:5E,-52.03271484375,-62.77020263671875,168.03321838378906,-7.848701477050781,2.8582592010498047,1.8496341705322266,2349.89537024498
D4:22:CD:00:05:5D,177.0347900390625,-86.7100830078125,-72.91668701171875,-1.7053751945495605,0.9505572319030762,0.8838891983032227,2349.925912618637
D4:22:CD:00:05:6B,-40.320701599121094,46.86994552612305,-143.40249633789062,-8.787872314453125,-3.7020397186279297,-26.32175064086914,2349.925912618637
D4:22:CD:00:49:AA,161.8526611328125,-84.7795639038086,126.1839599609375,1.9439313411712646,-0.6061842441558838,0.5216760635375977,2349.925912618637
D4:22:CD:00:05:6E,-44.055423736572266,-64.03404235839844,-94.67435455322266,6.102128028869629,-9.039281845092773,-1.6643028259277344,2349.925912618637
D4:22:CD:00:05:5E,-50.55659103393555,-66.09928894042969,167.76443481445312,1.306826114654541,7.817116737365723,8.491348266601562,2349.925912618637
D4:22:CD:00:05:5D,140.37974548339844,-86.21845245361328,-34.98694610595703,-0.2438029944896698,-0.4679451584815979,0.05188941955566406,2349.9859137535095
D4:22:CD:00:05:6B,-58.108402252197266,42.9907112121582,-147.68775939941406,5.255674362182617,16.780452728271484,-7.142041206359863,2349.9859137535095
D4:22:CD:00:49:AA,145.7091522216797,-84.2685546875,139.49484252929688,-1.0903222560882568,-1.435948133468628,2.354921340942383,2349.9859137535095
D4:22:CD:00:05:6E,-51.5555305480957,-66.7048110961914,-90.39958190917969,7.074248313903809,-7.790388107299805,-0.8228130340576172,2349.9859137535095
D4:22:CD:00:05:5E,-60.98591232299805,-69.08470916748047,173.83737182617188,-6.881906509399414,3.6529688835144043,0.9241304397583008,2349.9859137535095
D4:22:CD:00:05:5D,116.18168640136719,-84.16413879394531,-9.10982608795166,-1.4219295978546143,-0.6993253231048584,1.030959129333496,2350.015926361084
D4:22:CD:00:05:6B,-66.1236801147461,46.68273162841797,-138.806640625,-22.67072296142578,-0.90380859375,16.809246063232422,2350.015926361084
D4:22:CD:00:49:AA,137.82310485839844,-84.35388946533203,145.29837036132812,-0.3994062542915344,-0.21643966436386108,0.8287630081176758,2350.015926361084
D4:22:CD:00:05:6E,-61.92263412475586,-70.36395263671875,-86.57591247558594,5.596254348754883,-2.866117477416992,3.678818702697754,2350.015926361084
D4:22:CD:00:05:5E,-61.14387512207031,-71.42886352539062,172.93226623535156,-5.297893524169922,6.249713897705078,-5.773952484130859,2350.015926361084
D4:22:CD:00:05:5D,101.50865936279297,-81.58441162109375,4.700355529785156,-1.2040379047393799,-1.7053685188293457,1.4371309280395508,2350.0454711914062
D4:22:CD:00:05:6B,-47.60994338989258,48.562862396240234,-122.8848876953125,-7.150669097900391,5.366374969482422,-7.713513374328613,2350.0454711914062
D4:22:CD:00:49:AA,135.91799926757812,-84.189453125,145.57579040527344,2.8008766174316406,-1.8010766506195068,-0.7849235534667969,2350.0454711914062
D4:22:CD:00:05:6E,-64.6691665649414,-70.41973114013672,-87.43609619140625,1.644434928894043,1.8708887100219727,3.5821876525878906,2350.0454711914062
D4:22:CD:00:05:5E,-52.03532028198242,-72.83367919921875,163.74378967285156,-5.983150482177734,4.798423767089844,0.27534008026123047,2350.0454711914062
D4:22:CD:00:05:5D,90.81725311279297,-79.2726821899414,10.70612907409668,4.276571273803711,0.9346613883972168,3.52645206451416,2350.0755620002747
D4:22:CD:00:05:6B,-29.12887954711914,44.41716384887695,-97.844482421875,-12.15681266784668,-0.8400392532348633,-4.38176155090332,2350.0755620002747
D4:22:CD:00:49:AA,140.68777465820312,-84.02945709228516,138.10006713867188,4.9690093994140625,-2.2138895988464355,2.141042709350586,2350.0755620002747
D4:22:CD:00:05:6E,-57.92336654663086,-67.38418579101562,-92.06475067138672,-3.1376943588256836,-3.1600475311279297,3.0089235305786133,2350.0755620002747
D4:22:CD:00:05:5E,-43.010719299316406,-72.97472381591797,153.33905029296875,-4.5883941650390625,4.76203727722168,-0.46764659881591797,2350.0755620002747
D4:22:CD:00:05:5D,83.96581268310547,-77.75482940673828,11.708330154418945,6.324702262878418,0.26391690969467163,3.797783851623535,2350.105562210083
D4:22:CD:00:05:6B,-15.736030578613281,31.502826690673828,-80.1490478515625,-7.958355903625488,0.7200725078582764,0.04633045196533203,2350.105562210083
D4:22:CD:00:49:AA,153.102783203125,-83.5549087524414,122.53241729736328,5.853231430053711,-0.6576735973358154,2.718846321105957,2350.105562210083
D4:22:CD:00:05:6E,-48.553924560546875,-64.45538330078125,-95.99484252929688,-2.478593349456787,-8.830438613891602,1.0194883346557617,2350.105562210083
D4:22:CD:00:05:5E,-34.08258056640625,-72.04438781738281,143.16497802734375,-3.735316276550293,4.329319953918457,-1.2332820892333984,2350.105562210083
D4:22:CD:00:05:5D,84.52913665771484,-76.90467071533203,5.277615070343018,4.110723495483398,11.759428024291992,1.790724754333496,2350.13610291481
D4:22:CD:00:05:6B,-8.258932113647461,14.776193618774414,-68.20890045166016,-3.173584461212158,1.7814793586730957,-6.637234687805176,2350.13610291481
D4:22:CD:00:49:AA,161.6720733642578,-82.33650970458984,111.81307983398438,4.9784955978393555,2.576807975769043,1.1961917877197266,2350.13610291481
D4:22:CD:00:05:6E,-40.81130599975586,-62.442588806152344,-100.22158813476562,-2.7196106910705566,-8.921056747436523,0.601654052734375,2350.13610291481
D4:22:CD:00:05:5E,-26.701948165893555,-70.32666778564453,135.18397521972656,-4.9866228103637695,2.7486510276794434,-1.8881511688232422,2350.13610291481
D4:22:CD:00:05:5D,109.71440887451172,-73.43006134033203,-21.503835678100586,6.277768135070801,20.148296356201172,4.198586463928223,2350.1660952568054
D4:22:CD:00:05:6B,-6.9228949546813965,-4.303955078125,-56.50050354003906,0.39539599418640137,-6.97940731048584,-6.293204307556152,2350.1660952568054
D4:22:CD:00:49:AA,167.5535888671875,-80.55177307128906,104.2431640625,-0.8173209428787231,-1.9712498188018799,3.5482778549194336,2350.1660952568054
D4:22:CD:00:05:6E,-32.825714111328125,-61.8929557800293,-105.08893585205078,-4.710704803466797,-6.912940979003906,-3.0635061264038086,2350.1660952568054
D4:22:CD:00:05:5E,-23.802160263061523,-68.49454498291016,130.441650390625,-5.160750389099121,1.5588340759277344,-2.5272088050842285,2350.1660952568054
D4:22:CD:00:05:5D,135.02403259277344,-65.31682586669922,-44.43783950805664,4.178462028503418,12.616476058959961,4.277202606201172,2350.196103334427
D4:22:CD:00:05:6B,-5.2815399169921875,-21.841567993164062,-42.609657287597656,3.470862865447998,-13.217863082885742,-2.5274100303649902,2350.196103334427
D4:22:CD:00:49:AA,170.26095581054688,-80.20780944824219,102.54353332519531,0.9780561923980713,1.026606798171997,1.3979988098144531,2350.196103334427
D4:22:CD:00:05:6E,-24.48405647277832,-62.60287857055664,-110.46754455566406,-3.8422718048095703,-4.784749984741211,-4.64640998840332,2350.196103334427
D4:22:CD:00:05:5E,-22.455432891845703,-67.54998779296875,127.97077941894531,-4.1509294509887695,0.75794517993927,-2.587895393371582,2350.196103334427
D4:22:CD:00:05:5D,148.94586181640625,-55.935516357421875,-58.751731872558594,2.675809383392334,2.792269706726074,-0.4943733215332031,2350.2256774902344
D4:22:CD:00:05:6B,-1.1538758277893066,-34.090457916259766,-25.36297035217285,12.065383911132812,-3.646818161010742,-0.21585941314697266,2350.2256774902344
D4:22:CD:00:49:AA,169.2560577392578,-80.2302017211914,104.57622528076172,4.050305366516113,1.9862897396087646,-2.2442164421081543,2350.2256774902344
D4:22:CD:00:05:6E,-14.076412200927734,-63.66743087768555,-117.18402862548828,-3.1143054962158203,-4.938337326049805,-5.785225868225098,2350.2256774902344
D4:22:CD:00:05:5E,-21.40281105041504,-67.8801498413086,127.85658264160156,-2.3980488777160645,0.9732277393341064,-1.9209504127502441,2350.2256774902344
D4:22:CD:00:05:5D,155.67820739746094,-46.626258850097656,-67.62107849121094,1.5970101356506348,-2.0322036743164062,-4.6284379959106445,2350.2856769561768
D4:22:CD:00:05:6B,-6.707005500793457,-38.99472427368164,-6.758004188537598,6.074676513671875,14.183950424194336,0.6006898880004883,2350.2856769561768
D4:22:CD:00:49:AA,167.00030517578125,-79.97371673583984,107.33509826660156,3.2924370765686035,0.06676074862480164,-2.6176981925964355,2350.2856769561768
D4:22:CD:00:05:6E,-1.9287997484207153,-64.74684143066406,-125.65272521972656,-2.536818027496338,-5.0996503829956055,-6.759072303771973,2350.2856769561768
D4:22:CD:00:05:5E,-22.093400955200195,-69.91348266601562,130.81932067871094,-4.931784629821777,-1.5055263042449951,-2.327251434326172,2350.2856769561768
D4:22:CD:00:05:5D,160.1273651123047,-38.51512908935547,-73.04486846923828,-0.4236631989479065,-3.419295310974121,-8.30124282836914,2350.3156926631927
D4:22:CD:00:05:6B,-20.196842193603516,-36.7440071105957,5.660303592681885,-1.2499020099639893,10.57636833190918,-2.8289995193481445,2350.3156926631927
D4:22:CD:00:49:AA,163.1322021484375,-79.93521118164062,111.53430938720703,1.8734126091003418,0.6059942245483398,-3.916670799255371,2350.3156926631927
D4:22:CD:00:05:6E,10.686137199401855,-65.58438873291016,-135.5518798828125,-1.1857805252075195,-4.639883995056152,-6.31650447845459,2350.3156926631927
D4:22:CD:00:05:5E,-25.334354400634766,-72.92218017578125,136.66688537597656,-4.804190635681152,2.0093750953674316,-2.185000419616699,2350.3156926631927
D4:22:CD:00:05:5D,164.1454315185547,-32.69692611694336,-76.68377685546875,-1.6113898754119873,-2.3955559730529785,-10.274394989013672,2350.3452191352844
D4:22:CD:00:05:6B,-26.588462829589844,-32.062259674072266,8.883214950561523,-3.0242795944213867,-1.2386150360107422,-5.087821006774902,2350.3452191352844
D4:22:CD:00:49:AA,161.23922729492188,-79.732666015625,113.36927795410156,1.1180715560913086,0.3539051413536072,-3.468045234680176,2350.3452191352844
D4:22:CD:00:05:6E,22.7448787689209,-65.94108581542969,-145.6629638671875,0.36415767669677734,-4.235396385192871,-5.187910079956055,2350.3452191352844
D4:22:CD:00:05:5E,-32.83979797363281,-76.3565902709961,146.41712951660156,-5.977299690246582,2.5879077911376953,-2.719919204711914,2350.3452191352844
D4:22:CD:00:05:5D,168.4190673828125,-29.169832229614258,-80.0760269165039,-2.3528971672058105,-1.8034944534301758,-8.698970794677734,2350.3752188682556
D4:22:CD:00:05:6B,-24.675363540649414,-29.158063888549805,7.14441442489624,-5.211001396179199,-1.0310862064361572,-8.984352111816406,2350.3752188682556
D4:22:CD:00:49:AA,161.8335723876953,-79.8943099975586,113.13026428222656,0.013904629275202751,-0.7867826223373413,-2.584056854248047,2350.3752188682556
D4:22:CD:00:05:6E,33.5374641418457,-65.93603515625,-155.021240234375,1.7439110279083252,-5.567087173461914,-3.7099990844726562,2350.3752188682556
D4:22:CD:00:05:5E,-47.383827209472656,-79.23682403564453,162.0132293701172,-4.746345520019531,2.935694694519043,-1.4633979797363281,2350.3752188682556
D4:22:CD:00:05:5D,171.34378051757812,-27.99820327758789,-83.85433959960938,-4.405340194702148,-3.929744243621826,-7.617466926574707,2350.4052958488464
D4:22:CD:00:05:6B,-22.93949317932129,-31.092872619628906,2.8347814083099365,-2.01857852935791,0.361528217792511,-11.56922721862793,2350.4052958488464
D4:22:CD:00:49:AA,163.132080078125,-80.94718170166016,113.24397277832031,0.7778139114379883,-0.4229937791824341,-2.7023282051086426,2350.4052958488464
D4:22:CD:00:05:6E,43.20614242553711,-65.70984649658203,-164.75457763671875,3.2517852783203125,-9.708837509155273,-1.5942840576171875,2350.4052958488464
D4:22:CD:00:05:5E,-68.06963348388672,-80.8691635131836,-176.7050018310547,-5.336090087890625,3.484344482421875,-1.8427157402038574,2350.4052958488464
D4:22:CD:00:05:5D,171.83941650390625,-29.25935935974121,-88.10476684570312,-5.415945053100586,-8.214042663574219,-9.040788650512695,2350.4359652996063
D4:22:CD:00:05:6B,-25.68746566772461,-40.935516357421875,-4.1774187088012695,9.14266586303711,-5.230884552001953,-7.2534685134887695,2350.4359652996063
D4:22:CD:00:49:AA,163.68045043945312,-83.16732025146484,114.00762176513672,1.7962217330932617,1.216588020324707,-3.951883316040039,2350.4359652996063
D4:22:CD:00:05:6E,51.94819641113281,-64.35462951660156,-178.41998291015625,0.4723791480064392,-10.808895111083984,3.4395065307617188,2350.4359652996063
D4:22:CD:00:05:5E,-87.72073364257812,-81.08822631835938,-156.80335998535156,-5.088445663452148,4.650350570678711,-0.5546388626098633,2350.4359652996063
D4:22:CD:00:05:5D,171.30564880371094,-30.184038162231445,-91.54180145263672,-14.090049743652344,0.3562670946121216,21.157367706298828,2350.465963602066
D4:22:CD:00:05:6B,-26.268856048583984,-56.568145751953125,-16.9121150970459,16.29926300048828,-10.050256729125977,39.02643585205078,2350.465963602066
D4:22:CD:00:49:AA,165.82301330566406,-85.42320251464844,112.23751831054688,2.006833076477051,3.760660171508789,-1.7880191802978516,2350.465963602066
D4:22:CD:00:05:6E,59.93264389038086,-58.00840759277344,166.2275848388672,3.2318406105041504,-8.755952835083008,12.599861145019531,2350.465963602066
D4:22:CD:00:05:5E,-100.15065002441406,-80.85066986083984,-144.4876708984375,-4.921311378479004,4.2364397048950195,-1.1326065063476562,2350.465963602066
D4:22:CD:00:05:5D,168.6484375,-27.45103645324707,-91.05621337890625,4.205345153808594,-18.94961929321289,1.0863361358642578,2350.495962381363
D4:22:CD:00:05:6B,-6.241415023803711,-63.7891845703125,-42.67467498779297,16.920711517333984,-6.552705764770508,28.347179412841797,2350.495962381363
D4:22:CD:00:49:AA,178.51808166503906,-86.72523498535156,99.699951171875,-0.534326434135437,0.5422446727752686,-0.5854272842407227,2350.495962381363
D4:22:CD:00:05:6E,61.59736633300781,-45.33086395263672,156.74166870117188,8.709884643554688,-9.31705093383789,20.393585205078125,2350.495962381363
D4:22:CD:00:05:5E,-106.19656372070312,-80.99361419677734,-138.8877410888672,-4.131034851074219,5.432951927185059,-0.32465267181396484,2350.495962381363
D4:22:CD:00:05:5D,174.97914123535156,-24.451963424682617,-88.71804809570312,-11.218317031860352,-20.422664642333984,7.889043807983398,2350.525510072708
D4:22:CD:00:05:6B,-7.571080207824707,-65.88697814941406,-43.69093704223633,2.566986560821533,2.4431962966918945,4.188433647155762,2350.525510072708
D4:22:CD:00:49:AA,-174.30128479003906,-87.014892578125,93.09439086914062,1.4169061183929443,-3.4998040199279785,3.998044967651367,2350.525510072708
D4:22:CD:00:05:6E,55.545631408691406,-28.687692642211914,152.7460174560547,14.406225204467773,-2.082949638366699,23.0281982421875,2350.525510072708
D4:22:CD:00:05:5E,-102.31856536865234,-81.82764434814453,-143.1095428466797,-5.8591508865356445,4.257033348083496,-0.17913532257080078,2350.525510072708
D4:22:CD:00:05:5D,173.19883728027344,-18.811803817749023,-85.60308074951172,1.2246310710906982,-14.791769027709961,14.257881164550781,2350.585509777069
D4:22:CD:00:05:6B,-17.61744499206543,-63.70404815673828,-26.808759689331055,16.31441879272461,-4.883386611938477,10.697649002075195,2350.585509777069
D4:22:CD:00:49:AA,-179.10311889648438,-86.39575958251953,97.76911926269531,4.177910804748535,1.7192795276641846,7.022306442260742,2350.585509777069
D4:22:CD:00:05:6E,43.31614685058594,-9.25014877319336,150.35543823242188,8.895862579345703,-3.839885711669922,23.81146240234375,2350.585509777069
D4:22:CD:00:05:5E,-82.50682830810547,-82.44815063476562,-163.6981658935547,-7.023495674133301,5.975202560424805,-0.30800724029541016,2350.585509777069
D4:22:CD:00:05:5D,168.70950317382812,-12.690128326416016,-84.00325012207031,-6.474468231201172,-9.79983901977539,9.719831466674805,2350.615523815155
D4:22:CD:00:05:6B,-29.53472137451172,-57.233062744140625,-14.609128952026367,6.570972442626953,-9.363428115844727,12.074968338012695,2350.615523815155
D4:22:CD:00:49:AA,178.61495971679688,-86.06025695800781,99.4139404296875,1.3814454078674316,-0.4501345157623291,5.702268600463867,2350.615523815155
D4:22:CD:00:05:6E,29.690519332885742,8.782148361206055,146.9518280029297,1.846315860748291,2.1154518127441406,10.717161178588867,2350.615523815155
D4:22:CD:00:05:5E,-53.9150276184082,-80.23118591308594,165.4428253173828,-7.812389373779297,5.997502326965332,3.2639389038085938,2350.615523815155
D4:22:CD:00:05:5D,162.4235382080078,-7.9877424240112305,-83.6271743774414,-3.417938709259033,-3.9954442977905273,-3.002190589904785,2350.646052837372
D4:22:CD:00:05:6B,-34.456382751464844,-52.86223602294922,-13.195089340209961,7.6216630935668945,-2.6821227073669434,0.9182682037353516,2350.646052837372
D4:22:CD:00:49:AA,164.2232208251953,-86.22695922851562,113.94586181640625,4.150835990905762,1.803152322769165,10.222753524780273,2350.646052837372
D4:22:CD:00:05:6E,25.447092056274414,22.167770385742188,142.58950805664062,-3.5221848487854004,-9.510250091552734,5.506282806396484,2350.646052837372
D4:22:CD:00:05:5E,-28.04851722717285,-72.4052505493164,138.1673583984375,-5.322687149047852,-7.669814109802246,17.869441986083984,2350.646052837372
D4:22:CD:00:05:5D,159.78709411621094,-7.102533340454102,-83.95951080322266,-8.160942077636719,-0.3744816184043884,-6.278477668762207,2350.6750593185425
D4:22:CD:00:05:6B,-42.184165954589844,-53.11030960083008,-16.551795959472656,0.19097495079040527,-3.199814796447754,4.7267913818359375,2350.6750593185425
D4:22:CD:00:49:AA,146.1974639892578,-86.22431945800781,131.22885131835938,5.559171676635742,2.4777002334594727,10.016485214233398,2350.6750593185425
D4:22:CD:00:05:6E,30.649532318115234,31.457843780517578,138.698974609375,-10.798049926757812,-12.369108200073242,-3.443775177001953,2350.6750593185425
D4:22:CD:00:05:5E,-13.421576499938965,-67.49932098388672,131.1147003173828,-5.2812910079956055,2.3966526985168457,-8.231889724731445,2350.6750593185425
D4:22:CD:00:05:5D,158.09364318847656,-10.080865859985352,-82.94923400878906,-5.531493186950684,-1.244490146636963,-10.056028366088867,2350.7060594558716
D4:22:CD:00:05:6B,-45.482398986816406,-58.012813568115234,-25.725465774536133,-5.127040863037109,-1.1775293350219727,4.4515838623046875,2350.7060594558716
D4:22:CD:00:49:AA,124.04820251464844,-85.93417358398438,151.82846069335938,5.529820442199707,2.0164222717285156,5.34256649017334,2350.7060594558716
D4:22:CD:00:05:6E,40.773948669433594,40.10524368286133,139.01889038085938,-5.6753435134887695,-4.555582046508789,-13.707923889160156,2350.7060594558716
D4:22:CD:00:05:5E,-6.138700008392334,-66.4208755493164,130.04335021972656,-12.77110481262207,7.611583709716797,-14.426887512207031,2350.7060594558716
D4:22:CD:00:05:5D,155.9493865966797,-16.733768463134766,-80.38372039794922,-5.574074745178223,-3.0202479362487793,-14.182130813598633,2350.735597848892
D4:22:CD:00:05:6B,-44.488670349121094,-64.05535125732422,-42.37849807739258,-5.381771087646484,-1.0778920650482178,-2.7002291679382324,2350.735597848892
D4:22:CD:00:49:AA,111.26860809326172,-84.40689849853516,162.26412963867188,1.714583396911621,-0.07960927486419678,-0.8949689865112305,2350.735597848892
D4:22:CD:00:05:6E,43.27401351928711,48.01445770263672,143.73553466796875,-15.383113861083984,-14.55756950378418,-14.790956497192383,2350.735597848892
D4:22:CD:00:05:5E,-8.598898887634277,-67.89735412597656,131.20777893066406,1.091827630996704,-3.6009812355041504,-10.151397705078125,2350.735597848892
D4:22:CD:00:05:5D,151.18539428710938,-26.67457389831543,-76.2061996459961,-3.200836658477783,-5.976198196411133,-16.42801284790039,2350.7655980587006
D4:22:CD:00:05:6B,-41.412925720214844,-68.86248016357422,-65.32915496826172,-12.551868438720703,-1.568894863128662,-6.971065521240234,2350.7655980587006
D4:22:CD:00:49:AA,116.32159423828125,-82.42169189453125,154.9311065673828,-1.3657734394073486,-1.2066049575805664,-6.773266792297363,2350.7655980587006
D4:22:CD:00:05:6E,36.46165466308594,51.164939880371094,153.94195556640625,3.080659866333008,-1.6225647926330566,-18.471248626708984,2350.7655980587006
D4:22:CD:00:05:5E,-13.593123435974121,-67.25553894042969,132.8138427734375,-2.805790424346924,1.6718909740447998,-10.997055053710938,2350.7655980587006
D4:22:CD:00:05:5D,145.34107971191406,-39.23579788208008,-69.96125030517578,3.075960159301758,-5.682655334472656,-11.011589050292969,2350.7955977916718
D4:22:CD:00:05:6B,-40.77893829345703,-72.11875915527344,-87.24452209472656,-7.713809013366699,3.6398792266845703,-8.990270614624023,2350.7955977916718
D4:22:CD:00:49:AA,126.08123779296875,-81.28495025634766,145.39453125,-4.402133941650391,-1.6400253772735596,-8.843086242675781,2350.7955977916718
D4:22:CD:00:05:6E,43.81480026245117,51.042057037353516,168.22146606445312,-2.9480795860290527,1.8225526809692383,-17.527080535888672,2350.7955977916718
D4:22:CD:00:05:5E,-16.359636306762695,-67.65602111816406,134.2882537841797,-2.3971705436706543,5.206462860107422,-1.9185748100280762,2350.7955977916718
D4:22:CD:00:05:5D,138.6612091064453,-53.69339370727539,-60.50844955444336,6.447575569152832,-3.477849006652832,2.175252914428711,2350.8257944583893
D4:22:CD:00:05:6B,-44.37739181518555,-73.7697525024414,-103.21279907226562,-5.133173942565918,5.754525184631348,-10.891616821289062,2350.8257944583893
D4:22:CD:00:49:AA,127.89537811279297,-81.10343933105469,143.45404052734375,0.3534398674964905,1.2772347927093506,-8.592824935913086,2350.8257944583893
D4:22:CD:00:05:6E,54.7879753112793,47.786216735839844,-177.41171264648438,-16.106746673583984,-5.470192909240723,-23.286582946777344,2350.8257944583893
D4:22:CD:00:05:5E,-20.344955444335938,-68.69659423828125,137.55213928222656,-2.0501890182495117,-2.399571418762207,-2.5937681198120117,2350.8257944583893
D4:22:CD:00:05:5D,120.22682189941406,-68.32807922363281,-38.98069763183594,11.661182403564453,-0.6920768022537231,12.28122329711914,2350.8857946395874
D4:22:CD:00:05:6B,-45.32858657836914,-75.10285186767578,-115.82589721679688,-2.1936988830566406,8.260696411132812,-7.791681289672852,2350.8857946395874
D4:22:CD:00:49:AA,120.66573333740234,-81.82701873779297,149.03192138671875,5.226926803588867,1.9568290710449219,-10.427453994750977,2350.8857946395874
D4:22:CD:00:05:6E,57.9383430480957,48.012290954589844,-174.3873748779297,-3.071892738342285,-11.709794998168945,-9.942560195922852,2350.8857946395874
D4:22:CD:00:05:5E,-35.39686965942383,-70.76903533935547,147.4462890625,-2.17051362991333,0.9049410820007324,1.6454353332519531,2350.8857946395874
D4:22:CD:00:05:5D,71.77250671386719,-76.2643051147461,12.917115211486816,4.669164657592773,12.731781005859375,13.98243522644043,2350.9158160686493
D4:22:CD:00:05:6B,-29.66330337524414,-77.70157623291016,-134.9742431640625,2.035393714904785,4.524711608886719,-5.8634033203125,2350.9158160686493
D4:22:CD:00:49:AA,118.2057113647461,-81.63130950927734,148.502197265625,4.171669960021973,1.5310165882110596,-11.153814315795898,2350.9158160686493
D4:22:CD:00:05:6E,46.56657791137695,52.80421447753906,170.76951599121094,6.024069786071777,0.42968684434890747,-10.336488723754883,2350.9158160686493
D4:22:CD:00:05:5E,-50.6341667175293,-71.13521575927734,158.62774658203125,-5.746705055236816,3.2906222343444824,2.8162479400634766,2350.9158160686493
D4:22:CD:00:05:5D,32.893516540527344,-72.53018951416016,45.587772369384766,-7.06387996673584,26.483028411865234,-23.054027557373047,2350.9454538822174
D4:22:CD:00:05:6B,2.152191162109375,-79.09495544433594,-166.30838012695312,-1.6805179119110107,1.624877691268921,-3.066371440887451,2350.9454538822174
D4:22:CD:00:49:AA,125.289306640625,-80.38225555419922,138.6338653564453,0.6447240114212036,-2.5277843475341797,-4.950884819030762,2350.9454538822174
D4:22:CD:00:05:6E,34.528316497802734,55.02993392944336,149.93138122558594,-2.1932878494262695,-1.9482247829437256,-15.13093376159668,2350.9454538822174
D4:22:CD:00:05:5E,-51.684898376464844,-69.56423950195312,160.5074005126953,-8.328689575195312,3.3971071243286133,5.8984174728393555,2350.9454538822174
D4:22:CD:00:05:5D,34.08854675292969,-73.35672760009766,40.024383544921875,17.754371643066406,6.036118507385254,-8.81016731262207,2350.9754543304443
D4:22:CD:00:05:6B,23.184858322143555,-78.84488677978516,171.09915161132812,-1.4506738185882568,2.5395050048828125,5.893067359924316,2350.9754543304443
D4:22:CD:00:49:AA,142.06222534179688,-78.50160217285156,120.3395767211914,1.0554840564727783,-5.646087646484375,-0.6398525238037109,2350.9754543304443
D4:22:CD:00:05:6E,26.936185836791992,51.92936706542969,124.80159759521484,9.14345932006836,4.563453674316406,-17.422821044921875,2350.9754543304443
D4:22:CD:00:05:5E,-47.97811508178711,-66.97225189208984,159.4233856201172,-5.62181282043457,2.446692943572998,7.919919967651367,2350.9754543304443
D4:22:CD:00:05:5D,64.43498992919922,-75.50006103515625,16.816591262817383,-2.1534581184387207,24.773181915283203,-3.1959872245788574,2351.005454301834
D4:22:CD:00:05:6B,27.687013626098633,-79.00273895263672,167.7617950439453,-1.3723702430725098,1.960758924484253,7.112800598144531,2351.005454301834
D4:22:CD:00:49:AA,152.33250427246094,-76.66018676757812,109.1552963256836,1.1296813488006592,-1.0245206356048584,7.861324310302734,2351.005454301834
D4:22:CD:00:05:6E,33.83759689331055,42.49912643432617,105.05326843261719,-3.673375129699707,-9.84292984008789,-19.352699279785156,2351.005454301834
D4:22:CD:00:05:5E,-43.85253143310547,-63.95665740966797,159.4315185546875,-8.082925796508789,-2.4793806076049805,8.686569213867188,2351.005454301834
D4:22:CD:00:05:5D,88.89976501464844,-77.22340393066406,-9.743587493896484,5.891645431518555,-11.331865310668945,3.2782630920410156,2351.03599524498
D4:22:CD:00:05:6B,25.592748641967773,-80.52706909179688,174.51931762695312,-0.9871695041656494,1.8759093284606934,7.492246627807617,2351.03599524498
D4:22:CD:00:49:AA,152.1911163330078,-77.07581329345703,110.35200500488281,-0.0316789373755455,1.430487871170044,8.603391647338867,2351.03599524498
D4:22:CD:00:05:6E,44.63855743408203,30.952531814575195,91.51866912841797,-19.637645721435547,1.182314157485962,-9.0679931640625,2351.03599524498
D4:22:CD:00:05:5E,-37.98361587524414,-61.025569915771484,158.8516845703125,-10.01512336730957,3.4701905250549316,-5.955862998962402,2351.03599524498
D4:22:CD:00:05:5D,101.10093688964844,-80.176513671875,-25.86210823059082,5.682851791381836,-7.709650039672852,6.814428329467773,2351.0659930706024
D4:22:CD:00:05:6B,26.639652252197266,-83.0553970336914,-179.5863494873047,-1.538527250289917,-1.1172583103179932,9.953720092773438,2351.0659930706024
D4:22:CD:00:49:AA,159.97105407714844,-77.12301635742188,106.46859741210938,2.790977954864502,-1.0716767311096191,5.586484909057617,2351.0659930706024
D4:22:CD:00:05:6E,52.079647064208984,21.470314025878906,81.1055908203125,0.09343110024929047,-1.862961769104004,-2.6972708702087402,2351.0659930706024
D4:22:CD:00:05:5E,-35.9506721496582,-62.30339431762695,165.94781494140625,-28.578907012939453,20.549697875976562,-13.307439804077148,2351.0659930706024
D4:22:CD:00:05:5D,116.95269012451172,-81.48585510253906,-42.80008316040039,-10.650924682617188,-6.674151420593262,11.674509048461914,2351.0960009098053
D4:22:CD:00:05:6B,45.562355041503906,-86.08804321289062,171.68423461914062,-2.184230327606201,1.5579180717468262,6.117010116577148,2351.0960009098053
D4:22:CD:00:49:AA,166.85585021972656,-76.44775390625,104.99456787109375,0.5815660953521729,-3.350254535675049,0.8763494491577148,2351.0960009098053
D4:22:CD:00:05:6E,66.11048126220703,14.007856369018555,71.95824432373047,2.9190468788146973,-6.869912147521973,-5.67536735534668,2351.0960009098053
D4:22:CD:00:05:5E,-41.496768951416016,-66.84965515136719,-179.7198028564453,-21.732067108154297,6.520685195922852,-12.81948471069336,2351.0960009098053
D4:22:CD:00:05:5D,138.73211669921875,-80.84439849853516,-58.86497497558594,-4.855916976928711,0.0020529665052890778,-1.7613229751586914,2351.125545024872
D4:22:CD:00:05:6B,96.77813720703125,-87.24395751953125,135.5557861328125,7.200940132141113,-2.9918460845947266,1.8778257369995117,2351.125545024872
D4:22:CD:00:49:AA,173.6096954345703,-74.69798278808594,104.6011962890625,-2.114734649658203,-0.12233377993106842,0.3356599807739258,2351.125545024872
D4:22:CD:00:05:6E,83.990478515625,8.601229667663574,64.45911407470703,3.898273468017578,-2.3929834365844727,22.396446228027344,2351.125545024872
D4:22:CD:00:05:5E,-58.86044692993164,-72.29071044921875,-156.75469970703125,-10.61605453491211,-1.1408135890960693,-10.54119873046875,2351.125545024872
D4:22:CD:00:05:5D,152.6568603515625,-80.6007080078125,-71.10553741455078,5.461661338806152,0.7954603433609009,2.5699586868286133,2351.185544013977
D4:22:CD:00:05:6B,154.7294921875,-87.65707397460938,85.21088409423828,1.4290692806243896,-1.6838676929473877,-1.7633047103881836,2351.185544013977
D4:22:CD:00:49:AA,175.1167755126953,-73.22428894042969,106.58450317382812,0.5899776220321655,5.322261810302734,-1.3268251419067383,2351.185544013977
D4:22:CD:00:05:6E,89.22140502929688,5.498530387878418,59.443485260009766,12.11789321899414,-14.59904670715332,-2.947223663330078,2351.185544013977
D4:22:CD:00:05:5E,-91.52101135253906,-75.35179138183594,-121.62478637695312,-6.193780899047852,-2.274007797241211,-10.246620178222656,2351.185544013977
D4:22:CD:00:05:5D,163.4080352783203,-80.83502960205078,-82.56869506835938,3.623566150665283,2.0412721633911133,0.8877353668212891,2351.2155590057373
D4:22:CD:00:05:6B,162.47178649902344,-87.4647216796875,83.58527374267578,-6.156944274902344,-2.771880626678467,3.1190319061279297,2351.2155590057373
D4:22:CD:00:49:AA,170.64161682128906,-73.046142578125,109.8885269165039,2.410578727722168,2.1179957389831543,5.702584266662598,2351.2155590057373
D4:22:CD:00:05:6E,107.1164321899414,-0.6167182326316833,57.48621368408203,-5.597648620605469,-1.2339723110198975,-9.767684936523438,2351.2155590057373
D4:22:CD:00:05:5E,-129.04641723632812,-73.77274322509766,-85.60236358642578,-0.5319418907165527,-2.320880889892578,-10.395578384399414,2351.2155590057373
D4:22:CD:00:05:5D,173.57000732421875,-81.82058715820312,-92.67610931396484,1.4880609512329102,2.489889144897461,1.104903221130371,2351.2460865974426
D4:22:CD:00:05:6B,143.56602478027344,-87.28971862792969,106.77283477783203,-9.126174926757812,-6.038962364196777,3.659961700439453,2351.2460865974426
D4:22:CD:00:49:AA,166.596435546875,-72.7938232421875,111.99308776855469,-4.716183662414551,1.702409267425537,2.5899715423583984,2351.2460865974426
D4:22:CD:00:05:6E,124.42504119873047,-8.063486099243164,53.95667266845703,-4.786940574645996,-4.671669960021973,15.695053100585938,2351.2460865974426
D4:22:CD:00:05:5E,-154.0923614501953,-70.15634155273438,-63.58865737915039,1.7078487873077393,-0.5689185857772827,-11.118759155273438,2351.2460865974426
D4:22:CD:00:05:5D,-173.48104858398438,-83.11798095703125,-105.50772094726562,-3.106956958770752,0.8524699211120605,0.5773096084594727,2351.2760899066925
D4:22:CD:00:05:6B,170.29812622070312,-88.21096801757812,77.34227752685547,-4.0752058029174805,-0.7867228984832764,0.5085592269897461,2351.2760899066925
D4:22:CD:00:49:AA,163.96453857421875,-72.44674682617188,113.95486450195312,-7.662566184997559,4.351316452026367,-3.179265022277832,2351.2760899066925
D4:22:CD:00:05:6E,125.35140228271484,-16.206953048706055,47.95071029663086,-4.739179611206055,-0.26607662439346313,-2.708829402923584,2351.2760899066925
D4:22:CD:00:05:5E,-172.89268493652344,-67.5234146118164,-48.789710998535156,0.6196386814117432,0.21825438737869263,-7.013768196105957,2351.2760899066925
D4:22:CD:00:05:5D,-158.05775451660156,-83.80393981933594,-122.21223449707031,-0.5040123462677002,-1.288264274597168,-0.7357902526855469,2351.306092262268
D4:22:CD:00:05:6B,-92.87603759765625,-86.74141693115234,-23.52703857421875,-5.854798316955566,1.6077651977539062,-3.1175360679626465,2351.306092262268
D4:22:CD:00:49:AA,162.89285278320312,-72.18817138671875,115.06356811523438,-4.408860206604004,1.8484923839569092,-4.230415344238281,2351.306092262268
D4:22:CD:00:05:6E,128.88291931152344,-26.02126121520996,40.04431915283203,1.521038293838501,3.523038387298584,-4.506161689758301,2351.306092262268
D4:22:CD:00:05:5E,172.033935546875,-67.46744537353516,-35.64877700805664,5.454673767089844,-2.3994107246398926,-3.357016086578369,2351.306092262268
D4:22:CD:00:05:5D,-150.05062866210938,-83.47898864746094,-131.6106414794922,2.76731014251709,-3.1848788261413574,-1.8335227966308594,2351.3357293605804
D4:22:CD:00:05:6B,-72.5126953125,-82.32882690429688,-46.80652618408203,-4.415053367614746,-0.8218698501586914,-6.78001594543457,2351.3357293605804
D4:22:CD:00:49:AA,161.17955017089844,-71.83162689208984,116.38134002685547,0.5721958875656128,0.25485748052597046,-3.1268539428710938,2351.3357293605804
D4:22:CD:00:05:6E,133.41810607910156,-36.81086730957031,31.465572357177734,3.2300620079040527,-1.2692017555236816,3.592550277709961,2351.3357293605804
D4:22:CD:00:05:5E,157.93138122558594,-70.45259094238281,-21.078311920166016,9.80441665649414,-1.7603321075439453,0.9745121002197266,2351.3357293605804
D4:22:CD:00:05:5D,-157.6615447998047,-81.85363006591797,-125.17686462402344,4.364279747009277,-5.191359519958496,-2.112618923187256,2351.3658044338226
D4:22:CD:00:05:6B,-66.23351287841797,-77.16290283203125,-57.58656311035156,-3.313542366027832,0.04375910758972168,-8.380971908569336,2351.3658044338226
D4:22:CD:00:49:AA,157.40736389160156,-71.49224853515625,118.7436294555664,1.2758550643920898,0.5736255645751953,-3.4423398971557617,2351.3658044338226
D4:22:CD:00:05:6E,135.38021850585938,-48.77532958984375,21.71814727783203,6.873593330383301,-1.2307722568511963,4.783068656921387,2351.3658044338226
D4:22:CD:00:05:5E,155.41319274902344,-71.83993530273438,-14.550615310668945,-17.618228912353516,27.594104766845703,20.39339828491211,2351.3658044338226
D4:22:CD:00:05:5D,-171.36874389648438,-78.30718231201172,-111.1170654296875,3.271216869354248,-4.256539344787598,-1.4669952392578125,2351.3958048820496
D4:22:CD:00:05:6B,-61.4013786315918,-71.48099517822266,-67.12683868408203,-3.0087242126464844,3.4147796630859375,-7.812655448913574,2351.3958048820496
D4:22:CD:00:49:AA,151.844482421875,-70.66008758544922,121.64180755615234,-0.5832734107971191,-0.1585557758808136,-6.338497161865234,2351.3958048820496
D4:22:CD:00:05:6E,132.4558868408203,-60.29521560668945,12.446368217468262,7.431153297424316,-7.779888153076172,13.051446914672852,2351.3958048820496
D4:22:CD:00:05:5E,151.7329864501953,-71.0707778930664,-16.21828842163086,9.652645111083984,-4.799822807312012,-1.2971992492675781,2351.3958048820496
D4:22:CD:00:05:5D,179.92459106445312,-72.95999908447266,-99.71891021728516,-1.1812455654144287,1.3031606674194336,-0.5993413925170898,2351.425347328186
D4:22:CD:00:05:6B,-54.33967971801758,-65.02812194824219,-76.54060363769531,-3.106062889099121,3.319110870361328,-6.986774444580078,2351.425347328186
D4:22:CD:00:49:AA,146.52430725097656,-69.54610443115234,123.64324188232422,-2.2443361282348633,0.27953433990478516,-5.334250450134277,2351.425347328186
D4:22:CD:00:05:6E,124.52930450439453,-67.25079345703125,8.724127769470215,4.142124176025391,-1.4847946166992188,14.207620620727539,2351.425347328186
D4:22:CD:00:05:5E,148.62466430664062,-72.8230209350586,-16.3546142578125,7.2204742431640625,0.28093117475509644,15.061040878295898,2351.425347328186
D4:22:CD:00:05:5D,175.6280517578125,-66.7060775756836,-93.28406524658203,1.8134210109710693,-0.5783325433731079,-1.1791725158691406,2351.4863414764404
D4:22:CD:00:05:6B,-48.813053131103516,-56.94124984741211,-83.59869384765625,-4.143115043640137,3.2152676582336426,-3.710289478302002,2351.4863414764404
D4:22:CD:00:49:AA,142.1604766845703,-69.33824920654297,126.41695404052734,-3.7027854919433594,1.2299377918243408,-3.339020252227783,2351.4863414764404
D4:22:CD:00:05:6E,113.04303741455078,-65.66102600097656,5.891741752624512,20.579849243164062,-2.5728344917297363,3.654966354370117,2351.4863414764404
D4:22:CD:00:05:5E,157.4574432373047,-71.87859344482422,-27.38739013671875,5.583589553833008,0.8443496227264404,14.268457412719727,2351.4863414764404
D4:22:CD:00:05:5D,174.26785278320312,-61.34177780151367,-89.9312973022461,2.3900089263916016,2.6155638694763184,0.7598705291748047,2351.5153608322144
D4:22:CD:00:05:6B,-41.429039001464844,-47.4778938293457,-89.79351806640625,-1.9040086269378662,5.9157867431640625,0.7630681991577148,2351.5153608322144
D4:22:CD:00:49:AA,137.8977813720703,-69.14639282226562,130.7637939453125,1.956810712814331,2.0337982177734375,-1.3906259536743164,2351.5153608322144
D4:22:CD:00:05:6E,114.92364501953125,-64.83365631103516,8.26032829284668,23.537174224853516,1.348437786102295,3.838712692260742,2351.5153608322144
D4:22:CD:00:05:5E,171.96658325195312,-67.2358169555664,-41.900970458984375,2.8016066551208496,-4.416048049926758,19.68291473388672,2351.5153608322144
D4:22:CD:00:05:5D,173.65904235839844,-57.34553909301758,-87.99187469482422,-1.737581729888916,1.3531439304351807,1.3445749282836914,2351.5458946228027
D4:22:CD:00:05:6B,-35.396636962890625,-37.92171096801758,-96.8512954711914,5.213918685913086,7.731317520141602,6.240085601806641,2351.5458946228027
D4:22:CD:00:49:AA,136.34226989746094,-68.32501983642578,131.80235290527344,0.20557871460914612,0.6666492223739624,10.531770706176758,2351.5458946228027
D4:22:CD:00:05:6E,120.70437622070312,-64.66232299804688,14.530437469482422,3.866048812866211,4.3095245361328125,8.944198608398438,2351.5458946228027
D4:22:CD:00:05:5E,-177.18048095703125,-61.37765884399414,-48.95710372924805,-0.5476044416427612,-5.711581230163574,19.068889617919922,2351.5458946228027
