Device,EulerX,EulerY,EulerZ,FreeAccX,FreeAccY,FreeAccZ,Timestamp
D4:22:CD:00:05:6B,-6.203003883361816,19.016849517822266,-38.5529899597168,-2.985494613647461,2.7979660034179688,-1.3390798568725586,1372.8799257278442
D4:22:CD:00:49:AA,150.8411865234375,-73.81243133544922,144.37416076660156,-2.3075170516967773,-0.6564394235610962,2.8182506561279297,1372.8799257278442
D4:22:CD:00:05:6E,-163.81674194335938,-66.7245101928711,-17.15284538269043,-0.21884006261825562,-11.486492156982422,3.940995216369629,1372.8799257278442
D4:22:CD:00:05:5E,-154.0563201904297,-67.11788177490234,-45.00718688964844,5.355436325073242,0.24711182713508606,-1.98292875289917,1372.8799257278442
D4:22:CD:00:49:AA,161.90550231933594,-74.67060089111328,138.8040771484375,-1.6847634315490723,-0.08082495629787445,-1.6434326171875,1372.89293050766
D4:22:CD:00:05:6E,-146.04432678222656,-64.69554901123047,-23.881118774414062,0.30447930097579956,-12.455110549926758,-4.758986473083496,1372.89293050766
D4:22:CD:00:05:5E,-137.21365356445312,-77.969970703125,-65.2084732055664,3.2495288848876953,1.9602453708648682,0.10605430603027344,1372.89293050766
D4:22:CD:00:05:5D,154.88955688476562,-46.23188781738281,-106.4671630859375,1.204925537109375,-0.519729733467102,2.16796875,1372.8983099460602
D4:22:CD:00:05:6B,-37.672115325927734,6.791936874389648,-43.63005447387695,0.16960179805755615,-3.683781147003174,16.612751007080078,1372.8983099460602
D4:22:CD:00:05:6E,-137.51718139648438,-63.67744445800781,-22.446666717529297,1.8962786197662354,-8.501651763916016,-8.969625473022461,1372.8983099460602
D4:22:CD:00:05:5E,-51.78575134277344,-81.76932525634766,-154.7945556640625,-6.831520080566406,3.9212379455566406,0.12999343872070312,1372.8983099460602
D4:22:CD:00:05:5D,160.32435607910156,-46.72698974609375,-110.99488067626953,2.3336586952209473,-1.0428454875946045,1.947052001953125,1372.9023189544678
D4:22:CD:00:05:6B,-29.02960205078125,11.207754135131836,-34.400489807128906,-5.797722816467285,-4.65925407409668,5.357605934143066,1372.9023189544678
D4:22:CD:00:49:AA,170.20201110839844,-71.9846420288086,115.2554931640625,-2.0556960105895996,0.23335421085357666,5.065425872802734,1372.9023189544678
D4:22:CD:00:05:5E,-19.748098373413086,-70.27236938476562,167.87802124023438,-10.921405792236328,9.394548416137695,-0.9747438430786133,1372.9023189544678
D4:22:CD:00:05:5D,176.0181121826172,-55.84377670288086,-120.79334259033203,0.7121067047119141,1.1672570705413818,3.5214242935180664,1372.9063246250153
D4:22:CD:00:05:6B,-22.837392807006836,18.263830184936523,-30.01642417907715,-6.792938232421875,-2.6087164878845215,-3.5987086296081543,1372.9063246250153
D4:22:CD:00:49:AA,-168.6428985595703,-73.59337615966797,97.71739196777344,-0.5518161058425903,0.17648380994796753,1.3532695770263672,1372.9063246250153
D4:22:CD:00:05:6E,126.77667236328125,-50.72289276123047,-21.06818962097168,-3.8281025886535645,-1.0765995979309082,4.877938270568848,1372.9063246250153
D4:22:CD:00:05:5D,179.5872802734375,-62.46058654785156,-124.39556121826172,-3.1788792610168457,0.8656018972396851,5.84760856628418,1372.9471862316132
D4:22:CD:00:05:6B,-16.96233558654785,23.954683303833008,-30.17771339416504,0.043687403202056885,-1.5038204193115234,-3.9498066902160645,1372.9471862316132
D4:22:CD:00:49:AA,-155.08377075195312,-73.07086944580078,88.69445037841797,-0.23884549736976624,0.4297235608100891,-4.815025329589844,1372.9471862316132
D4:22:CD:00:05:6E,130.82371520996094,-50.04839324951172,-21.61551856994629,-3.170872688293457,-2.299923896789551,3.6419200897216797,1372.9471862316132
D4:22:CD:00:05:5E,-89.87911224365234,-61.99381637573242,-105.2616958618164,0.6522505283355713,4.370453834533691,-4.170397758483887,1372.9471862316132
D4:22:CD:00:05:5D,178.66171264648438,-71.50196075439453,-127.35066986083984,-6.845280647277832,-4.370878219604492,3.2204322814941406,1372.9770789146423
D4:22:CD:00:05:6B,-8.616174697875977,26.579317092895508,-34.634918212890625,0.49364519119262695,-8.215051651000977,-6.07621955871582,1372.9770789146423
D4:22:CD:00:49:AA,-147.6669921875,-71.72930145263672,85.43157958984375,0.25685328245162964,1.0548996925354004,-9.187973022460938,1372.9770789146423
D4:22:CD:00:05:6E,138.70480346679688,-49.502159118652344,-21.228721618652344,-2.4195308685302734,-2.137913227081299,-1.4610071182250977,1372.9770789146423
D4:22:CD:00:05:5E,-73.8169937133789,-52.34373092651367,-122.06327819824219,-2.751190662384033,1.6656475067138672,-4.564168930053711,1372.9770789146423
D4:22:CD:00:05:5D,176.68792724609375,-75.91020965576172,-124.8946533203125,-0.4819331169128418,3.672217845916748,-4.981030464172363,1373.0070931911469
D4:22:CD:00:05:6B,-1.079695463180542,26.602705001831055,-40.88969802856445,2.558131217956543,-5.545378684997559,-7.101470947265625,1373.0070931911469
D4:22:CD:00:49:AA,-146.6938934326172,-71.57948303222656,86.79158020019531,2.9456238746643066,3.1206393241882324,-10.807024002075195,1373.0070931911469
D4:22:CD:00:05:6E,149.16868591308594,-49.186153411865234,-20.188438415527344,-1.582897424697876,-0.4384632110595703,-4.476004600524902,1373.0070931911469
D4:22:CD:00:05:5E,-69.97551727294922,-48.02548599243164,-133.042724609375,-6.991524696350098,3.078885078430176,-4.888121604919434,1373.0070931911469
D4:22:CD:00:05:5D,168.21986389160156,-73.9336166381836,-112.2151870727539,0.4457818269729614,6.542060852050781,-7.331511497497559,1373.0672171115875
D4:22:CD:00:05:6B,0.8414883613586426,25.729267120361328,-46.97201919555664,3.4547600746154785,-10.04560661315918,-4.815082550048828,1373.0672171115875
D4:22:CD:00:49:AA,-147.7771453857422,-73.42924499511719,89.49994659423828,-0.9645429849624634,1.993983507156372,-8.10409164428711,1373.0672171115875
D4:22:CD:00:05:6E,160.03492736816406,-48.19045639038086,-17.856660842895508,-1.418700933456421,-2.21211576461792,-5.8893842697143555,1373.0672171115875
D4:22:CD:00:05:5E,-72.0122299194336,-46.71371841430664,-141.425537109375,-11.427164077758789,1.7840757369995117,-5.083928108215332,1373.0672171115875
D4:22:CD:00:05:5D,159.2118377685547,-69.42357635498047,-100.48790740966797,-3.4570446014404297,-2.704805374145508,-7.973488807678223,1373.0972306728363
D4:22:CD:00:05:6B,4.701801776885986,25.16746711730957,-55.57856750488281,2.6627097129821777,-6.454412460327148,-6.824963569641113,1373.0972306728363
D4:22:CD:00:49:AA,-143.2156219482422,-75.9131851196289,87.17711639404297,-4.551671028137207,-0.7383228540420532,-6.870871543884277,1373.0972306728363
D4:22:CD:00:05:6E,167.27630615234375,-47.48313522338867,-13.411139488220215,-0.43297064304351807,-4.080193519592285,-6.246242523193359,1373.0972306728363
D4:22:CD:00:05:5E,-75.47522735595703,-47.57073211669922,-148.25686645507812,-15.74161148071289,0.8867592811584473,-3.7639455795288086,1373.0972306728363
D4:22:CD:00:05:5D,159.2776641845703,-68.38488006591797,-93.96390533447266,11.854782104492188,-15.610757827758789,-10.036794662475586,1373.1277701854706
D4:22:CD:00:05:6B,8.928252220153809,24.94306755065918,-67.27916717529297,4.19219970703125,1.1172206401824951,-9.246101379394531,1373.1277701854706
D4:22:CD:00:49:AA,-134.24583435058594,-77.31609344482422,80.88790893554688,-0.05882011353969574,-1.1623241901397705,-5.644543647766113,1373.1277701854706
D4:22:CD:00:05:6E,169.90919494628906,-47.56378936767578,-7.954548358917236,0.9033806324005127,-5.2819061279296875,-5.222780227661133,1373.1277701854706
D4:22:CD:00:05:5E,-77.25808715820312,-49.29109573364258,-153.30068969726562,-15.843587875366211,5.121425628662109,-4.010180473327637,1373.1277701854706
D4:22:CD:00:05:5D,164.00506591796875,-66.13179016113281,-90.20806121826172,4.79440975189209,-4.341891288757324,-3.437068462371826,1373.1567687988281
D4:22:CD:00:05:6B,6.836233615875244,23.30272674560547,-82.68460083007812,6.334610939025879,-1.5763604640960693,-12.652084350585938,1373.1567687988281
D4:22:CD:00:49:AA,-133.69180297851562,-78.19783782958984,81.27986907958984,5.260158538818359,2.6104350090026855,-2.8633084297180176,1373.1567687988281
D4:22:CD:00:05:6E,168.83114624023438,-48.07802200317383,-2.5017340183258057,2.1317577362060547,-4.742666244506836,-4.965546607971191,1373.1567687988281
D4:22:CD:00:05:5E,-80.13127899169922,-52.66902542114258,-152.25257873535156,-18.003223419189453,8.990716934204102,-11.013402938842773,1373.1567687988281
D4:22:CD:00:05:5D,162.9082489013672,-62.575401306152344,-88.90715026855469,3.4798126220703125,-5.319182395935059,-0.5744495391845703,1373.187166929245
D4:22:CD:00:05:6B,-3.9493601322174072,18.52408790588379,-98.80661010742188,-2.4546008110046387,-13.322578430175781,-18.46847152709961,1373.187166929245
D4:22:CD:00:49:AA,-142.12782287597656,-79.02379608154297,87.53965759277344,2.545217514038086,-0.2987377643585205,0.0591583251953125,1373.187166929245
D4:22:CD:00:05:6E,166.6798858642578,-48.63665771484375,2.2110965251922607,4.166964530944824,-5.33409309387207,-4.799692153930664,1373.187166929245
D4:22:CD:00:05:5E,-102.17945098876953,-55.321144104003906,-135.01918029785156,-19.243240356445312,5.749924659729004,-10.659671783447266,1373.187166929245
D4:22:CD:00:05:5D,160.81500244140625,-58.09123611450195,-85.85514831542969,0.4263647794723511,-4.84498405456543,2.255420684814453,1373.2175450325012
D4:22:CD:00:05:6B,-17.271678924560547,13.459729194641113,-111.7737045288086,-9.383852005004883,-9.552742004394531,-17.845935821533203,1373.2175450325012
D4:22:CD:00:49:AA,-146.6796875,-79.36729431152344,89.70553588867188,-4.821216583251953,-3.1491341590881348,3.1676511764526367,1373.2175450325012
D4:22:CD:00:05:6E,165.4713134765625,-49.21316909790039,6.415322303771973,6.488124847412109,-5.837640762329102,-4.856015205383301,1373.2175450325012
D4:22:CD:00:05:5E,-133.4224395751953,-52.77618408203125,-113.0712661743164,9.970621109008789,-28.605087280273438,-2.6585841178894043,1373.2175450325012
D4:22:CD:00:05:5D,160.18130493164062,-54.228946685791016,-82.21954345703125,-3.0433058738708496,5.360866546630859,0.5719947814941406,1373.2472670078278
D4:22:CD:00:05:6B,-45.380821228027344,13.793015480041504,-110.69107055664062,3.4255013465881348,10.90900993347168,-22.395042419433594,1373.2472670078278
D4:22:CD:00:49:AA,-143.958984375,-79.40341186523438,87.18618774414062,-5.948329925537109,-0.7017197608947754,5.906278610229492,1373.2472670078278
D4:22:CD:00:05:6E,166.33607482910156,-49.88573455810547,9.658452987670898,8.800891876220703,-6.886153221130371,-2.2891077995300293,1373.2472670078278
D4:22:CD:00:05:5E,-141.60757446289062,-53.06394577026367,-103.21717834472656,-8.595724105834961,-19.95203399658203,-7.808870315551758,1373.2472670078278
D4:22:CD:00:05:5D,158.23995971679688,-53.158851623535156,-79.71258544921875,2.806197166442871,1.5620007514953613,2.6353683471679688,1373.2773277759552
D4:22:CD:00:05:6B,-60.51046371459961,18.17138671875,-105.31777954101562,-6.198461532592773,1.7926485538482666,10.082862854003906,1373.2773277759552
D4:22:CD:00:49:AA,-142.65582275390625,-79.07508087158203,87.07980346679688,1.258655071258545,-0.18870213627815247,4.855388641357422,1373.2773277759552
D4:22:CD:00:05:6E,168.1600341796875,-50.43899917602539,10.90368366241455,10.687948226928711,-11.058248519897461,-1.1440582275390625,1373.2773277759552
D4:22:CD:00:05:5E,-154.18064880371094,-51.992488861083984,-93.75955963134766,0.12502911686897278,-13.537479400634766,2.5754528045654297,1373.2773277759552
D4:22:CD:00:05:5D,154.741455078125,-53.445343017578125,-76.3095703125,-0.4356383681297302,-6.7112321853637695,7.5745391845703125,1373.3074474334717
D4:22:CD:00:05:6B,-53.64811706542969,22.543224334716797,-97.9947738647461,-6.895883560180664,-0.12787890434265137,-5.138792991638184,1373.3074474334717
D4:22:CD:00:49:AA,-147.08245849609375,-77.36201477050781,91.63296508789062,4.997249603271484,-3.0389795303344727,8.37373161315918,1373.3074474334717
D4:22:CD:00:05:6E,163.38291931152344,-51.359397888183594,11.152762413024902,13.624813079833984,-14.877595901489258,4.29971981048584,1373.3074474334717
D4:22:CD:00:05:5E,-164.2779998779297,-51.277706146240234,-85.47520446777344,4.231712341308594,1.0380117893218994,-0.7926902770996094,1373.3074474334717
D4:22:CD:00:05:5D,150.35989379882812,-54.3702392578125,-72.90389251708984,-9.387544196215458e-06,-0.6611620187759399,4.507439613342285,1373.3676710128784
D4:22:CD:00:05:6B,-46.26116943359375,26.50139045715332,-84.873779296875,-7.204781532287598,-4.764716148376465,-5.931791305541992,1373.3676710128784
D4:22:CD:00:49:AA,-146.39096069335938,-76.37853240966797,89.05487823486328,1.4156169891357422,-0.7230261564254761,3.30733585357666,1373.3676710128784
D4:22:CD:00:05:6E,148.87612915039062,-52.4512825012207,13.194267272949219,12.166097640991211,-8.16545295715332,5.488106727600098,1373.3676710128784
D4:22:CD:00:05:5E,-172.01611328125,-51.34455108642578,-78.55368041992188,1.270078420639038,-9.573997497558594,1.375441551208496,1373.3676710128784
D4:22:CD:00:05:5D,143.5548553466797,-56.34022903442383,-69.27767181396484,4.422167778015137,-3.3915772438049316,5.039033889770508,1373.3976712226868
D4:22:CD:00:05:6B,-38.79379653930664,25.40855598449707,-70.97034454345703,-2.592236042022705,-0.4136037230491638,-4.692109107971191,1373.3976712226868
D4:22:CD:00:49:AA,-145.0613555908203,-75.56802368164062,85.1176986694336,6.602496147155762,4.829261779785156,-3.219202995300293,1373.3976712226868
D4:22:CD:00:05:6E,128.69842529296875,-51.76570129394531,18.741127014160156,7.8444061279296875,-2.3540501594543457,3.8327274322509766,1373.3976712226868
D4:22:CD:00:05:5E,-178.3041229248047,-51.54723358154297,-72.53733825683594,0.5298300981521606,-4.106252670288086,-1.8709988594055176,1373.3976712226868
D4:22:CD:00:05:5D,134.64474487304688,-58.99591064453125,-65.03632354736328,6.640955924987793,-4.598027229309082,3.4096031188964844,1373.4274911880493
D4:22:CD:00:05:6B,-36.49386978149414,21.570880889892578,-59.64913558959961,-1.4982290267944336,6.161848068237305,-2.037715435028076,1373.4274911880493
D4:22:CD:00:49:AA,-150.09033203125,-73.9873046875,85.94061279296875,7.061651229858398,-0.21029117703437805,-2.678727626800537,1373.4274911880493
D4:22:CD:00:05:6E,112.49638366699219,-47.59530258178711,23.05794906616211,5.482877731323242,7.231278419494629,-0.8139257431030273,1373.4274911880493
D4:22:CD:00:05:5E,175.8971405029297,-51.06332015991211,-68.34408569335938,0.30979853868484497,-5.151884078979492,-1.1165685653686523,1373.4274911880493
D4:22:CD:00:05:5D,124.83802032470703,-60.807376861572266,-67.05611419677734,19.63626480102539,11.44556999206543,-2.452544689178467,1373.4575543403625
D4:22:CD:00:05:6B,-41.554325103759766,16.23342514038086,-50.252166748046875,-7.149087905883789,16.312347412109375,-4.241949081420898,1373.4575543403625
D4:22:CD:00:49:AA,-154.69110107421875,-72.57023620605469,86.515380859375,2.0928664207458496,-1.1372945308685303,0.19589900970458984,1373.4575543403625
D4:22:CD:00:05:6E,103.58281707763672,-42.7196159362793,24.26374626159668,3.6288552284240723,6.47392463684082,-4.294428825378418,1373.4575543403625
D4:22:CD:00:05:5E,172.8474578857422,-50.43332290649414,-65.75779724121094,1.6141703128814697,-6.960150718688965,-1.014883041381836,1373.4575543403625
D4:22:CD:00:05:5D,127.91828155517578,-56.23737716674805,-80.09223937988281,22.797832489013672,8.92671012878418,5.428570747375488,1373.4875538349152
D4:22:CD:00:05:6B,-50.0941276550293,8.813431739807129,-40.23854446411133,-8.654439926147461,5.906465530395508,-9.652763366699219,1373.4875538349152
D4:22:CD:00:49:AA,-154.1319122314453,-72.46343231201172,84.50529479980469,1.427781581878662,1.7333812713623047,-1.6918964385986328,1373.4875538349152
D4:22:CD:00:05:6E,98.51483154296875,-38.547855377197266,25.37823486328125,2.3906006813049316,7.905487060546875,-4.9893693923950195,1373.4875538349152
D4:22:CD:00:05:5E,172.08016967773438,-50.751678466796875,-62.70111083984375,2.5506553649902344,-5.338018417358398,-0.9837465286254883,1373.4875538349152
D4:22:CD:00:05:5D,138.4275665283203,-47.946197509765625,-95.02739715576172,11.044315338134766,-1.2321925163269043,0.6907052993774414,1373.5184185504913
D4:22:CD:00:05:6B,-59.779327392578125,0.4175468385219574,-27.785823822021484,-1.5359365940093994,0.5712891817092896,-12.268413543701172,1373.5184185504913
D4:22:CD:00:49:AA,-153.4955596923828,-71.57848358154297,83.81002044677734,4.907573699951172,2.2057318687438965,-1.3158645629882812,1373.5184185504913
D4:22:CD:00:05:6E,96.49287414550781,-35.716590881347656,27.12934684753418,3.371096134185791,6.915041923522949,-5.531307220458984,1373.5184185504913
D4:22:CD:00:05:5E,172.7567596435547,-50.86711120605469,-59.696163177490234,4.483234405517578,-3.6308069229125977,-0.38219451904296875,1373.5184185504913
D4:22:CD:00:05:5D,146.5797576904297,-39.442909240722656,-107.51150512695312,2.5274486541748047,-4.723293304443359,-5.951177597045898,1373.5472762584686
D4:22:CD:00:05:6B,-69.55300903320312,-6.446177005767822,-14.512906074523926,6.486662864685059,3.509286880493164,2.536770820617676,1373.5472762584686
D4:22:CD:00:49:AA,-155.0227813720703,-70.50464630126953,84.6067123413086,5.577722549438477,1.1977105140686035,-0.8357057571411133,1373.5472762584686
D4:22:CD:00:05:6E,96.90447998046875,-34.266239166259766,29.539278030395508,3.1347594261169434,5.835691452026367,-4.602272033691406,1373.5472762584686
D4:22:CD:00:05:5E,175.47039794921875,-50.495018005371094,-58.10993957519531,4.786360740661621,-4.294196128845215,-2.271242618560791,1373.5472762584686
D4:22:CD:00:05:5D,154.38858032226562,-32.183040618896484,-117.08870697021484,-1.878737449645996,-1.8712213039398193,-9.57771110534668,1373.5772767066956
D4:22:CD:00:05:6B,-75.41087341308594,-10.507933616638184,-3.990673065185547,2.3949599266052246,6.521245002746582,5.535060882568359,1373.5772767066956
D4:22:CD:00:49:AA,-156.272216796875,-70.16405487060547,85.54668426513672,2.50361967086792,0.23400720953941345,-2.0369114875793457,1373.5772767066956
D4:22:CD:00:05:6E,100.23151397705078,-33.76262283325195,31.918684005737305,2.945467472076416,3.8892440795898438,-4.514050483703613,1373.5772767066956
D4:22:CD:00:05:5E,-176.44692993164062,-50.38393783569336,-58.73784637451172,1.471226692199707,-5.018922805786133,-5.165005683898926,1373.5772767066956
D4:22:CD:00:05:5D,161.39154052734375,-26.92940330505371,-124.76238250732422,-2.2849035263061523,0.1272474229335785,-9.824859619140625,1373.607272863388
D4:22:CD:00:05:6B,-81.03341674804688,-12.167840957641602,3.3263440132141113,0.5258007049560547,11.494333267211914,-0.2079181671142578,1373.607272863388
D4:22:CD:00:49:AA,-156.87322998046875,-70.37455749511719,85.89493560791016,1.5225763320922852,-0.37922531366348267,-4.852967262268066,1373.607272863388
D4:22:CD:00:05:6E,104.61756896972656,-33.20365905761719,33.59592056274414,1.0357623100280762,0.6643441915512085,-2.568222999572754,1373.607272863388
D4:22:CD:00:05:5E,-170.47018432617188,-47.02372360229492,-62.83302688598633,0.7084974050521851,-5.008634567260742,-2.4360647201538086,1373.607272863388
D4:22:CD:00:05:5D,166.89852905273438,-24.316904067993164,-132.0391387939453,-4.950338363647461,0.477941632270813,-8.349018096923828,1373.6677930355072
D4:22:CD:00:05:6B,-84.86618041992188,-13.913434028625488,7.850965976715088,-3.0235047340393066,9.45380973815918,-1.7629785537719727,1373.6677930355072
D4:22:CD:00:49:AA,-158.21347045898438,-71.26541900634766,86.44596099853516,0.9548134803771973,0.683394193649292,-9.03599739074707,1373.6677930355072
D4:22:CD:00:05:6E,107.2630386352539,-31.370464324951172,33.93190383911133,0.7418760061264038,-1.1965858936309814,-3.59755802154541,1373.6677930355072
D4:22:CD:00:05:5E,-176.7178955078125,-40.281368255615234,-68.3201675415039,-2.4199585914611816,-1.2395167350769043,-3.1204452514648438,1373.6677930355072
D4:22:CD:00:05:5D,168.13858032226562,-25.109268188476562,-138.80520629882812,-14.730062484741211,-1.6476688385009766,-12.392082214355469,1373.6967222690582
D4:22:CD:00:05:6B,-85.41970825195312,-17.53224754333496,11.80381965637207,-2.2070727348327637,3.280442714691162,-8.408977508544922,1373.6967222690582
D4:22:CD:00:49:AA,-161.38259887695312,-72.06592559814453,86.77770233154297,4.913501739501953,2.673074722290039,-9.818265914916992,1373.6967222690582
D4:22:CD:00:05:6E,105.38385009765625,-27.313385009765625,33.73508071899414,2.280843734741211,-2.593355178833008,-3.5522866249084473,1373.6967222690582
D4:22:CD:00:05:5E,178.1366424560547,-33.20048904418945,-73.55272674560547,-12.562986373901367,-8.795866012573242,-0.8915433883666992,1373.6967222690582
D4:22:CD:00:05:5D,165.77662658691406,-27.300552368164062,-143.0613555908203,-13.371601104736328,1.967759370803833,6.865760803222656,1373.7273302078247
D4:22:CD:00:05:6B,-87.68648529052734,-23.276752471923828,16.340288162231445,0.8680789470672607,2.362006664276123,-10.286832809448242,1373.7273302078247
D4:22:CD:00:49:AA,-163.22422790527344,-70.1824722290039,83.86182403564453,7.207623481750488,-3.595355987548828,2.7347030639648438,1373.7273302078247
D4:22:CD:00:05:6E,102.1369857788086,-20.8344669342041,34.543392181396484,6.381809234619141,-2.984405517578125,-0.19159221649169922,1373.7273302078247
D4:22:CD:00:05:5E,177.03707885742188,-27.38829231262207,-77.52802276611328,5.86107063293457,-4.861848831176758,1.5016355514526367,1373.7273302078247
D4:22:CD:00:05:5D,163.50462341308594,-27.152620315551758,-143.7578125,-15.693225860595703,-10.379934310913086,1.0977649688720703,1373.7574598789215
D4:22:CD:00:05:6B,-91.27570343017578,-32.862545013427734,21.104902267456055,11.478559494018555,12.30340576171875,6.851436614990234,1373.7574598789215
D4:22:CD:00:49:AA,-161.75047302246094,-69.62262725830078,79.68635559082031,-5.992082595825195,-2.4096436500549316,5.317893981933594,1373.7574598789215
D4:22:CD:00:05:6E,99.02061462402344,-12.63172721862793,36.582923889160156,13.87431526184082,-2.571071147918701,18.409305572509766,1373.7574598789215
D4:22:CD:00:05:5E,175.03562927246094,-24.47865867614746,-80.28169250488281,2.5028834342956543,-4.968534469604492,1.6375532150268555,1373.7574598789215
D4:22:CD:00:05:5D,163.9669647216797,-26.980892181396484,-142.37762451171875,-20.85907745361328,-9.08281135559082,9.730081558227539,1373.7874591350555
D4:22:CD:00:05:6B,-92.9838638305664,-45.319801330566406,26.700389862060547,39.333351135253906,22.805828094482422,29.061569213867188,1373.7874591350555
D4:22:CD:00:49:AA,-163.3685302734375,-69.69806671142578,79.32109069824219,1.853773832321167,2.162285327911377,10.504806518554688,1373.7874591350555
D4:22:CD:00:05:6E,94.45220184326172,-1.8178198337554932,40.280723571777344,32.23530578613281,-0.27230316400527954,22.520267486572266,1373.7874591350555
D4:22:CD:00:05:5E,173.52174377441406,-23.643932342529297,-80.87300109863281,2.763021945953369,-5.448727607727051,0.3604927062988281,1373.7874591350555
D4:22:CD:00:05:5D,165.06199645996094,-24.876850128173828,-139.7982940673828,-22.553272247314453,-8.216182708740234,18.066761016845703,1373.8167872428894
D4:22:CD:00:05:6B,-94.74778747558594,-45.70454788208008,25.74480438232422,26.790863037109375,1.786362648010254,7.810049057006836,1373.8167872428894
D4:22:CD:00:49:AA,-165.06065368652344,-69.00470733642578,79.22032928466797,5.492659568786621,2.634852886199951,11.800569534301758,1373.8167872428894
D4:22:CD:00:05:6E,96.72186279296875,14.235798835754395,45.34177017211914,22.812747955322266,4.978684425354004,5.988347053527832,1373.8167872428894
D4:22:CD:00:05:5E,172.53872680664062,-24.09306526184082,-79.89196014404297,1.4410576820373535,-4.567116737365723,0.7948789596557617,1373.8167872428894
D4:22:CD:00:05:5D,161.68251037597656,-19.98227882385254,-137.61647033691406,-9.43685531616211,-7.992288589477539,12.55078125,1373.8472990989685
D4:22:CD:00:05:6B,-91.27100372314453,-37.79463577270508,19.732479095458984,17.04050064086914,6.557385444641113,16.100723266601562,1373.8472990989685
D4:22:CD:00:49:AA,-168.31277465820312,-70.28768157958984,79.8205795288086,6.650824546813965,2.3279166221618652,5.195644378662109,1373.8472990989685
D4:22:CD:00:05:6E,101.73907470703125,31.099971771240234,48.125244140625,16.200580596923828,-3.3986430168151855,1.645707130432129,1373.8472990989685
D4:22:CD:00:05:5E,171.4603729248047,-26.049646377563477,-78.91827392578125,-0.3531252145767212,-4.532933235168457,1.1805191040039062,1373.8472990989685
D4:22:CD:00:05:5D,162.41905212402344,-14.730923652648926,-137.93919372558594,-9.53611946105957,-7.463212013244629,9.648500442504883,1373.8774325847626
D4:22:CD:00:05:6B,-88.7894515991211,-32.690185546875,13.770169258117676,11.045284271240234,3.5884876251220703,6.834692001342773,1373.8774325847626
D4:22:CD:00:49:AA,-172.72535705566406,-71.31158447265625,82.77860260009766,6.762059211730957,2.7720813751220703,8.797260284423828,1373.8774325847626
D4:22:CD:00:05:6E,104.3094253540039,45.7900276184082,48.918190002441406,14.345531463623047,-2.3220720291137695,1.7316408157348633,1373.8774325847626
D4:22:CD:00:05:5E,169.5549774169922,-29.50945281982422,-78.19685363769531,1.1031999588012695,-5.671274185180664,2.10223388671875,1373.8774325847626
D4:22:CD:00:05:5D,159.30552673339844,-11.535269737243652,-139.4845428466797,-5.384023666381836,-1.980987548828125,2.1496686935424805,1373.9071872234344
D4:22:CD:00:05:6B,-92.86238098144531,-31.792699813842773,9.751303672790527,0.26321911811828613,2.4315567016601562,-0.5321950912475586,1373.9071872234344
D4:22:CD:00:49:AA,-178.82827758789062,-72.0408706665039,86.12555694580078,5.718652725219727,1.7193496227264404,5.810990333557129,1373.9071872234344
D4:22:CD:00:05:6E,102.76707458496094,56.707149505615234,50.857574462890625,9.271673202514648,8.399272918701172,4.442005157470703,1373.9071872234344
D4:22:CD:00:05:5E,167.65245056152344,-35.63179016113281,-75.91790771484375,0.9670583009719849,-19.554691314697266,5.579928398132324,1373.9071872234344
D4:22:CD:00:05:5D,158.51608276367188,-11.26072883605957,-140.49000549316406,-2.0021891593933105,-0.7601431608200073,-11.25814437866211,1373.9671561717987
D4:22:CD:00:05:6B,-99.27725219726562,-34.72153854370117,7.613193511962891,-4.692974090576172,5.131543159484863,-0.18747901916503906,1373.9671561717987
D4:22:CD:00:49:AA,174.7006378173828,-72.8045883178711,89.82414245605469,3.205386161804199,0.774969220161438,0.6519498825073242,1373.9671561717987
D4:22:CD:00:05:6E,96.84376525878906,65.25518798828125,56.823795318603516,0.09362292289733887,13.565404891967773,0.4009218215942383,1373.9671561717987
D4:22:CD:00:05:5E,172.46994018554688,-43.050079345703125,-71.55126190185547,-2.389923572540283,-7.249330520629883,2.0537805557250977,1373.9671561717987
D4:22:CD:00:05:5D,160.04257202148438,-15.266508102416992,-140.6156463623047,-2.4808573722839355,-0.03969293832778931,-18.664016723632812,1373.9973952770233
D4:22:CD:00:05:6B,-105.37439727783203,-40.0855598449707,7.26726770401001,-6.281452178955078,6.107510566711426,-3.3824124336242676,1373.9973952770233
D4:22:CD:00:49:AA,169.91534423828125,-72.87660217285156,92.12680053710938,-0.04052870720624924,-0.5357543230056763,-4.273260116577148,1373.9973952770233
D4:22:CD:00:05:6E,94.0817642211914,72.67112731933594,68.87594604492188,-3.8794326782226562,0.7772380113601685,-8.389907836914062,1373.9973952770233
D4:22:CD:00:05:5E,175.52487182617188,-44.53131103515625,-67.85010528564453,-5.178123474121094,8.380578994750977,1.2628870010375977,1373.9973952770233
D4:22:CD:00:05:5D,161.16407775878906,-23.96339225769043,-140.49734497070312,-5.462912559509277,0.2948962450027466,-20.304973602294922,1374.0269765853882
D4:22:CD:00:05:6B,-113.1998291015625,-45.07615661621094,8.411471366882324,-6.5302839279174805,6.785478591918945,-4.958920478820801,1374.0269765853882
D4:22:CD:00:49:AA,171.5480499267578,-72.46944427490234,89.58834838867188,-2.7779746055603027,-0.32204484939575195,-8.327051162719727,1374.0269765853882
D4:22:CD:00:05:6E,114.8316650390625,77.5089340209961,97.42884063720703,-1.7817096710205078,-4.024348258972168,-9.768409729003906,1374.0269765853882
D4:22:CD:00:05:5E,171.24264526367188,-43.98771286010742,-64.96531677246094,6.2393646240234375,-6.464038848876953,-14.958211898803711,1374.0269765853882
D4:22:CD:00:05:5D,159.41534423828125,-36.718631744384766,-140.2153778076172,-7.224214553833008,-0.9685424566268921,-16.644527435302734,1374.057228565216
D4:22:CD:00:05:6B,-116.67573547363281,-49.50178527832031,9.287239074707031,-3.692178726196289,8.745899200439453,-6.410187721252441,1374.057228565216
D4:22:CD:00:49:AA,175.0728302001953,-72.91526794433594,86.4209213256836,-1.507394552230835,1.896042823791504,-9.996742248535156,1374.057228565216
D4:22:CD:00:05:6E,152.27345275878906,76.56256866455078,135.2637939453125,-1.5450730323791504,0.2032707929611206,-8.37904167175293,1374.057228565216
D4:22:CD:00:05:5E,172.03915405273438,-46.31626510620117,-62.91627502441406,5.176301002502441,2.1425061225891113,0.4673957824707031,1374.057228565216
D4:22:CD:00:05:5D,156.8969268798828,-51.64995574951172,-139.618896484375,-4.913016319274902,-1.0424165725708008,-7.453774452209473,1374.0873980522156
D4:22:CD:00:05:6B,-115.99755859375,-52.68450927734375,8.149645805358887,-1.7690558433532715,4.452392578125,-8.900308609008789,1374.0873980522156
D4:22:CD:00:49:AA,176.3346710205078,-73.99139404296875,84.22293090820312,2.7704639434814453,1.8133559226989746,-7.746757507324219,1374.0873980522156
D4:22:CD:00:05:6E,175.92689514160156,71.2240219116211,154.73878479003906,-1.804229736328125,2.892571449279785,-8.54090690612793,1374.0873980522156
D4:22:CD:00:05:5E,169.24114990234375,-46.875160217285156,-62.755985260009766,1.2495596408843994,-0.34415239095687866,-2.6197280883789062,1374.0873980522156
D4:22:CD:00:05:5D,153.09671020507812,-68.676025390625,-137.41505432128906,-4.086806297302246,-0.9860364198684692,2.8594141006469727,1374.1174726486206
D4:22:CD:00:05:6B,-116.14292907714844,-53.76765060424805,5.975072383880615,-2.1270437240600586,1.163799524307251,-10.064193725585938,1374.1174726486206
D4:22:CD:00:49:AA,175.08055114746094,-74.75686645507812,83.85553741455078,2.150181293487549,-0.047130607068538666,-6.072813034057617,1374.1174726486206
D4:22:CD:00:05:6E,-174.25497436523438,64.84294891357422,161.43101501464844,-0.387279748916626,6.432577133178711,-8.098739624023438,1374.1174726486206
D4:22:CD:00:05:5E,165.16404724121094,-46.651885986328125,-63.46441650390625,-4.538552284240723,-3.512701988220215,-3.555065631866455,1374.1174726486206
D4:22:CD:00:05:5D,118.5043716430664,-85.66072082519531,-101.25878143310547,8.029449462890625,1.1365880966186523,14.648641586303711,1374.1470503807068
D4:22:CD:00:05:6B,-116.22684478759766,-53.735809326171875,4.159842491149902,-1.1001472473144531,3.811163902282715,-9.204069137573242,1374.1470503807068
D4:22:CD:00:49:AA,175.79193115234375,-75.28248596191406,83.28095245361328,-1.4303638935089111,1.1116387844085693,-3.445335865020752,1374.1470503807068
D4:22:CD:00:05:6E,-175.53631591796875,57.521141052246094,161.95233154296875,0.025382645428180695,4.598385810852051,-8.850351333618164,1374.1470503807068
D4:22:CD:00:05:5E,163.87136840820312,-46.575225830078125,-64.50902557373047,-1.4930145740509033,-4.435120582580566,-3.1432089805603027,1374.1470503807068
D4:22:CD:00:05:5D,12.300909996032715,-77.3168716430664,13.881115913391113,22.445484161376953,11.563411712646484,12.793529510498047,1374.1771039962769
D4:22:CD:00:05:6B,-117.36898803710938,-53.95751953125,3.6038780212402344,0.6842987537384033,5.149333953857422,-7.807417869567871,1374.1771039962769
D4:22:CD:00:49:AA,-179.21731567382812,-75.72361755371094,80.13665771484375,-1.4089860916137695,-1.1492383480072021,-3.6448721885681152,1374.1771039962769
D4:22:CD:00:05:6E,173.3831787109375,48.3036003112793,157.17422485351562,-1.815788984298706,2.074002742767334,-7.524354934692383,1374.1771039962769
D4:22:CD:00:05:5E,163.67276000976562,-46.52642822265625,-66.11122131347656,3.3243021965026855,-7.0858964920043945,-2.35123872756958,1374.1771039962769
D4:22:CD:00:05:5D,9.832497596740723,-70.97602081298828,17.36969757080078,17.488922119140625,21.633007049560547,-21.448753356933594,1374.2074863910675
D4:22:CD:00:05:6B,-118.079833984375,-55.625457763671875,2.894855260848999,3.725107192993164,10.440458297729492,-8.44101333618164,1374.2074863910675
D4:22:CD:00:49:AA,-171.72933959960938,-75.28255462646484,75.78731536865234,4.396060943603516,-3.7644405364990234,-1.517984390258789,1374.2074863910675
D4:22:CD:00:05:6E,154.2385711669922,37.28558349609375,148.84780883789062,-8.912910461425781,9.854333877563477,-3.083225727081299,1374.2074863910675
D4:22:CD:00:05:5E,163.5940704345703,-46.3968505859375,-68.6194839477539,-0.004996855743229389,-10.264778137207031,1.3776636123657227,1374.2074863910675
D4:22:CD:00:05:5D,16.935550689697266,-74.4693832397461,9.009390830993652,15.205947875976562,-5.027626037597656,-8.849145889282227,1374.267694234848
D4:22:CD:00:05:6B,-119.58100128173828,-57.68099594116211,1.1912897825241089,2.7365493774414062,7.425016403198242,-5.488715171813965,1374.267694234848
D4:22:CD:00:49:AA,-168.9290008544922,-75.8104476928711,75.83045196533203,6.510371208190918,0.7332534790039062,4.86845588684082,1374.267694234848
D4:22:CD:00:05:6E,134.580322265625,30.285612106323242,142.63490295410156,-3.2898712158203125,-5.697426795959473,-4.300668716430664,1374.267694234848
D4:22:CD:00:05:5E,166.4425811767578,-47.0633430480957,-71.3555679321289,1.4170036315917969,-9.0050048828125,1.4323616027832031,1374.267694234848
D4:22:CD:00:05:5D,61.06999969482422,-79.83287048339844,-23.802520751953125,-3.9769577980041504,-11.895103454589844,14.183074951171875,1374.2972259521484
D4:22:CD:00:05:6B,-120.54983520507812,-58.576438903808594,2.2495830059051514,-0.6011006832122803,7.8202619552612305,-2.741701602935791,1374.2972259521484
D4:22:CD:00:49:AA,-168.9931640625,-75.31478881835938,77.28353881835938,4.861017227172852,-1.7397441864013672,4.6732282638549805,1374.2972259521484
D4:22:CD:00:05:6E,131.5565185546875,33.42290496826172,142.6845703125,8.285100936889648,-5.0268049240112305,-4.345663070678711,1374.2972259521484
D4:22:CD:00:05:5E,170.2816925048828,-48.222900390625,-74.65372467041016,2.3385562896728516,-11.558736801147461,3.365936279296875,1374.2972259521484
D4:22:CD:00:05:5D,89.61537170410156,-81.46894073486328,-50.98484802246094,0.21241506934165955,-7.207143783569336,7.084939956665039,1374.3277385234833
D4:22:CD:00:05:6B,-122.34718322753906,-58.988609313964844,8.734379768371582,3.1974549293518066,7.71175479888916,2.2912044525146484,1374.3277385234833
D4:22:CD:00:49:AA,-167.49441528320312,-74.67662048339844,78.3551025390625,2.4710440635681152,-2.9212427139282227,5.348858833312988,1374.3277385234833
D4:22:CD:00:05:6E,142.90887451171875,39.85026168823242,144.40353393554688,1.4349753856658936,1.8455109596252441,-3.218276023864746,1374.3277385234833
D4:22:CD:00:05:5E,177.05364990234375,-50.12973403930664,-78.35191345214844,0.4517683982849121,-12.52640151977539,-0.9890708923339844,1374.3277385234833
D4:22:CD:00:05:5D,119.90624237060547,-80.62139129638672,-79.26719665527344,-3.325084686279297,-1.9804527759552002,5.012655258178711,1374.357738494873
D4:22:CD:00:05:6B,-129.05404663085938,-59.00939178466797,19.989648818969727,5.689601898193359,9.335777282714844,11.18558120727539,1374.357738494873
D4:22:CD:00:49:AA,-168.7962188720703,-74.15642547607422,82.81019592285156,-0.1751798391342163,0.4875029921531677,2.393458366394043,1374.357738494873
D4:22:CD:00:05:6E,143.4977264404297,50.3238525390625,144.50582885742188,-2.7003560066223145,7.085685729980469,1.4039230346679688,1374.357738494873
D4:22:CD:00:05:5E,-173.46163940429688,-50.044395446777344,-82.95767211914062,-9.98979377746582,-9.278759002685547,3.190143585205078,1374.357738494873
D4:22:CD:00:05:5D,140.68624877929688,-79.53931427001953,-94.89198303222656,-5.446836471557617,17.28650665283203,2.625828742980957,1374.3871517181396
D4:22:CD:00:05:6B,-132.4914093017578,-57.29710388183594,27.499753952026367,4.332442283630371,10.311704635620117,9.048795700073242,1374.3871517181396
D4:22:CD:00:49:AA,-170.3661346435547,-73.09001922607422,88.58404541015625,-6.804818153381348,-0.47051310539245605,-1.3515748977661133,1374.3871517181396
D4:22:CD:00:05:6E,140.1811065673828,67.15908813476562,140.06105041503906,-7.142403602600098,14.39434814453125,-7.869546890258789,1374.3871517181396
D4:22:CD:00:05:5E,-167.19984436035156,-44.693153381347656,-84.26721954345703,-20.116443634033203,9.745330810546875,19.272796630859375,1374.3871517181396
D4:22:CD:00:05:5D,154.7087860107422,-79.11299133300781,-107.69446563720703,0.6330512762069702,-1.1505732536315918,1.301915168762207,1374.4175624847412
D4:22:CD:00:05:6B,-128.82383728027344,-54.54448699951172,28.156343460083008,4.259331703186035,4.101716041564941,2.786008834838867,1374.4175624847412
D4:22:CD:00:49:AA,-170.3907928466797,-70.7562026977539,94.0976333618164,-4.025983810424805,1.5006275177001953,-4.076968193054199,1374.4175624847412
D4:22:CD:00:05:6E,71.71952819824219,82.70620727539062,74.39630889892578,-16.112869262695312,7.695183753967285,-3.4481325149536133,1374.4175624847412
D4:22:CD:00:05:5E,-168.87240600585938,-32.9708251953125,-81.95170593261719,-12.864358901977539,-1.2067911624908447,10.557498931884766,1374.4175624847412
D4:22:CD:00:05:5D,169.355712890625,-78.67901611328125,-122.09256744384766,0.1565323770046234,0.08048231899738312,0.5558891296386719,1374.4476284980774
D4:22:CD:00:05:6B,-124.24484252929688,-51.750999450683594,25.932050704956055,3.455416679382324,0.6164031028747559,-1.6097393035888672,1374.4476284980774
D4:22:CD:00:49:AA,-172.89694213867188,-69.47612762451172,98.98905181884766,3.630558490753174,2.931338310241699,2.412382125854492,1374.4476284980774
D4:22:CD:00:05:6E,-9.921219825744629,63.7276611328125,-1.8677444458007812,-5.98243522644043,-0.6822478771209717,-28.544048309326172,1374.4476284980774
D4:22:CD:00:05:5E,-172.3223876953125,-21.48223304748535,-77.54434967041016,-7.648617744445801,-2.976616382598877,-4.836003303527832,1374.4476284980774
D4:22:CD:00:05:5D,178.69424438476562,-78.07107543945312,-133.38998413085938,1.5782265663146973,0.4800662398338318,1.076024055480957,1374.4776310920715
D4:22:CD:00:05:6B,-123.36801147460938,-50.22828674316406,24.284788131713867,1.003725528717041,-0.6822348833084106,-1.805476188659668,1374.4776310920715
D4:22:CD:00:49:AA,-176.5174560546875,-69.01603698730469,103.08964538574219,-0.1212468296289444,0.8424006700515747,2.314084053039551,1374.4776310920715
D4:22:CD:00:05:6E,-23.037494659423828,39.67496871948242,-14.254270553588867,27.277423858642578,-21.346088409423828,-9.687334060668945,1374.4776310920715
D4:22:CD:00:05:5E,-173.13978576660156,-12.500506401062012,-72.66127014160156,-0.5420188903808594,3.1205310821533203,-12.101215362548828,1374.4776310920715
D4:22:CD:00:05:5D,-176.59121704101562,-77.22587585449219,-138.93345642089844,1.5703167915344238,-0.7849355936050415,0.3124580383300781,1374.5076291561127
D4:22:CD:00:05:6B,-125.93834686279297,-50.88069534301758,24.29595947265625,-2.0778164863586426,1.3417329788208008,-1.4719276428222656,1374.5076291561127
D4:22:CD:00:49:AA,-179.04656982421875,-68.42134094238281,107.02322387695312,-6.39720344543457,1.1714134216308594,2.4213943481445312,1374.5076291561127
D4:22:CD:00:05:6E,-12.749601364135742,22.908903121948242,-22.638324737548828,5.9717817306518555,-20.757568359375,5.356806755065918,1374.5076291561127
D4:22:CD:00:05:5E,-173.78916931152344,-5.825751304626465,-68.04701232910156,0.8485150337219238,7.104605674743652,-10.356250762939453,1374.5076291561127
D4:22:CD:00:05:5D,-172.65341186523438,-76.90290832519531,-142.7401580810547,-0.017309289425611496,1.4173634052276611,0.6497411727905273,1374.5682909488678
D4:22:CD:00:05:6B,-129.75015258789062,-52.50480270385742,25.36790657043457,-3.197512149810791,3.984675884246826,-0.8296661376953125,1374.5682909488678
D4:22:CD:00:49:AA,179.19468688964844,-68.73887634277344,110.19674682617188,-1.3843073844909668,0.5966076850891113,1.1094131469726562,1374.5682909488678
D4:22:CD:00:05:6E,1.9891709089279175,13.68382740020752,-28.90074348449707,12.344596862792969,17.046958923339844,-6.399753570556641,1374.5682909488678
D4:22:CD:00:05:5E,-174.74575805664062,-1.4779666662216187,-63.159366607666016,4.372783660888672,4.53652286529541,-7.680577278137207,1374.5682909488678
D4:22:CD:00:05:5D,-167.81027221679688,-76.84205627441406,-148.32366943359375,-2.1453256607055664,2.0067081451416016,0.6213340759277344,1374.5972974300385
D4:22:CD:00:05:6B,-132.9052734375,-54.21741485595703,26.11963653564453,-4.441371917724609,8.140125274658203,-1.2079334259033203,1374.5972974300385
D4:22:CD:00:49:AA,175.48060607910156,-69.18641662597656,114.50318908691406,1.2946605682373047,2.0523314476013184,-2.5859785079956055,1374.5972974300385
D4:22:CD:00:05:6E,4.096775531768799,11.110387802124023,-35.69132995605469,7.216250419616699,-1.60274076461792,5.449501991271973,1374.5972974300385
D4:22:CD:00:05:5E,-173.8885040283203,0.4353671073913574,-58.340267181396484,5.309457778930664,0.7201247215270996,-4.764447212219238,1374.5972974300385
D4:22:CD:00:05:5D,-163.58718872070312,-76.45613861083984,-153.827880859375,0.2145804762840271,-0.9351274967193604,-0.3662891387939453,1374.6271607875824
D4:22:CD:00:05:6B,-133.79006958007812,-56.11341857910156,22.295333862304688,-2.635441303253174,10.506786346435547,-3.971020221710205,1374.6271607875824
D4:22:CD:00:49:AA,169.4196014404297,-69.23017120361328,119.73139953613281,1.6523301601409912,1.7214200496673584,-4.922975540161133,1374.6271607875824
D4:22:CD:00:05:6E,19.0078182220459,14.762757301330566,-41.045345306396484,-2.1818108558654785,-0.3895341157913208,0.13976764678955078,1374.6271607875824
D4:22:CD:00:05:5E,-172.80299377441406,0.1351800262928009,-54.23090744018555,6.015598297119141,-3.147984504699707,-4.349637031555176,1374.6271607875824
D4:22:CD:00:05:5D,-163.8934783935547,-75.54218292236328,-154.06349182128906,0.33575713634490967,-3.4652090072631836,-0.9351186752319336,1374.6569066047668
D4:22:CD:00:05:6B,-130.38694763183594,-58.866981506347656,14.184999465942383,-0.9157642126083374,3.5369391441345215,-4.249773979187012,1374.6569066047668
D4:22:CD:00:49:AA,162.67112731933594,-69.04779815673828,124.4710464477539,-0.45314615964889526,-0.2416703701019287,-6.084521293640137,1374.6569066047668
D4:22:CD:00:05:6E,42.046443939208984,18.947864532470703,-42.12738037109375,1.7699153423309326,10.538209915161133,-6.197446823120117,1374.6569066047668
D4:22:CD:00:05:5E,-172.1080780029297,-2.1796951293945312,-51.474090576171875,8.653770446777344,-6.199634552001953,-11.160041809082031,1374.6569066047668
D4:22:CD:00:05:5D,-169.50604248046875,-73.59530639648438,-146.7984619140625,1.394545316696167,-4.6408796310424805,-2.196150302886963,1374.6874725818634
D4:22:CD:00:05:6B,-124.48869323730469,-60.988468170166016,4.187281608581543,-0.7114359140396118,0.8441785573959351,-6.020024299621582,1374.6874725818634
D4:22:CD:00:49:AA,156.30958557128906,-68.49596405029297,128.7081756591797,-1.9438414573669434,-0.5195742845535278,-6.778053283691406,1374.6874725818634
D4:22:CD:00:05:6E,60.94102478027344,18.47359275817871,-40.04130935668945,5.643825531005859,5.514558792114258,-3.374788761138916,1374.6874725818634
D4:22:CD:00:05:5E,-169.86752319335938,-7.585055828094482,-50.3578987121582,10.268035888671875,-6.570524215698242,-17.912506103515625,1374.6874725818634
D4:22:CD:00:05:5D,-174.17459106445312,-70.58020782470703,-137.20692443847656,5.334569931030273,-3.1436495780944824,-2.715956211090088,1374.7175073623657
D4:22:CD:00:05:6B,-117.42156982421875,-62.09560012817383,-6.923264503479004,1.2651007175445557,0.2672649621963501,-8.554824829101562,1374.7175073623657
D4:22:CD:00:49:AA,151.02293395996094,-68.08336639404297,133.18089294433594,-2.665322780609131,-1.7396650314331055,-4.710140228271484,1374.7175073623657
D4:22:CD:00:05:6E,73.2172622680664,12.895061492919922,-35.31159973144531,6.151798248291016,-1.5139145851135254,-2.47823429107666,1374.7175073623657
D4:22:CD:00:05:5E,-166.3563690185547,-13.249981880187988,-49.29536819458008,-11.50070571899414,-12.284923553466797,65.49757385253906,1374.7175073623657
D4:22:CD:00:05:5D,-177.53945922851562,-66.8802719116211,-130.39285278320312,1.1747305393218994,-2.2162485122680664,-0.4217853546142578,1374.747041940689
D4:22:CD:00:05:6B,-111.9905776977539,-62.36520767211914,-17.843469619750977,1.4603538513183594,0.5087368488311768,-10.192981719970703,1374.747041940689
D4:22:CD:00:49:AA,145.8053741455078,-67.71180725097656,139.3878173828125,-0.8469759225845337,-0.25226014852523804,-1.5729436874389648,1374.747041940689
D4:22:CD:00:05:6E,74.74443817138672,2.1432266235351562,-28.071086883544922,12.969694137573242,0.39787358045578003,2.479555130004883,1374.747041940689
D4:22:CD:00:05:5E,-172.04852294921875,-13.340707778930664,-49.829368591308594,10.459587097167969,-13.698528289794922,-12.158035278320312,1374.747041940689
D4:22:CD:00:05:5D,179.4129180908203,-62.01068878173828,-123.1543197631836,-0.6998351812362671,2.4592599868774414,0.6202535629272461,1374.7773897647858
D4:22:CD:00:05:6B,-111.94380950927734,-61.8645133972168,-26.374164581298828,1.4239745140075684,0.3433982729911804,-10.117574691772461,1374.7773897647858
D4:22:CD:00:49:AA,139.12008666992188,-68.18658447265625,146.64157104492188,-3.0210609436035156,-2.3874359130859375,2.312302589416504,1374.7773897647858
D4:22:CD:00:05:6E,56.96144485473633,-12.031892776489258,-18.527385711669922,27.38579559326172,-5.080065727233887,7.773769378662109,1374.7773897647858
D4:22:CD:00:05:5E,-174.33213806152344,-12.996417045593262,-50.255802154541016,17.304428100585938,-19.50369644165039,-1.055943489074707,1374.7773897647858
D4:22:CD:00:05:5D,177.4490203857422,-56.74739074707031,-117.72328186035156,-2.7427849769592285,3.7215442657470703,1.279496192932129,1374.8075358867645
D4:22:CD:00:05:6B,-122.3641128540039,-59.83311462402344,-32.318023681640625,-5.02403450012207,6.966977119445801,-2.982034206390381,1374.8075358867645
D4:22:CD:00:49:AA,136.51141357421875,-68.420654296875,149.72430419921875,-0.2633671164512634,3.076864242553711,6.1236114501953125,1374.8075358867645
D4:22:CD:00:05:6E,34.03474044799805,-18.907718658447266,-8.593159675598145,34.05519104003906,-11.842229843139648,3.8887786865234375,1374.8075358867645
D4:22:CD:00:05:5E,-172.0915069580078,-10.6796293258667,-50.292476654052734,9.716438293457031,-21.734989166259766,0.33707427978515625,1374.8075358867645
