Device,EulerX,EulerY,EulerZ,FreeAccX,FreeAccY,FreeAccZ,Timestamp
D4:22:CD:00:05:5D,173.7312774658203,-55.439964294433594,-93.67632293701172,0.1917504072189331,1.942667007446289,2.8816089630126953,1343.6390450000763
D4:22:CD:00:05:6B,-53.713294982910156,8.339298248291016,-51.25780487060547,-2.709315776824951,-0.8671975135803223,6.397129058837891,1343.6390450000763
D4:22:CD:00:49:AA,149.69271850585938,-69.7927017211914,135.609619140625,-5.906351089477539,1.3525142669677734,6.911073684692383,1343.6390450000763
D4:22:CD:00:05:6E,94.95021057128906,6.193367004394531,6.807236194610596,6.759611129760742,7.895847320556641,-4.712635040283203,1343.6390450000763
D4:22:CD:00:05:5E,-168.2974853515625,9.108006477355957,-69.9499282836914,10.550113677978516,-2.6068925857543945,-8.852546691894531,1343.6390450000763
D4:22:CD:00:05:6B,-38.15767288208008,16.495113372802734,-44.87484359741211,-4.049036026000977,0.6879391670227051,-1.830134391784668,1343.647468805313
D4:22:CD:00:49:AA,154.15737915039062,-72.26673889160156,135.5106658935547,-0.9450395107269287,2.3780593872070312,4.454801559448242,1343.647468805313
D4:22:CD:00:05:6E,102.53095245361328,1.389962077140808,18.724546432495117,-1.3415777683258057,6.051299095153809,-1.0605039596557617,1343.647468805313
D4:22:CD:00:05:5E,-168.04356384277344,0.13077518343925476,-72.33479309082031,9.871841430664062,-1.3276453018188477,-11.73695182800293,1343.647468805313
D4:22:CD:00:05:5D,161.0952606201172,-48.40679168701172,-113.4255142211914,0.10673771798610687,-0.07664772868156433,1.3849058151245117,1343.6525976657867
D4:22:CD:00:49:AA,158.0907440185547,-74.62915802001953,135.2386016845703,-1.2161953449249268,1.4711134433746338,-1.2474336624145508,1343.6525976657867
D4:22:CD:00:05:6E,110.31678771972656,-5.138679027557373,29.083288192749023,-5.326369285583496,2.979123115539551,0.7799777984619141,1343.6525976657867
D4:22:CD:00:05:5E,-167.33975219726562,-13.575819969177246,-75.57698059082031,6.294523239135742,-5.245990753173828,-6.923610687255859,1343.6525976657867
D4:22:CD:00:05:5D,162.6780242919922,-47.58714294433594,-114.38536071777344,0.21922507882118225,0.44865328073501587,2.0493383407592773,1343.655600309372
D4:22:CD:00:05:6B,-58.81107711791992,0.15706554055213928,-57.807376861572266,-0.1634921133518219,-0.8474404811859131,33.722076416015625,1343.655600309372
D4:22:CD:00:05:5E,-166.8278045654297,-29.108278274536133,-79.15760040283203,-3.2889294624328613,-0.5909020900726318,4.117175102233887,1343.655600309372
D4:22:CD:00:05:5D,174.40234375,-54.06767654418945,-120.56269073486328,-1.2981207370758057,1.278695821762085,3.2437400817871094,1343.6615951061249
D4:22:CD:00:05:6B,-38.397464752197266,8.021475791931152,-35.559810638427734,-3.6256303787231445,-4.494704246520996,11.27522087097168,1343.6615951061249
D4:22:CD:00:49:AA,144.73526000976562,-66.93911743164062,138.79676818847656,-5.757776260375977,1.6151318550109863,6.396564483642578,1343.6615951061249
D4:22:CD:00:05:6E,137.39840698242188,3.5510387420654297,-28.574779510498047,-6.4860944747924805,-6.006826400756836,1.9563970565795898,1343.6615951061249
D4:22:CD:00:05:5D,176.08863830566406,-59.887332916259766,-121.30182647705078,-2.2310338020324707,-0.6384569406509399,7.975715637207031,1343.6975283622742
D4:22:CD:00:05:6B,-26.464147567749023,9.68761157989502,-32.89602279663086,-9.625608444213867,-14.860130310058594,10.264760971069336,1343.6975283622742
D4:22:CD:00:49:AA,162.6808319091797,-77.09221649169922,124.17848205566406,-6.621891021728516,-0.3879755735397339,3.644900321960449,1343.6975283622742
D4:22:CD:00:05:6E,123.57579803466797,2.8755223751068115,-28.354984283447266,-0.7220698595046997,-4.773584365844727,-4.111234664916992,1343.6975283622742
D4:22:CD:00:05:5E,-164.0213165283203,-46.08808135986328,-56.12836456298828,-1.2301805019378662,1.2259809970855713,-7.439046859741211,1343.6975283622742
D4:22:CD:00:05:5D,175.44032287597656,-66.44891357421875,-118.94232177734375,-2.9722976684570312,-13.742889404296875,8.157857894897461,1343.7525279521942
D4:22:CD:00:05:6B,-6.245871543884277,15.685997009277344,-35.51031494140625,-7.338504791259766,-9.86638069152832,-14.696603775024414,1343.7525279521942
D4:22:CD:00:49:AA,-145.03189086914062,-80.53227996826172,77.6115951538086,-1.2058050632476807,-1.2928354740142822,-1.5419893264770508,1343.7525279521942
D4:22:CD:00:05:6E,120.18666076660156,-3.3282856941223145,-23.822904586791992,2.9767656326293945,-16.82925033569336,0.23067951202392578,1343.7525279521942
D4:22:CD:00:05:5E,-165.6984100341797,-47.338253021240234,-56.344058990478516,-0.03245273977518082,3.2907042503356934,-7.406887054443359,1343.7525279521942
D4:22:CD:00:05:5D,172.90843200683594,-74.09957885742188,-119.51913452148438,-6.321660041809082,-8.185585021972656,-1.3953208923339844,1343.7822306156158
D4:22:CD:00:05:6B,8.448275566101074,22.3232364654541,-42.44172668457031,-0.040001749992370605,4.386429786682129,-15.094667434692383,1343.7822306156158
D4:22:CD:00:49:AA,-119.17061614990234,-76.61644744873047,58.10209655761719,1.150545597076416,-1.2322003841400146,-5.439144134521484,1343.7822306156158
D4:22:CD:00:05:6E,117.61418914794922,-8.83523178100586,-14.117292404174805,0.651909589767456,-5.4798173904418945,0.4095172882080078,1343.7822306156158
D4:22:CD:00:05:5E,-159.9375762939453,-50.0933723449707,-61.847713470458984,3.2694950103759766,8.06600570678711,-6.273899078369141,1343.7822306156158
D4:22:CD:00:05:5D,164.9715118408203,-78.74862670898438,-115.73489379882812,10.463687896728516,-3.902085304260254,-11.948740005493164,1343.8122293949127
D4:22:CD:00:05:6B,14.755864143371582,28.129568099975586,-52.4719352722168,5.056577682495117,2.840737819671631,-9.49199104309082,1343.8122293949127
D4:22:CD:00:49:AA,-116.58675384521484,-73.5445556640625,59.11094284057617,6.411216735839844,3.033560276031494,-8.756853103637695,1343.8122293949127
D4:22:CD:00:05:6E,110.63401794433594,-8.976386070251465,-5.585258483886719,1.5006470680236816,-2.646731376647949,-5.045049667358398,1343.8122293949127
D4:22:CD:00:05:5E,-144.20469665527344,-51.86136245727539,-74.44148254394531,2.515594005584717,6.6125030517578125,-3.2655858993530273,1343.8122293949127
D4:22:CD:00:05:5D,163.9097137451172,-79.85454559326172,-106.10482788085938,-0.7229253053665161,-8.507926940917969,-6.492403984069824,1343.847267627716
D4:22:CD:00:05:6B,11.72107982635498,32.10736846923828,-64.82435607910156,4.245964050292969,-0.6096687316894531,-11.73813247680664,1343.847267627716
D4:22:CD:00:49:AA,-117.54620361328125,-73.79817199707031,60.097530364990234,2.982821464538574,0.0894375890493393,-11.532154083251953,1343.847267627716
D4:22:CD:00:05:6E,105.73551177978516,-6.858705520629883,0.9400615692138672,0.7002880573272705,2.037519931793213,-14.057151794433594,1343.847267627716
D4:22:CD:00:05:5E,-130.24851989746094,-52.2421760559082,-88.4430923461914,-1.3549258708953857,0.40230387449264526,-3.4373903274536133,1343.847267627716
D4:22:CD:00:05:5D,159.84463500976562,-82.54707336425781,-95.84100341796875,-1.792707920074463,-4.3133392333984375,-8.936134338378906,1343.8726081848145
D4:22:CD:00:05:6B,0.5344424843788147,33.24945068359375,-79.86608123779297,1.209378957748413,-4.94649600982666,-15.393819808959961,1343.8726081848145
D4:22:CD:00:49:AA,-114.1493911743164,-74.82665252685547,56.720970153808594,-2.50913667678833,-0.8816484212875366,-9.831830978393555,1343.8726081848145
D4:22:CD:00:05:6E,106.80274200439453,-5.705453395843506,5.778537273406982,-2.0681004524230957,1.8750669956207275,-13.193338394165039,1343.8726081848145
D4:22:CD:00:05:5E,-122.98280334472656,-52.674652099609375,-100.20137786865234,-7.1261491775512695,0.393989622592926,-4.87705135345459,1343.8726081848145
D4:22:CD:00:05:5D,140.94546508789062,-85.35932159423828,-72.46927642822266,5.4015913009643555,7.463784217834473,-10.465953826904297,1343.9021618366241
D4:22:CD:00:05:6B,-14.431851387023926,31.053953170776367,-97.75128173828125,-6.8184309005737305,-15.666217803955078,-17.906661987304688,1343.9021618366241
D4:22:CD:00:49:AA,-107.95956420898438,-75.1784896850586,51.98586654663086,-1.1558034420013428,-0.5440551042556763,-7.749731063842773,1343.9021618366241
D4:22:CD:00:05:6E,106.45513153076172,-6.193729877471924,9.236379623413086,-1.3575613498687744,1.1582181453704834,-7.1658830642700195,1343.9021618366241
D4:22:CD:00:05:5E,-123.13053894042969,-52.24903106689453,-108.00659942626953,-9.200469970703125,0.023059606552124023,-4.551447868347168,1343.9021618366241
D4:22:CD:00:05:5D,142.0142822265625,-82.07957458496094,-68.34426879882812,0.9153963327407837,36.29046630859375,-4.43717098236084,1343.9322340488434
D4:22:CD:00:05:6B,-27.46600914001465,25.28204345703125,-114.8493423461914,-15.740989685058594,-21.628459930419922,-20.973201751708984,1343.9322340488434
D4:22:CD:00:49:AA,-101.05613708496094,-75.1612777709961,47.041099548339844,0.13293415307998657,-0.9069925546646118,-7.156688690185547,1343.9322340488434
D4:22:CD:00:05:6E,103.07217407226562,-7.782372951507568,11.538712501525879,0.9353455305099487,-0.2536765933036804,-7.025930404663086,1343.9322340488434
D4:22:CD:00:05:5E,-127.34342956542969,-51.25897979736328,-113.04950714111328,-7.864127159118652,-1.42122483253479,-2.7568283081054688,1343.9322340488434
D4:22:CD:00:05:5D,150.29286193847656,-77.2719497680664,-73.5868911743164,-0.05297793447971344,-1.3209781646728516,-2.8089895248413086,1343.9672656059265
D4:22:CD:00:05:6B,-42.21086502075195,23.439434051513672,-117.30669403076172,14.287288665771484,11.65298843383789,-26.476032257080078,1343.9672656059265
D4:22:CD:00:49:AA,-93.43020629882812,-75.22816467285156,42.1197395324707,-0.6946518421173096,-0.8863315582275391,-4.671274185180664,1343.9672656059265
D4:22:CD:00:05:6E,101.08580017089844,-10.347493171691895,12.185379028320312,1.656620740890503,0.2748326063156128,-4.57332706451416,1343.9672656059265
D4:22:CD:00:05:5E,-129.746337890625,-51.29026412963867,-116.0873031616211,-11.503210067749023,0.8978854417800903,-3.0386924743652344,1343.9672656059265
D4:22:CD:00:05:5D,153.0501251220703,-72.56787109375,-75.16614532470703,5.115206718444824,-6.030300140380859,2.46401309967041,1344.0226876735687
D4:22:CD:00:05:6B,-58.523590087890625,30.788955688476562,-106.63935852050781,-15.786922454833984,0.6195693016052246,7.446565628051758,1344.0226876735687
D4:22:CD:00:49:AA,-90.97196960449219,-75.70079803466797,40.57656478881836,-0.06008341163396835,0.22047072649002075,0.2218341827392578,1344.0226876735687
D4:22:CD:00:05:6E,92.35359954833984,-14.263165473937988,8.095854759216309,3.802332878112793,-1.7887310981750488,0.7040748596191406,1344.0226876735687
D4:22:CD:00:05:5E,-133.91903686523438,-51.745384216308594,-115.1415023803711,-13.508697509765625,2.04362154006958,-2.13124942779541,1344.0226876735687
D4:22:CD:00:05:5D,154.28712463378906,-68.54080200195312,-74.40760040283203,-5.00071907043457,1.4045960903167725,5.744091987609863,1344.0276985168457
D4:22:CD:00:05:6B,-56.447383880615234,40.52617645263672,-90.25337982177734,-13.698760986328125,-21.01934814453125,-14.204080581665039,1344.0276985168457
D4:22:CD:00:49:AA,-92.8642349243164,-76.89924621582031,41.51322937011719,4.263422966003418,-1.7504298686981201,2.5268354415893555,1344.0276985168457
D4:22:CD:00:05:6E,80.87950134277344,-19.537771224975586,1.9513760805130005,14.70637321472168,-12.182304382324219,-1.845921516418457,1344.0276985168457
D4:22:CD:00:05:5E,-142.2957000732422,-51.08845138549805,-109.2970199584961,-11.9466552734375,-2.570758819580078,-2.717421054840088,1344.0276985168457
D4:22:CD:00:05:5D,152.0378875732422,-66.43339538574219,-71.37813568115234,-4.622805595397949,1.7911756038665771,6.253776550292969,1344.0827014446259
D4:22:CD:00:05:6B,-37.3856201171875,47.5734977722168,-66.90646362304688,-1.1885762214660645,-14.699419021606445,-20.801212310791016,1344.0827014446259
D4:22:CD:00:49:AA,-88.81595611572266,-78.2959213256836,36.14973449707031,-2.7313709259033203,-3.6596035957336426,6.349607467651367,1344.0827014446259
D4:22:CD:00:05:6E,80.775146484375,-24.30988311767578,0.037866149097681046,13.504083633422852,-10.954410552978516,9.325021743774414,1344.0827014446259
D4:22:CD:00:05:5E,-151.27796936035156,-47.74786376953125,-100.38539123535156,-16.41204833984375,1.2892324924468994,3.4266586303710938,1344.0827014446259
D4:22:CD:00:05:5D,147.84292602539062,-64.86356353759766,-66.87474822998047,0.24392950534820557,-1.3196532726287842,4.822512626647949,1344.1123208999634
D4:22:CD:00:05:6B,-21.30741310119629,48.36170196533203,-43.3842887878418,2.2074413299560547,-3.425065517425537,-15.72691535949707,1344.1123208999634
D4:22:CD:00:49:AA,-83.00527954101562,-79.38570404052734,30.085369110107422,-4.985165596008301,-4.355151176452637,6.530519485473633,1344.1123208999634
D4:22:CD:00:05:6E,77.25035858154297,-28.50640296936035,-0.026152493432164192,11.974260330200195,-3.092360019683838,4.432187080383301,1344.1123208999634
D4:22:CD:00:05:5E,-158.68533325195312,-44.34620666503906,-92.69319152832031,5.541569709777832,-19.701271057128906,-5.098332405090332,1344.1123208999634
D4:22:CD:00:05:5D,141.6347198486328,-63.74490737915039,-61.472660064697266,0.3528987765312195,2.342945098876953,2.182069778442383,1344.1423389911652
D4:22:CD:00:05:6B,-19.268692016601562,45.80229949951172,-28.54981803894043,-2.5301671028137207,4.364814758300781,1.6761760711669922,1344.1423389911652
D4:22:CD:00:49:AA,-83.45996856689453,-79.71925354003906,31.230066299438477,3.586489677429199,-0.9996106624603271,1.9319801330566406,1344.1423389911652
D4:22:CD:00:05:6E,75.63323974609375,-29.54720687866211,-1.2844544649124146,11.724365234375,-0.22816750407218933,-4.586956024169922,1344.1423389911652
D4:22:CD:00:05:5E,-162.31201171875,-43.10846710205078,-87.68983459472656,3.4530558586120605,-8.379411697387695,8.628654479980469,1344.1423389911652
D4:22:CD:00:05:5D,132.74771118164062,-63.680580139160156,-56.2546272277832,3.060972213745117,0.3810828924179077,2.5436649322509766,1344.1726331710815
D4:22:CD:00:05:6B,-29.48535919189453,43.60059356689453,-23.738466262817383,-5.851855278015137,16.46601104736328,15.444604873657227,1344.1726331710815
D4:22:CD:00:49:AA,-91.20521545410156,-79.38160705566406,37.280460357666016,6.023018836975098,0.9112313985824585,-1.8547334671020508,1344.1726331710815
D4:22:CD:00:05:6E,76.11767578125,-28.674875259399414,-2.9552483558654785,10.360860824584961,0.6497756242752075,-4.70909309387207,1344.1726331710815
D4:22:CD:00:05:5E,-170.5122528076172,-40.50698471069336,-83.92996978759766,5.761722564697266,-2.428466796875,-0.8003625869750977,1344.1726331710815
D4:22:CD:00:05:5D,121.58216094970703,-64.98475646972656,-50.5225715637207,6.629850387573242,-3.0060033798217773,3.3063440322875977,1344.2030818462372
D4:22:CD:00:05:6B,-49.11899948120117,42.072662353515625,-26.704051971435547,-5.858968734741211,21.84600067138672,12.188554763793945,1344.2030818462372
D4:22:CD:00:49:AA,-99.25221252441406,-78.5466537475586,41.327091217041016,7.688677787780762,1.201425552368164,0.08379650115966797,1344.2030818462372
D4:22:CD:00:05:6E,74.9732666015625,-28.127981185913086,-3.855502128601074,6.9818267822265625,1.4637916088104248,-3.6058545112609863,1344.2030818462372
D4:22:CD:00:05:5E,-175.95913696289062,-39.0252685546875,-80.09175872802734,1.466592788696289,-17.57488250732422,1.2647371292114258,1344.2030818462372
D4:22:CD:00:05:5D,107.22527313232422,-66.36871337890625,-49.198631286621094,18.1610107421875,5.239348411560059,-3.468566417694092,1344.23308467865
D4:22:CD:00:05:6B,-63.37993621826172,37.862060546875,-31.800752639770508,-11.031904220581055,13.284467697143555,4.676072120666504,1344.23308467865
D4:22:CD:00:49:AA,-104.32858276367188,-77.75922393798828,40.827354431152344,8.709342956542969,-0.2512053847312927,-0.5574064254760742,1344.23308467865
D4:22:CD:00:05:6E,76.01224517822266,-27.532426834106445,-3.860846757888794,6.142273902893066,3.3552331924438477,-3.0090537071228027,1344.23308467865
D4:22:CD:00:05:5E,-177.8889617919922,-37.386844635009766,-77.22233581542969,-1.806183099746704,-5.052828788757324,-1.0271387100219727,1344.23308467865
D4:22:CD:00:05:5D,113.42310333251953,-64.60588836669922,-66.1143798828125,23.13585662841797,18.49813461303711,4.9764251708984375,1344.267481803894
D4:22:CD:00:05:6B,-74.64655303955078,31.032480239868164,-30.97016716003418,-1.3067364692687988,3.009979724884033,13.012723922729492,1344.267481803894
D4:22:CD:00:49:AA,-109.82593536376953,-76.55632019042969,41.35309982299805,6.5628767013549805,-0.9536685943603516,3.493210792541504,1344.267481803894
D4:22:CD:00:05:6E,78.82875061035156,-27.095115661621094,-2.5415661334991455,8.327606201171875,2.4146437644958496,-0.4979238510131836,1344.267481803894
D4:22:CD:00:05:5E,-179.37318420410156,-37.089969635009766,-74.98033905029297,0.6653801202774048,-5.84007453918457,0.1281270980834961,1344.267481803894
D4:22:CD:00:05:5D,128.40408325195312,-58.053890228271484,-89.88664245605469,15.821542739868164,5.488837242126465,4.978886604309082,1344.298665523529
D4:22:CD:00:05:6B,-77.15556335449219,24.43796730041504,-25.31696319580078,0.9518928527832031,6.055288314819336,12.1800537109375,1344.298665523529
D4:22:CD:00:49:AA,-108.29115295410156,-76.69044494628906,36.64354705810547,3.7899317741394043,3.79732608795166,1.7059240341186523,1344.298665523529
D4:22:CD:00:05:6E,81.893310546875,-26.268707275390625,0.04244263842701912,6.734701156616211,4.650334358215332,1.8123369216918945,1344.298665523529
D4:22:CD:00:05:5E,-179.74221801757812,-38.187217712402344,-72.47393035888672,1.3208394050598145,-5.752060890197754,-0.8890419006347656,1344.298665523529
D4:22:CD:00:05:5D,139.9066619873047,-48.106605529785156,-108.72662353515625,4.100770950317383,-3.9020371437072754,1.2275724411010742,1344.327663898468
D4:22:CD:00:05:6B,-76.16522216796875,17.803380966186523,-15.605879783630371,3.886300563812256,0.744013786315918,3.255518913269043,1344.327663898468
D4:22:CD:00:49:AA,-108.72799682617188,-76.24526977539062,36.27424240112305,1.4586288928985596,3.341975688934326,-0.20656108856201172,1344.327663898468
D4:22:CD:00:05:6E,85.01954650878906,-24.7283992767334,2.6776793003082275,5.692401885986328,2.9084882736206055,-2.613892078399658,1344.327663898468
D4:22:CD:00:05:5E,-179.59205627441406,-39.132781982421875,-70.24546813964844,0.8721532821655273,-5.348748207092285,-1.2698259353637695,1344.327663898468
D4:22:CD:00:05:5D,148.5518035888672,-37.2774772644043,-121.25701904296875,-3.0568976402282715,-5.530946731567383,-4.648241996765137,1344.3821885585785
D4:22:CD:00:05:6B,-77.03926849365234,10.775595664978027,-3.2462716102600098,8.090999603271484,-0.34003734588623047,-1.5751829147338867,1344.3821885585785
D4:22:CD:00:49:AA,-110.56181335449219,-75.91844177246094,38.59466552734375,2.7926621437072754,1.049177646636963,-0.6969871520996094,1344.3821885585785
D4:22:CD:00:05:6E,89.50711822509766,-22.30877685546875,4.562875747680664,2.9181933403015137,1.5696794986724854,-5.111117362976074,1344.3821885585785
D4:22:CD:00:05:5E,-178.15158081054688,-39.63613510131836,-68.48239135742188,0.08858153223991394,-6.946568489074707,-2.1306729316711426,1344.3821885585785
D4:22:CD:00:05:5D,156.4504852294922,-27.5048828125,-128.774169921875,-6.382331848144531,-2.3515143394470215,-10.03663444519043,1344.4127469062805
D4:22:CD:00:05:6B,-77.23697662353516,2.340930938720703,8.655787467956543,10.315916061401367,2.124645709991455,-3.2351579666137695,1344.4127469062805
D4:22:CD:00:49:AA,-115.9915542602539,-75.98638916015625,44.83533477783203,4.458446502685547,1.1385776996612549,-3.508052349090576,1344.4127469062805
D4:22:CD:00:05:6E,94.00125885009766,-19.537126541137695,5.742490768432617,1.0526223182678223,0.8706746101379395,-5.690073013305664,1344.4127469062805
D4:22:CD:00:05:5E,-176.58616638183594,-38.96876525878906,-67.87371826171875,-1.762730598449707,-4.7734222412109375,-3.278902053833008,1344.4127469062805
D4:22:CD:00:05:5D,163.87359619140625,-20.70797348022461,-133.2351837158203,-5.421736717224121,-0.595645546913147,-9.711931228637695,1344.4424407482147
D4:22:CD:00:05:6B,-74.76998138427734,-7.53734016418457,18.381107330322266,8.881908416748047,4.190234184265137,-6.463324546813965,1344.4424407482147
D4:22:CD:00:49:AA,-121.2491226196289,-76.00178527832031,50.23893356323242,3.480982780456543,0.4885149598121643,-4.112841606140137,1344.4424407482147
D4:22:CD:00:05:6E,96.8043441772461,-17.185470581054688,6.628360271453857,0.6045665740966797,-0.3140391707420349,-5.872867584228516,1344.4424407482147
D4:22:CD:00:05:5E,-176.91317749023438,-37.05017852783203,-68.97793579101562,-1.5439891815185547,-3.8583483695983887,-3.169257164001465,1344.4424407482147
D4:22:CD:00:05:5D,165.8677520751953,-17.883384704589844,-136.6582794189453,-9.083463668823242,-1.694603443145752,-13.77541732788086,1344.4724481105804
D4:22:CD:00:05:6B,-71.67777252197266,-18.918535232543945,26.067848205566406,6.884592056274414,7.224172592163086,-6.3177642822265625,1344.4724481105804
D4:22:CD:00:49:AA,-122.79003143310547,-76.51780700683594,51.852012634277344,1.3592009544372559,0.4767998456954956,-4.533714294433594,1344.4724481105804
D4:22:CD:00:05:6E,99.18961334228516,-15.300076484680176,7.596357345581055,1.657289981842041,-1.8883605003356934,-3.2721266746520996,1344.4724481105804
D4:22:CD:00:05:5E,-178.3128204345703,-33.64967727661133,-71.87422180175781,-2.3071937561035156,-3.7194814682006836,-4.144640922546387,1344.4724481105804
D4:22:CD:00:05:5D,165.24290466308594,-20.704038619995117,-138.27891540527344,-11.983366012573242,-7.756560325622559,-19.853557586669922,1344.5025038719177
D4:22:CD:00:05:6B,-68.6268310546875,-30.52214241027832,31.250150680541992,8.856847763061523,11.477312088012695,-1.3402957916259766,1344.5025038719177
D4:22:CD:00:49:AA,-123.68733978271484,-76.79292297363281,52.973506927490234,2.007211685180664,1.406921625137329,-5.04941463470459,1344.5025038719177
D4:22:CD:00:05:6E,101.5710678100586,-13.384380340576172,9.11581039428711,5.435369491577148,-3.1025075912475586,3.2394113540649414,1344.5025038719177
D4:22:CD:00:05:5E,179.87496948242188,-29.74472999572754,-75.41786193847656,-2.4307470321655273,-5.4058427810668945,-2.434919834136963,1344.5025038719177
D4:22:CD:00:05:5D,167.22064208984375,-24.09018325805664,-138.2080535888672,1.5305862426757812,4.584887504577637,53.760169982910156,1344.5324895381927
D4:22:CD:00:05:6B,-64.34528350830078,-39.19010925292969,32.3492546081543,12.618644714355469,12.009014129638672,5.379219055175781,1344.5324895381927
D4:22:CD:00:49:AA,-128.93536376953125,-76.28038787841797,57.816280364990234,3.870838165283203,0.2931421399116516,-2.119508743286133,1344.5324895381927
D4:22:CD:00:05:6E,101.56353759765625,-9.648247718811035,12.287320137023926,12.340749740600586,-3.5726237297058105,13.364021301269531,1344.5324895381927
D4:22:CD:00:05:5E,179.28009033203125,-26.825199127197266,-77.7864761352539,2.044795036315918,-8.131006240844727,0.25511932373046875,1344.5324895381927
D4:22:CD:00:05:5D,172.41387939453125,-26.527652740478516,-137.0255126953125,-18.059947967529297,-15.398128509521484,-1.8556113243103027,1344.5670068264008
D4:22:CD:00:05:6B,-61.891597747802734,-40.299072265625,30.856306076049805,17.11481475830078,13.059539794921875,6.150274276733398,1344.5670068264008
D4:22:CD:00:49:AA,-133.45079040527344,-76.63664245605469,61.483463287353516,1.354938268661499,-1.9275894165039062,2.170271873474121,1344.5670068264008
D4:22:CD:00:05:6E,98.90148162841797,-1.8181792497634888,15.264402389526367,21.027042388916016,-5.178934097290039,22.54110336303711,1344.5670068264008
D4:22:CD:00:05:5E,178.62139892578125,-25.07138442993164,-78.6054458618164,3.623915672302246,-4.136447906494141,0.19052600860595703,1344.5670068264008
D4:22:CD:00:05:5D,173.52447509765625,-26.578039169311523,-134.99917602539062,-28.884681701660156,-7.419821739196777,12.527544021606445,1344.5974798202515
D4:22:CD:00:05:6B,-69.24612426757812,-31.257938385009766,28.007291793823242,24.109661102294922,7.593479156494141,17.920032501220703,1344.5974798202515
D4:22:CD:00:49:AA,-140.17611694335938,-76.59147644042969,67.17122650146484,3.618887424468994,-1.9766199588775635,7.788448333740234,1344.5974798202515
D4:22:CD:00:05:6E,92.82538604736328,11.677042007446289,14.965813636779785,17.120601654052734,-8.149534225463867,23.396831512451172,1344.5974798202515
D4:22:CD:00:05:5E,178.00234985351562,-25.02529525756836,-77.15836334228516,1.0518152713775635,-8.014841079711914,-1.0985336303710938,1344.5974798202515
D4:22:CD:00:05:5D,168.47694396972656,-22.601694107055664,-133.728759765625,-18.25171661376953,-4.510025978088379,13.935308456420898,1344.6274755001068
D4:22:CD:00:05:6B,-74.80620574951172,-18.445674896240234,20.822507858276367,24.324817657470703,3.102206230163574,12.939519882202148,1344.6274755001068
D4:22:CD:00:49:AA,-145.8365936279297,-75.53858947753906,71.67411041259766,-0.08958443999290466,-0.45207101106643677,5.396523475646973,1344.6274755001068
D4:22:CD:00:05:6E,77.12663269042969,28.482980728149414,6.633172988891602,19.381732940673828,-1.761780023574829,9.07249641418457,1344.6274755001068
D4:22:CD:00:05:5E,177.9873046875,-27.227779388427734,-73.93745422363281,0.7211357355117798,-6.061017990112305,1.0209178924560547,1344.6274755001068
D4:22:CD:00:05:5D,167.90628051757812,-16.970401763916016,-134.03074645996094,-10.878061294555664,-6.563694953918457,10.948331832885742,1344.6820006370544
D4:22:CD:00:05:6B,-82.64683532714844,-8.407480239868164,10.656280517578125,9.755424499511719,-2.9574503898620605,3.521674156188965,1344.6820006370544
D4:22:CD:00:49:AA,-149.55709838867188,-75.28230285644531,77.43537902832031,0.7381247282028198,2.413248062133789,8.10543441772461,1344.6820006370544
D4:22:CD:00:05:6E,51.05054473876953,40.23600387573242,-10.6774263381958,12.412105560302734,-11.917196273803711,-7.022062301635742,1344.6820006370544
D4:22:CD:00:05:5E,177.51356506347656,-30.311447143554688,-71.63306427001953,0.2348645031452179,-4.601456642150879,1.6184253692626953,1344.6820006370544
D4:22:CD:00:05:5D,166.34597778320312,-12.967036247253418,-135.00881958007812,-6.47251033782959,-0.1745595932006836,3.9502553939819336,1344.7121381759644
D4:22:CD:00:05:6B,-89.48640441894531,-5.905285358428955,0.7836862802505493,-6.691476821899414,-2.492865562438965,1.5155143737792969,1344.7121381759644
D4:22:CD:00:49:AA,-153.8700408935547,-75.33837890625,82.5818099975586,7.573635101318359,4.42106819152832,9.170282363891602,1344.7121381759644
D4:22:CD:00:05:6E,30.823766708374023,41.929840087890625,-24.020221710205078,1.2469704151153564,-5.180605888366699,1.809718132019043,1344.7121381759644
D4:22:CD:00:05:5E,174.6395263671875,-34.167293548583984,-69.9344482421875,1.280914545059204,-5.912559509277344,2.8183794021606445,1344.7121381759644
D4:22:CD:00:05:5D,165.27545166015625,-12.464696884155273,-135.82705688476562,-0.9564477205276489,1.5623648166656494,-7.630277633666992,1344.7426972389221
D4:22:CD:00:05:6B,-93.39693450927734,-10.818070411682129,-6.271484851837158,-9.413837432861328,1.345055103302002,-2.873027801513672,1344.7426972389221
D4:22:CD:00:49:AA,-156.40760803222656,-75.37020111083984,84.65937805175781,9.637632369995117,3.40371036529541,6.140896797180176,1344.7426972389221
D4:22:CD:00:05:6E,21.113550186157227,38.667755126953125,-25.970504760742188,1.2447400093078613,0.9599360227584839,0.22128582000732422,1344.7426972389221
D4:22:CD:00:05:5E,172.7578582763672,-40.143455505371094,-67.82548522949219,6.786314010620117,-19.784133911132812,0.9408159255981445,1344.7426972389221
D4:22:CD:00:05:5D,165.4577178955078,-16.49273109436035,-136.21168518066406,-1.24951171875,2.141928195953369,-16.345233917236328,1344.772717475891
D4:22:CD:00:05:6B,-95.57066345214844,-20.45375633239746,-10.548847198486328,-10.229528427124023,3.121527671813965,-4.837596893310547,1344.772717475891
D4:22:CD:00:49:AA,-159.28172302246094,-76.16915130615234,86.32504272460938,5.6981353759765625,1.390444040298462,2.4606313705444336,1344.772717475891
D4:22:CD:00:05:6E,18.998628616333008,35.540279388427734,-21.387248992919922,-0.2690814733505249,1.8416235446929932,-5.827337265014648,1344.772717475891
D4:22:CD:00:05:5E,176.6958770751953,-45.517425537109375,-66.8453140258789,0.01669507473707199,-7.522688865661621,1.6078615188598633,1344.772717475891
D4:22:CD:00:05:5D,163.9966583251953,-25.622352600097656,-136.21585083007812,-6.932982444763184,-1.5419864654541016,-25.115081787109375,1344.8025538921356
D4:22:CD:00:05:6B,-94.10038757324219,-31.294971466064453,-13.679498672485352,-7.3505964279174805,5.627181053161621,-2.4652552604675293,1344.8025538921356
D4:22:CD:00:49:AA,-164.7974853515625,-76.60774230957031,89.85700988769531,0.9647531509399414,-0.06564955413341522,-4.360929489135742,1344.8025538921356
D4:22:CD:00:05:6E,21.597888946533203,34.50239181518555,-11.974651336669922,3.1376242637634277,3.222057819366455,-10.586763381958008,1344.8025538921356
D4:22:CD:00:05:5E,177.32138061523438,-46.31950759887695,-68.75914001464844,-8.66352653503418,7.685915946960449,3.8245773315429688,1344.8025538921356
D4:22:CD:00:05:5D,161.38711547851562,-39.584014892578125,-135.87722778320312,-11.725334167480469,-6.019525527954102,-23.27042007446289,1344.8326375484467
D4:22:CD:00:05:6B,-87.49004364013672,-41.14194869995117,-18.003807067871094,-5.733046531677246,1.753873586654663,-8.9437255859375,1344.8326375484467
D4:22:CD:00:49:AA,-168.96255493164062,-75.86605834960938,92.87860870361328,-3.0795607566833496,-0.7994029521942139,-8.929899215698242,1344.8326375484467
D4:22:CD:00:05:6E,22.039575576782227,36.534236907958984,0.8762719035148621,6.342206954956055,8.498682022094727,-11.600675582885742,1344.8326375484467
D4:22:CD:00:05:5E,175.8592071533203,-43.0589599609375,-72.80393981933594,1.2663328647613525,-0.5615134239196777,-8.850767135620117,1344.8326375484467
D4:22:CD:00:05:5D,161.04652404785156,-59.32417678833008,-134.7580108642578,-12.158586502075195,-8.822771072387695,-6.217182159423828,1344.86776304245
D4:22:CD:00:05:6B,-84.71485137939453,-48.27082443237305,-21.708999633789062,-2.8599982261657715,-0.6052097082138062,-13.91624641418457,1344.86776304245
D4:22:CD:00:49:AA,-168.50860595703125,-75.2957992553711,92.53943634033203,-2.357379913330078,1.6372144222259521,-8.588951110839844,1344.86776304245
D4:22:CD:00:05:6E,21.911102294921875,41.289955139160156,16.900270462036133,8.597663879394531,0.525871753692627,-11.705902099609375,1344.86776304245
D4:22:CD:00:05:5E,174.0692901611328,-41.96083068847656,-76.11016845703125,-0.14143478870391846,-5.5621232986450195,-21.845802307128906,1344.86776304245
D4:22:CD:00:05:5D,164.70468139648438,-85.18533325195312,-138.97499084472656,0.9619282484054565,6.09127140045166,35.845733642578125,1344.8973824977875
D4:22:CD:00:05:6B,-87.98600006103516,-52.7836799621582,-23.05137062072754,-4.412142753601074,2.5038843154907227,-10.318037033081055,1344.8973824977875
D4:22:CD:00:49:AA,-166.93377685546875,-76.02171325683594,90.4259262084961,3.1943955421447754,2.925846576690674,-8.252431869506836,1344.8973824977875
D4:22:CD:00:05:6E,32.15858840942383,47.139015197753906,37.74668502807617,9.10106086730957,8.086498260498047,-15.623668670654297,1344.8973824977875
D4:22:CD:00:05:5E,169.0336456298828,-42.47299575805664,-77.12381744384766,-0.6927330493927002,10.043561935424805,12.549121856689453,1344.8973824977875
D4:22:CD:00:05:5D,-19.768592834472656,-72.19917297363281,46.018898010253906,24.732707977294922,11.753179550170898,21.908199310302734,1344.9523844718933
D4:22:CD:00:05:6B,-89.61351013183594,-56.0904426574707,-23.376691818237305,-3.5414652824401855,4.701346397399902,-8.590215682983398,1344.9523844718933
D4:22:CD:00:49:AA,-167.47186279296875,-77.76741027832031,88.76559448242188,3.4793362617492676,1.8526637554168701,-11.395620346069336,1344.9523844718933
D4:22:CD:00:05:6E,51.25743865966797,50.60443115234375,64.63455963134766,5.198450088500977,11.94797134399414,-20.994117736816406,1344.9523844718933
D4:22:CD:00:05:5E,165.93202209472656,-41.563961029052734,-77.3590087890625,-4.510030746459961,-5.751672744750977,-7.472940444946289,1344.9523844718933
D4:22:CD:00:05:5D,-9.73198413848877,-67.20819854736328,38.41714859008789,10.155223846435547,16.078197479248047,-31.472026824951172,1344.9819521903992
D4:22:CD:00:05:6B,-90.19287109375,-59.030921936035156,-22.201284408569336,-0.1332768201828003,2.3054556846618652,-10.104305267333984,1344.9819521903992
D4:22:CD:00:49:AA,-167.69700622558594,-78.76746368408203,87.22220611572266,-0.9848045110702515,-1.0952224731445312,-10.30137825012207,1344.9819521903992
D4:22:CD:00:05:6E,81.59618377685547,48.858253479003906,92.3175277709961,-2.360441207885742,4.424500465393066,-28.09954071044922,1344.9819521903992
D4:22:CD:00:05:5E,165.21038818359375,-40.250701904296875,-78.45654296875,0.7357064485549927,-6.855834007263184,-5.499316215515137,1344.9819521903992
D4:22:CD:00:05:5D,5.975564002990723,-71.95571899414062,25.925451278686523,7.728362083435059,7.8037109375,-9.841577529907227,1345.012053012848
D4:22:CD:00:05:6B,-95.54156494140625,-62.403873443603516,-17.2722225189209,0.9915931224822998,2.9238600730895996,-7.17242431640625,1345.012053012848
D4:22:CD:00:49:AA,-165.88165283203125,-76.26996612548828,83.8870620727539,5.159887313842773,-4.853219985961914,-0.3004493713378906,1345.012053012848
D4:22:CD:00:05:6E,122.21212768554688,46.119022369384766,107.6823501586914,-16.72772216796875,-4.240640640258789,0.014856338500976562,1345.012053012848
D4:22:CD:00:05:5E,163.45692443847656,-38.54682922363281,-81.50238800048828,-0.24671000242233276,-11.21697998046875,0.10854530334472656,1345.012053012848
D4:22:CD:00:05:5D,41.699405670166016,-76.60358428955078,-4.059925079345703,9.378231048583984,3.2652149200439453,2.046733856201172,1345.0427808761597
D4:22:CD:00:05:6B,-105.41431427001953,-67.0680160522461,-6.194332122802734,1.3593971729278564,3.3641510009765625,-2.8839049339294434,1345.0427808761597
D4:22:CD:00:49:AA,-167.2577362060547,-75.39215850830078,83.99504852294922,2.05631685256958,1.8686885833740234,7.937768936157227,1345.0427808761597
D4:22:CD:00:05:6E,160.9048309326172,48.584835052490234,119.35301971435547,1.7390148639678955,6.030473709106445,0.23738574981689453,1345.0427808761597
D4:22:CD:00:05:5E,165.57684326171875,-37.70127868652344,-84.6239242553711,-1.4553589820861816,-11.423095703125,1.235891342163086,1345.0427808761597
D4:22:CD:00:05:5D,84.91725158691406,-77.27971649169922,-39.2252311706543,-5.098621368408203,-15.91695785522461,2.478011131286621,1345.0727841854095
D4:22:CD:00:05:6B,-118.02706146240234,-71.5661392211914,7.7608232498168945,4.1918487548828125,27.083675384521484,14.564420700073242,1345.0727841854095
D4:22:CD:00:49:AA,-167.5744171142578,-75.17159271240234,85.21520233154297,2.4013004302978516,2.2342348098754883,0.26577281951904297,1345.0727841854095
D4:22:CD:00:05:6E,-163.43222045898438,54.09058380126953,136.90127563476562,-3.299924373626709,9.145881652832031,-5.8383636474609375,1345.0727841854095
D4:22:CD:00:05:5E,167.91102600097656,-37.595664978027344,-88.25862121582031,1.115614891052246,-9.841423034667969,2.7400989532470703,1345.0727841854095
D4:22:CD:00:05:5D,102.74332427978516,-77.04757690429688,-53.59189987182617,6.662878036499023,-3.150228977203369,1.146073341369629,1345.1023302078247
D4:22:CD:00:05:6B,-128.8898162841797,-75.13739776611328,17.907318115234375,7.922560691833496,5.182161331176758,2.6668548583984375,1345.1023302078247
D4:22:CD:00:49:AA,-165.94964599609375,-72.92967224121094,84.65397644042969,6.238521575927734,1.9130196571350098,6.58149528503418,1345.1023302078247
D4:22:CD:00:05:6E,-128.5830078125,58.614479064941406,164.54576110839844,8.506858825683594,25.812580108642578,-16.002819061279297,1345.1023302078247
D4:22:CD:00:05:5E,171.80091857910156,-40.0974235534668,-90.73067474365234,-0.9088358879089355,-13.231033325195312,1.5200071334838867,1345.1023302078247
D4:22:CD:00:05:5D,119.26560974121094,-78.07560729980469,-70.9709701538086,1.7266004085540771,-4.936392784118652,1.4518661499023438,1345.132331609726
D4:22:CD:00:05:6B,-151.64439392089844,-74.34928131103516,33.28684997558594,1.0487027168273926,6.355202674865723,11.094396591186523,1345.132331609726
D4:22:CD:00:49:AA,-167.0116424560547,-71.6866455078125,88.03490447998047,4.379047393798828,-0.4527062773704529,4.622770309448242,1345.132331609726
D4:22:CD:00:05:6E,-105.26090240478516,57.773414611816406,-166.04464721679688,0.22154998779296875,0.7472752332687378,-6.242255210876465,1345.132331609726
D4:22:CD:00:05:5E,-179.50584411621094,-43.33562469482422,-94.26533508300781,-6.79694938659668,-4.694829940795898,-2.5962071418762207,1345.132331609726
D4:22:CD:00:05:5D,136.08895874023438,-77.74647521972656,-83.40531158447266,-4.403715133666992,-1.6168506145477295,8.967479705810547,1345.1677808761597
D4:22:CD:00:05:6B,-159.5308074951172,-71.10455322265625,42.92167282104492,5.510746955871582,8.34967041015625,7.356914520263672,1345.1677808761597
D4:22:CD:00:49:AA,-169.12527465820312,-70.66780853271484,92.21298217773438,-1.3274955749511719,-2.2683753967285156,-0.2810783386230469,1345.1677808761597
D4:22:CD:00:05:6E,-79.72738647460938,53.37494659423828,-141.2013702392578,-4.812731742858887,-6.646246910095215,3.884221076965332,1345.1677808761597
D4:22:CD:00:05:5E,-170.09654235839844,-43.076011657714844,-97.8250503540039,-10.601579666137695,1.8997294902801514,6.39375114440918,1345.1677808761597
D4:22:CD:00:05:5D,152.3493194580078,-76.29727172851562,-94.63884735107422,-6.124687194824219,4.0394697189331055,2.2538280487060547,1345.1972968578339
D4:22:CD:00:05:6B,-156.6753692626953,-70.0098648071289,46.79637908935547,0.4577982425689697,-5.967704772949219,-1.732752799987793,1345.1972968578339
D4:22:CD:00:49:AA,-172.36239624023438,-68.95347595214844,97.5809326171875,-6.545616149902344,-1.846771240234375,-0.055980682373046875,1345.1972968578339
D4:22:CD:00:05:6E,-53.96647262573242,48.510982513427734,-122.9510269165039,-5.558358192443848,-4.4468183517456055,4.169897079467773,1345.1972968578339
D4:22:CD:00:05:5E,-161.19737243652344,-38.075035095214844,-99.48683166503906,-16.668113708496094,6.789032936096191,13.428409576416016,1345.1972968578339
D4:22:CD:00:05:5D,161.9368438720703,-74.64952850341797,-103.5616683959961,4.715696334838867,-0.5210211277008057,0.25848388671875,1345.2526772022247
D4:22:CD:00:05:6B,-165.1343536376953,-69.67787170410156,55.89699172973633,4.192215919494629,-8.712753295898438,-5.693198204040527,1345.2526772022247
D4:22:CD:00:49:AA,-174.74063110351562,-67.92166137695312,103.37593078613281,-6.04754638671875,0.4340760111808777,-1.1339492797851562,1345.2526772022247
D4:22:CD:00:05:6E,-25.77356719970703,46.496498107910156,-108.95243072509766,-13.521232604980469,-12.559846878051758,7.459278106689453,1345.2526772022247
D4:22:CD:00:05:5E,-157.53024291992188,-28.78631019592285,-97.59264373779297,-13.635433197021484,-0.6895146369934082,3.4557628631591797,1345.2526772022247
D4:22:CD:00:05:5D,168.0878143310547,-73.24764251708984,-108.48868560791016,2.1202683448791504,-0.8729397058486938,0.00426483154296875,1345.282241344452
D4:22:CD:00:05:6B,174.7825164794922,-69.26461029052734,68.53508758544922,-0.535400390625,-2.808166027069092,2.216939926147461,1345.282241344452
D4:22:CD:00:49:AA,-175.80494689941406,-67.68262481689453,107.01122283935547,0.7677679061889648,1.3958137035369873,0.3607978820800781,1345.282241344452
D4:22:CD:00:05:6E,11.164600372314453,46.92654037475586,-92.99755096435547,10.793508529663086,-1.4062154293060303,-12.894729614257812,1345.282241344452
D4:22:CD:00:05:5E,-158.11541748046875,-18.837146759033203,-93.41310119628906,-8.467767715454102,-1.9767088890075684,-4.857901573181152,1345.282241344452
D4:22:CD:00:05:5D,171.4501495361328,-72.00360870361328,-109.5743637084961,0.8126788139343262,0.4872305393218994,0.9525299072265625,1345.311627149582
D4:22:CD:00:05:6B,152.4901580810547,-67.47212219238281,78.59658813476562,-3.1270885467529297,-0.191192626953125,4.5493268966674805,1345.311627149582
D4:22:CD:00:49:AA,-178.73495483398438,-67.82550811767578,111.15499114990234,-0.7818912267684937,1.935730218887329,3.1973705291748047,1345.311627149582
D4:22:CD:00:05:6E,36.99180221557617,43.51007843017578,-76.59449768066406,11.062055587768555,0.5237323045730591,-6.489936828613281,1345.311627149582
D4:22:CD:00:05:5E,-161.36215209960938,-10.1819486618042,-87.80020141601562,-4.867337226867676,-3.107779026031494,-8.900373458862305,1345.311627149582
D4:22:CD:00:05:5D,173.7808380126953,-71.40501403808594,-109.82666015625,-1.4012084007263184,1.7672374248504639,1.0595874786376953,1345.3419814109802
D4:22:CD:00:05:6B,136.79837036132812,-64.74311828613281,85.70629119873047,-5.108135223388672,4.874975204467773,1.8745050430297852,1345.3419814109802
D4:22:CD:00:49:AA,177.6287841796875,-68.6539306640625,115.55963134765625,-5.422487258911133,0.18187204003334045,2.2874155044555664,1345.3419814109802
D4:22:CD:00:05:6E,58.583953857421875,34.41907501220703,-62.79676055908203,10.395648956298828,1.2309153079986572,-8.82000732421875,1345.3419814109802
D4:22:CD:00:05:5E,-166.65130615234375,-3.6418440341949463,-81.4952392578125,-2.6343374252319336,-3.051365375518799,-9.650150299072266,1345.3419814109802
D4:22:CD:00:05:5D,176.50531005859375,-71.46996307373047,-112.02615356445312,-2.0896506309509277,1.8840618133544922,0.8396835327148438,1345.3723549842834
D4:22:CD:00:05:6B,130.10084533691406,-61.52389907836914,91.3235855102539,-5.364201545715332,4.688641548156738,-0.21696949005126953,1345.3723549842834
D4:22:CD:00:49:AA,174.74305725097656,-69.9664077758789,119.52995300292969,-4.012974739074707,-0.16384124755859375,0.8362655639648438,1345.3723549842834
D4:22:CD:00:05:6E,68.87776947021484,18.584524154663086,-54.22190856933594,15.493520736694336,-3.925954818725586,-1.2813711166381836,1345.3723549842834
D4:22:CD:00:05:5E,-172.26156616210938,-0.06284800171852112,-74.73442840576172,0.43354231119155884,-1.3644700050354004,-7.033402442932129,1345.3723549842834
D4:22:CD:00:05:5D,-179.4684600830078,-71.78368377685547,-116.5289535522461,-2.3670759201049805,0.8580945730209351,0.39292240142822266,1345.4026629924774
D4:22:CD:00:05:6B,127.44328308105469,-58.78889465332031,94.39949798583984,-3.979708671569824,3.2761855125427246,-1.0991458892822266,1345.4026629924774
D4:22:CD:00:49:AA,170.59231567382812,-70.98258209228516,124.51483917236328,-0.1765526533126831,1.0966708660125732,-0.3082618713378906,1345.4026629924774
D4:22:CD:00:05:6E,66.17582702636719,-1.4576222896575928,-46.10411071777344,15.506328582763672,-12.239166259765625,-1.542555809020996,1345.4026629924774
D4:22:CD:00:05:5E,-175.5885009765625,-0.11472440510988235,-67.90179443359375,3.2769289016723633,-6.307356834411621,-4.894396781921387,1345.4026629924774
D4:22:CD:00:05:5D,-176.01779174804688,-71.81424713134766,-121.42427825927734,1.4703118801116943,-1.7171452045440674,-0.35170936584472656,1345.4326696395874
D4:22:CD:00:05:6B,123.94641876220703,-57.20365905761719,95.05280303955078,-3.6059632301330566,5.980329513549805,-4.452314376831055,1345.4326696395874
D4:22:CD:00:49:AA,164.0754852294922,-71.56621551513672,130.84750366210938,0.3331102728843689,-0.390985369682312,-1.645639419555664,1345.4326696395874
D4:22:CD:00:05:6E,51.04421615600586,-19.665987014770508,-34.00418472290039,29.073028564453125,-14.350482940673828,18.655689239501953,1345.4326696395874
D4:22:CD:00:05:5E,-178.26629638671875,-2.9259636402130127,-61.22087097167969,7.9695024490356445,-12.98225212097168,-9.821619033813477,1345.4326696395874
D4:22:CD:00:05:5D,-174.93374633789062,-71.11246490478516,-123.9940414428711,-0.7667553424835205,-1.5399887561798096,-0.22577190399169922,1345.4678027629852
D4:22:CD:00:05:6B,122.24981689453125,-56.95829391479492,94.77278900146484,-2.9262280464172363,7.702286720275879,-6.421777725219727,1345.4678027629852
D4:22:CD:00:49:AA,156.44049072265625,-71.93788146972656,137.2159881591797,0.7287595272064209,0.11331446468830109,-6.041950225830078,1345.4678027629852
D4:22:CD:00:05:6E,31.583316802978516,-25.0155029296875,-22.387741088867188,16.681743621826172,-13.78520393371582,2.3149547576904297,1345.4678027629852
D4:22:CD:00:05:5E,-179.85716247558594,-8.20509147644043,-55.070037841796875,13.476085662841797,-10.486150741577148,-13.180723190307617,1345.4678027629852
D4:22:CD:00:05:5D,-177.39854431152344,-68.78919219970703,-123.02391815185547,0.1880112588405609,-1.809746503829956,-1.1714935302734375,1345.4975035190582
D4:22:CD:00:05:6B,125.0318603515625,-58.318302154541016,93.8878173828125,-3.239248275756836,9.847330093383789,-8.275829315185547,1345.4975035190582
D4:22:CD:00:49:AA,151.77291870117188,-71.42782592773438,140.7887420654297,1.7892601490020752,1.0309555530548096,-6.329085350036621,1345.4975035190582
D4:22:CD:00:05:6E,33.024269104003906,-24.360795974731445,-25.655925750732422,-1.9044151306152344,-10.07789421081543,4.986621856689453,1345.4975035190582
D4:22:CD:00:05:5E,-173.51077270507812,-13.277799606323242,-49.561744689941406,12.757076263427734,-7.019023895263672,18.751136779785156,1345.4975035190582
D4:22:CD:00:05:5D,179.22842407226562,-65.21678924560547,-120.22576904296875,1.5578134059906006,-2.6204843521118164,-3.199647903442383,1345.5274574756622
D4:22:CD:00:05:6B,133.57412719726562,-62.75751876831055,91.6478042602539,0.7271566390991211,6.765800476074219,-4.902339935302734,1345.5274574756622
D4:22:CD:00:49:AA,148.48577880859375,-70.57049560546875,143.19789123535156,0.6412112712860107,-0.5359457731246948,-7.130304336547852,1345.5274574756622
D4:22:CD:00:05:6E,46.264244079589844,-17.928335189819336,-31.199600219726562,12.130481719970703,-4.937494277954102,-0.8815755844116211,1345.5274574756622
D4:22:CD:00:05:5E,-168.47227478027344,-14.37952709197998,-46.62963104248047,7.336310386657715,-3.0495753288269043,-9.90446662902832,1345.5274574756622
D4:22:CD:00:05:5D,177.57408142089844,-61.793521881103516,-117.18891906738281,2.123471736907959,1.4815306663513184,-0.1067514419555664,1345.5818603038788
D4:22:CD:00:05:6B,145.38101196289062,-72.66019439697266,79.47161865234375,-0.8391211032867432,7.277535438537598,1.4718809127807617,1345.5818603038788
D4:22:CD:00:49:AA,147.3461151123047,-68.80859375,143.8655548095703,-3.666567325592041,0.44661957025527954,-1.6608667373657227,1345.5818603038788
D4:22:CD:00:05:6E,51.204078674316406,-8.468263626098633,-35.37712097167969,20.92715072631836,-6.408660888671875,-6.354701995849609,1345.5818603038788
D4:22:CD:00:05:5E,-172.34530639648438,-14.328939437866211,-46.62705993652344,12.893314361572266,-9.045581817626953,-3.357222557067871,1345.5818603038788
D4:22:CD:00:05:5D,175.6846923828125,-58.376522064208984,-113.73416137695312,1.5624091625213623,-4.9521684646606445,0.29573631286621094,1345.611334323883
D4:22:CD:00:05:6B,-163.51646423339844,-81.48548889160156,27.548017501831055,1.271712303161621,17.637393951416016,10.497722625732422,1345.611334323883
D4:22:CD:00:49:AA,146.41024780273438,-66.87903594970703,145.71615600585938,-2.4836039543151855,-0.3883821368217468,1.4703683853149414,1345.611334323883
D4:22:CD:00:05:6E,54.972354888916016,2.6037073135375977,-39.461612701416016,23.230079650878906,-13.0103759765625,-12.161197662353516,1345.611334323883
D4:22:CD:00:05:5E,-177.65269470214844,-13.618437767028809,-48.621891021728516,9.298166275024414,-13.225120544433594,-2.759732723236084,1345.611334323883
D4:22:CD:00:05:5D,175.43130493164062,-55.18904113769531,-111.09281158447266,0.4653204083442688,3.164863109588623,-2.3221511840820312,1345.6419715881348
D4:22:CD:00:05:6B,-92.97760009765625,-74.554931640625,-43.89070129394531,-5.8072099685668945,19.774169921875,11.019535064697266,1345.6419715881348
D4:22:CD:00:49:AA,145.9854736328125,-65.24879455566406,146.3938446044922,0.879779577255249,1.2485971450805664,1.9794530868530273,1345.6419715881348
D4:22:CD:00:05:6E,63.801841735839844,13.64002799987793,-41.22168731689453,21.816577911376953,-5.380739212036133,-14.116283416748047,1345.6419715881348
D4:22:CD:00:05:5E,-177.41094970703125,-11.912961959838867,-49.699771881103516,9.256502151489258,-24.965225219726562,-1.4641857147216797,1345.6419715881348
D4:22:CD:00:05:5D,176.25144958496094,-53.05698776245117,-110.73853302001953,-1.176246166229248,-0.06977246701717377,3.2326183319091797,1345.6725099086761
D4:22:CD:00:05:6B,-75.15168762207031,-58.224910736083984,-57.09372329711914,-11.53352165222168,20.95693588256836,16.638198852539062,1345.6725099086761
D4:22:CD:00:49:AA,147.36378479003906,-63.99946212768555,144.03451538085938,-0.6925709247589111,1.3638556003570557,8.288545608520508,1345.6725099086761
D4:22:CD:00:05:6E,72.26353454589844,19.892513275146484,-37.493614196777344,14.892250061035156,1.6070754528045654,-8.565011978149414,1345.6725099086761
D4:22:CD:00:05:5E,-169.2449951171875,-9.722542762756348,-50.09569549560547,16.941375732421875,-28.213607788085938,-4.686827659606934,1345.6725099086761
D4:22:CD:00:05:5D,178.08175659179688,-52.53033447265625,-110.5799789428711,0.3596625328063965,2.602961540222168,3.0920066833496094,1345.702695608139
D4:22:CD:00:05:6B,-65.53788757324219,-39.530460357666016,-54.24931335449219,-10.661067962646484,9.996889114379883,12.570026397705078,1345.702695608139
D4:22:CD:00:49:AA,151.4834747314453,-63.137325286865234,140.0565643310547,-2.7946972846984863,-4.402889251708984,12.806070327758789,1345.702695608139
D4:22:CD:00:05:6E,79.64021301269531,18.19040298461914,-28.91231346130371,6.824796676635742,2.96012544631958,-1.6251678466796875,1345.702695608139
D4:22:CD:00:05:5E,-164.05978393554688,-2.914386749267578,-51.50794219970703,6.532814979553223,-26.40963363647461,1.2324562072753906,1345.702695608139
D4:22:CD:00:05:5D,179.3231658935547,-53.72527313232422,-111.16231536865234,-1.736577033996582,1.8685784339904785,2.28055477142334,1345.73215675354
D4:22:CD:00:05:6B,-55.08971405029297,-21.328214645385742,-44.11549377441406,4.679137229919434,1.4130985736846924,12.498115539550781,1345.73215675354
D4:22:CD:00:49:AA,153.03408813476562,-63.08681106567383,137.9742431640625,-1.2747180461883545,1.8701376914978027,10.158924102783203,1345.73215675354
D4:22:CD:00:05:6E,87.20962524414062,10.450191497802734,-20.074878692626953,2.5452823638916016,-0.4318743944168091,-0.8957500457763672,1345.73215675354
D4:22:CD:00:05:5E,-161.25962829589844,1.5814476013183594,-52.41225814819336,13.431085586547852,-13.174142837524414,-2.2420525550842285,1345.73215675354
