Device,EulerX,EulerY,EulerZ,FreeAccX,FreeAccY,FreeAccZ,Timestamp
D4:22:CD:00:05:5D,-165.20008850097656,-63.13481521606445,38.52165603637695,7.660646438598633,0.7185230255126953,7.385955810546875,1531.3392007350922
D4:22:CD:00:05:6B,-30.91275978088379,40.268211364746094,-61.10737228393555,-9.034133911132812,-8.733114242553711,1.3104057312011719,1531.3392007350922
D4:22:CD:00:49:AA,159.8773956298828,-70.78096771240234,133.68455505371094,-3.4331531524658203,-0.07806211709976196,-0.02357196807861328,1531.3392007350922
D4:22:CD:00:05:6E,-72.30099487304688,-65.0116958618164,167.58934020996094,-10.878898620605469,5.180512428283691,-1.080479621887207,1531.3392007350922
D4:22:CD:00:05:5E,-133.7277069091797,-52.6907844543457,-54.089717864990234,0.9636695384979248,3.8945112228393555,-0.5605449676513672,1531.3392007350922
D4:22:CD:00:05:6B,-15.1051664352417,43.21489334106445,-57.4543571472168,-7.668191909790039,-4.490032196044922,-4.748293876647949,1531.351215839386
D4:22:CD:00:49:AA,166.6257781982422,-70.73783111572266,131.65948486328125,-1.2593088150024414,0.05835028737783432,-6.46894645690918,1531.351215839386
D4:22:CD:00:05:6E,-56.959327697753906,-59.72660446166992,167.5465087890625,-12.189203262329102,3.831634044647217,-7.728949546813965,1531.351215839386
D4:22:CD:00:05:5E,-125.48045349121094,-58.37063217163086,-61.3686408996582,2.1571974754333496,9.104728698730469,-5.6091413497924805,1531.351215839386
D4:22:CD:00:05:5D,-178.74473571777344,-69.8759536743164,-111.37615966796875,2.0606956481933594,-3.1800522804260254,-1.1571168899536133,1531.3627398014069
D4:22:CD:00:49:AA,170.9001922607422,-69.89453125,129.90203857421875,2.7951507568359375,2.6130080223083496,-8.522502899169922,1531.3627398014069
D4:22:CD:00:05:6E,-43.37122344970703,-55.94724655151367,169.0696258544922,-8.979684829711914,1.988724708557129,-12.156047821044922,1531.3627398014069
D4:22:CD:00:05:5E,-110.48905944824219,-63.43278121948242,-76.15533447265625,1.3494222164154053,8.433855056762695,-8.403816223144531,1531.3627398014069
D4:22:CD:00:05:5D,-164.7034912109375,-68.33580780029297,-123.1922607421875,1.0610156059265137,0.9769853353500366,-0.533355712890625,1531.3677480220795
D4:22:CD:00:05:6B,-99.44878387451172,-60.86846923828125,-61.046775817871094,1.4875984191894531,4.339624404907227,0.7039518356323242,1531.3677480220795
D4:22:CD:00:05:6E,-33.604164123535156,-53.63920593261719,170.68479919433594,-6.735479354858398,-1.523362159729004,-12.73139762878418,1531.3677480220795
D4:22:CD:00:05:5E,-94.2311782836914,-65.07341766357422,-97.51542663574219,-1.6894762516021729,7.883265495300293,-13.035337448120117,1531.3677480220795
D4:22:CD:00:05:5D,-179.67674255371094,-56.3914680480957,-105.95013427734375,-4.226568222045898,2.4454092979431152,0.6526126861572266,1531.3717529773712
D4:22:CD:00:05:6B,-76.86083984375,-36.093563079833984,-87.33453369140625,-0.5380797386169434,0.3927570581436157,5.708025932312012,1531.3717529773712
D4:22:CD:00:49:AA,-123.16238403320312,-65.10122680664062,44.791690826416016,3.8170223236083984,2.819836139678955,3.5301780700683594,1531.3717529773712
D4:22:CD:00:05:5D,174.5810089111328,-52.046504974365234,-99.3928451538086,-1.6033079624176025,-0.8883383274078369,0.7816085815429688,1531.406751871109
D4:22:CD:00:05:6B,-74.9191665649414,-23.07815933227539,-91.97879028320312,2.7049360275268555,-1.879852056503296,16.937572479248047,1531.406751871109
D4:22:CD:00:49:AA,-117.44847869873047,-72.93095397949219,41.74019241333008,9.388982772827148,1.5816659927368164,4.828920364379883,1531.406751871109
D4:22:CD:00:05:6E,-29.459686279296875,-76.65046691894531,96.14302825927734,3.3493504524230957,-1.4765570163726807,52.931297302246094,1531.406751871109
D4:22:CD:00:05:5E,142.22991943359375,-66.24234771728516,15.184009552001953,0.8002928495407104,-1.766139030456543,16.292152404785156,1531.406751871109
D4:22:CD:00:05:5D,171.79931640625,-48.997535705566406,-95.48614501953125,2.5570778846740723,5.29341983795166,-4.831333160400391,1531.4367518424988
D4:22:CD:00:05:6B,-69.51649475097656,-8.194680213928223,-94.15563201904297,1.0262768268585205,-7.985328674316406,23.088687896728516,1531.4367518424988
D4:22:CD:00:49:AA,-135.8060760498047,-81.34771728515625,60.63813400268555,5.909282684326172,3.628772735595703,8.810226440429688,1531.4367518424988
D4:22:CD:00:05:6E,-59.17304229736328,-60.3123893737793,119.40562438964844,-6.279363632202148,-4.686673164367676,14.783079147338867,1531.4367518424988
D4:22:CD:00:05:5E,141.8067169189453,-64.79850769042969,20.736085891723633,6.706154823303223,3.057401180267334,17.222835540771484,1531.4367518424988
D4:22:CD:00:05:5D,171.87344360351562,-47.65752410888672,-94.03192901611328,8.717304229736328,4.97764778137207,-0.6190376281738281,1531.4965436458588
D4:22:CD:00:05:6B,-62.615821838378906,8.228194236755371,-91.18645477294922,-0.3403506278991699,-11.946439743041992,20.29916000366211,1531.4965436458588
D4:22:CD:00:49:AA,173.48304748535156,-84.2287826538086,110.67386627197266,3.143547534942627,0.4601787328720093,11.173990249633789,1531.4965436458588
D4:22:CD:00:05:6E,-31.62267303466797,-60.47856140136719,96.07164764404297,13.700912475585938,12.075366973876953,16.165603637695312,1531.4965436458588
D4:22:CD:00:05:5E,150.8267364501953,-68.51690673828125,11.021539688110352,1.0599665641784668,-0.8904780149459839,12.613716125488281,1531.4965436458588
D4:22:CD:00:05:5D,172.8275146484375,-48.665565490722656,-96.08148193359375,0.4332045316696167,1.792219638824463,0.42503929138183594,1531.52654504776
D4:22:CD:00:05:6B,-49.861698150634766,24.184669494628906,-82.49796295166016,4.09627628326416,-20.92711639404297,16.231761932373047,1531.52654504776
D4:22:CD:00:49:AA,148.2433624267578,-81.43750762939453,135.48313903808594,0.429115355014801,-3.0344648361206055,6.694648742675781,1531.52654504776
D4:22:CD:00:05:6E,-20.979917526245117,-66.02245330810547,92.25518798828125,-7.884387016296387,18.081607818603516,5.061160087585449,1531.52654504776
D4:22:CD:00:05:5E,153.7283172607422,-69.4155044555664,4.274206638336182,2.190370559692383,4.28580379486084,7.959110260009766,1531.52654504776
D4:22:CD:00:05:5D,174.8430633544922,-51.216129302978516,-98.0523910522461,-1.6804425716400146,-0.9437304735183716,4.372320175170898,1531.5564835071564
D4:22:CD:00:05:6B,-26.244857788085938,36.23756408691406,-70.45722961425781,3.0616402626037598,-22.088619232177734,3.1913795471191406,1531.5564835071564
D4:22:CD:00:49:AA,144.9258575439453,-79.09430694580078,138.24630737304688,-3.566472053527832,-2.1524057388305664,6.885101318359375,1531.5564835071564
D4:22:CD:00:05:6E,-16.83692169189453,-72.09075164794922,92.95722198486328,-2.46292781829834,8.058584213256836,1.038529396057129,1531.5564835071564
D4:22:CD:00:05:5E,161.82473754882812,-72.61466979980469,-4.8605523109436035,-0.37238645553588867,7.941398620605469,0.6485986709594727,1531.5564835071564
D4:22:CD:00:05:5D,177.0024871826172,-55.07596969604492,-100.424560546875,-4.1804609298706055,-1.7405047416687012,7.404888153076172,1531.5860016345978
D4:22:CD:00:05:6B,-2.008435010910034,42.61697006225586,-56.85403823852539,2.358903408050537,-13.564933776855469,-1.8834948539733887,1531.5860016345978
D4:22:CD:00:49:AA,147.8069305419922,-79.1622314453125,136.84124755859375,-6.658694267272949,-0.7674120664596558,3.8832693099975586,1531.5860016345978
D4:22:CD:00:05:6E,-25.025543212890625,-74.57378387451172,109.94528198242188,0.5423587560653687,8.288763046264648,-4.442740440368652,1531.5860016345978
D4:22:CD:00:05:5E,179.49932861328125,-77.09961700439453,-22.39228630065918,1.4208052158355713,7.508907318115234,-5.492751121520996,1531.5860016345978
D4:22:CD:00:05:5D,178.1177215576172,-60.308448791503906,-101.78291320800781,-2.4548473358154297,-2.746161460876465,7.942224502563477,1531.6168704032898
D4:22:CD:00:05:6B,16.830055236816406,44.846004486083984,-47.08586120605469,-1.7841129302978516,-9.603607177734375,-2.8291187286376953,1531.6168704032898
D4:22:CD:00:49:AA,159.12588500976562,-78.9444580078125,128.51686096191406,-1.6877796649932861,-0.11448623239994049,0.028535842895507812,1531.6168704032898
D4:22:CD:00:05:6E,-41.24662399291992,-71.09927368164062,139.5794219970703,-6.04559326171875,5.581107139587402,-2.710190773010254,1531.6168704032898
D4:22:CD:00:05:5E,-140.93380737304688,-81.05398559570312,-61.133750915527344,-1.9001710414886475,4.681097030639648,-7.178116798400879,1531.6168704032898
D4:22:CD:00:05:5D,176.89312744140625,-66.70541381835938,-102.1369400024414,-4.547946929931641,-3.4130821228027344,3.529721260070801,1531.6468758583069
D4:22:CD:00:05:6B,28.36298179626465,45.114105224609375,-42.186187744140625,-5.402523994445801,-3.4943413734436035,-3.305284023284912,1531.6468758583069
D4:22:CD:00:49:AA,171.21893310546875,-77.36892700195312,119.96125030517578,1.6482386589050293,1.8301048278808594,-2.5717625617980957,1531.6468758583069
D4:22:CD:00:05:6E,-39.479400634765625,-62.637840270996094,160.71322631835938,-9.5888671875,6.478093147277832,1.7571544647216797,1531.6468758583069
D4:22:CD:00:05:5E,-90.70111846923828,-79.59996795654297,-111.34321594238281,-5.9402570724487305,5.10151481628418,-8.33828353881836,1531.6468758583069
D4:22:CD:00:05:5D,170.51260375976562,-74.03396606445312,-97.47012329101562,1.7909369468688965,-5.781085968017578,-4.367149353027344,1531.6768414974213
D4:22:CD:00:05:6B,30.036378860473633,43.9327392578125,-40.59736251831055,-5.68308162689209,2.1679458618164062,-2.9331417083740234,1531.6768414974213
D4:22:CD:00:49:AA,176.5462646484375,-75.91741943359375,117.02452850341797,0.24354484677314758,2.8213653564453125,-6.198579788208008,1531.6768414974213
D4:22:CD:00:05:6E,-16.6337890625,-54.528526306152344,173.4313201904297,-15.11532974243164,2.9087672233581543,-3.6160264015197754,1531.6768414974213
D4:22:CD:00:05:5E,-60.6549072265625,-74.74266815185547,-138.8312530517578,-5.6975507736206055,2.32741117477417,-17.034732818603516,1531.6768414974213
D4:22:CD:00:05:5D,161.54904174804688,-79.60967254638672,-87.56590270996094,16.043445587158203,7.100102424621582,-8.069942474365234,1531.7069940567017
D4:22:CD:00:05:6B,25.749065399169922,43.751407623291016,-43.97904968261719,-5.053995132446289,-2.702254295349121,-5.29168701171875,1531.7069940567017
D4:22:CD:00:49:AA,176.5458526611328,-75.88510131835938,118.27835845947266,1.2069206237792969,2.332404136657715,-9.869384765625,1531.7069940567017
D4:22:CD:00:05:6E,9.799333572387695,-46.94712829589844,-178.46304321289062,-13.215105056762695,-11.4703369140625,-10.193973541259766,1531.7069940567017
D4:22:CD:00:05:5E,-46.095760345458984,-69.31890106201172,-150.94183349609375,-4.258296966552734,4.722258567810059,-17.27625274658203,1531.7069940567017
D4:22:CD:00:05:5D,157.9171142578125,-79.19361877441406,-76.00016784667969,3.9551877975463867,6.702956199645996,-8.74799919128418,1531.7364621162415
D4:22:CD:00:05:6B,22.678991317749023,46.06488800048828,-53.57231521606445,-3.398019790649414,-3.0800843238830566,-9.591608047485352,1531.7364621162415
D4:22:CD:00:49:AA,172.86302185058594,-77.36341857910156,122.1348876953125,2.2955760955810547,0.24490821361541748,-8.142589569091797,1531.7364621162415
D4:22:CD:00:05:6E,22.142370223999023,-41.51386260986328,-173.0800323486328,-4.125158309936523,-14.51467514038086,-15.267223358154297,1531.7364621162415
D4:22:CD:00:05:5E,-38.219886779785156,-64.00557708740234,-157.72213745117188,-5.266806602478027,0.34378963708877563,-17.54163360595703,1531.7364621162415
D4:22:CD:00:05:5D,159.19786071777344,-77.7557601928711,-76.22370910644531,0.3449890613555908,0.4003068208694458,-10.753179550170898,1531.7964475154877
D4:22:CD:00:05:6B,18.001611709594727,49.871055603027344,-69.86676788330078,-0.1419064998626709,-4.805097579956055,-14.324214935302734,1531.7964475154877
D4:22:CD:00:49:AA,165.25961303710938,-81.25764465332031,129.67955017089844,0.6808496713638306,-0.6846200227737427,-6.7834978103637695,1531.7964475154877
D4:22:CD:00:05:6E,25.308074951171875,-39.142887115478516,-172.68426513671875,-2.2858943939208984,-6.916149139404297,-11.778072357177734,1531.7964475154877
D4:22:CD:00:05:5E,-35.175819396972656,-60.23023986816406,-163.35853576660156,-6.85066032409668,-1.9707787036895752,-14.29302978515625,1531.7964475154877
D4:22:CD:00:05:5D,164.9638214111328,-77.04265594482422,-84.80378723144531,-2.5877137184143066,6.6720428466796875,-2.9886245727539062,1531.8265166282654
D4:22:CD:00:05:6B,7.45816707611084,52.87774658203125,-92.68417358398438,-1.8725714683532715,-5.4637603759765625,-17.751876831054688,1531.8265166282654
D4:22:CD:00:49:AA,156.28591918945312,-84.8930892944336,138.94105529785156,-0.6289310455322266,0.3071761131286621,-8.544807434082031,1531.8265166282654
D4:22:CD:00:05:6E,28.635562896728516,-37.48732376098633,-175.41954040527344,-2.72088623046875,-3.8427186012268066,-12.137466430664062,1531.8265166282654
D4:22:CD:00:05:5E,-37.445518493652344,-58.41868209838867,-168.36416625976562,-15.625526428222656,-3.454155921936035,-13.226123809814453,1531.8265166282654
D4:22:CD:00:05:5D,164.20404052734375,-74.24893951416016,-87.45685577392578,-2.0636534690856934,-4.170219421386719,-1.6551694869995117,1531.8566398620605
D4:22:CD:00:05:6B,-9.180120468139648,50.99028396606445,-120.22952270507812,-5.493659973144531,-8.340137481689453,-24.261024475097656,1531.8566398620605
D4:22:CD:00:49:AA,144.05296325683594,-87.22173309326172,151.79129028320312,-0.8323357105255127,0.3979891538619995,-4.300972938537598,1531.8566398620605
D4:22:CD:00:05:6E,33.654666900634766,-36.00390625,-179.36129760742188,-2.749941825866699,-7.553189277648926,-11.705095291137695,1531.8566398620605
D4:22:CD:00:05:5E,-54.38070297241211,-59.79403305053711,-167.82199096679688,-19.485454559326172,4.847735404968262,-7.939323425292969,1531.8566398620605
D4:22:CD:00:05:5D,163.1940460205078,-71.6463394165039,-85.37946319580078,-6.196408271789551,-6.708869934082031,2.3599843978881836,1531.8862700462341
D4:22:CD:00:05:6B,-16.146194458007812,46.879722595214844,-141.24240112304688,-13.698143005371094,6.646188735961914,-15.402532577514648,1531.8862700462341
D4:22:CD:00:49:AA,127.78536987304688,-88.12477111816406,167.28897094726562,-0.31701916456222534,-0.5758522748947144,0.2506399154663086,1531.8862700462341
D4:22:CD:00:05:6E,35.34419250488281,-35.41556930541992,176.40028381347656,-3.9742431640625,-6.833494186401367,-9.77479362487793,1531.8862700462341
D4:22:CD:00:05:5E,-70.35541534423828,-62.25806427001953,-159.35427856445312,-27.83185577392578,23.913433074951172,-2.1901917457580566,1531.8862700462341
D4:22:CD:00:05:5D,160.66244506835938,-69.04060363769531,-79.93991088867188,-1.1721487045288086,-2.4276232719421387,3.7462024688720703,1531.9165630340576
D4:22:CD:00:05:6B,-15.699097633361816,48.73551940917969,-140.53480529785156,15.238517761230469,-5.9045257568359375,-11.7213134765625,1531.9165630340576
D4:22:CD:00:49:AA,112.07770538330078,-87.81037139892578,179.98236083984375,-3.067718029022217,-2.4962730407714844,1.5102405548095703,1531.9165630340576
D4:22:CD:00:05:6E,33.747718811035156,-36.28801727294922,172.56393432617188,-7.457333564758301,-6.03337287902832,-8.169244766235352,1531.9165630340576
D4:22:CD:00:05:5E,-83.01161193847656,-63.94637680053711,-146.856689453125,-1.0276625156402588,-12.15633773803711,-2.9014339447021484,1531.9165630340576
D4:22:CD:00:05:5D,158.00852966308594,-66.51469421386719,-74.3047103881836,3.8290300369262695,-0.5268443822860718,2.2586793899536133,1531.9468569755554
D4:22:CD:00:05:6B,-8.254615783691406,50.09494400024414,-137.87582397460938,-7.332192420959473,4.915897369384766,-6.548807144165039,1531.9468569755554
D4:22:CD:00:49:AA,99.21605682373047,-87.51376342773438,-170.68841552734375,-5.651938438415527,-1.6836423873901367,-1.0516223907470703,1531.9468569755554
D4:22:CD:00:05:6E,29.480924606323242,-39.60761260986328,170.78872680664062,-11.909210205078125,-10.20081901550293,-2.7772231101989746,1531.9468569755554
D4:22:CD:00:05:5E,-90.71833801269531,-64.84732818603516,-138.4984588623047,-8.563283920288086,-1.8745567798614502,13.970338821411133,1531.9468569755554
D4:22:CD:00:05:5D,153.7120361328125,-64.4818115234375,-68.39045715332031,-0.32401394844055176,0.233537495136261,4.00947380065918,1531.9767680168152
D4:22:CD:00:05:6B,-2.292954206466675,49.633522033691406,-133.81222534179688,5.563107490539551,-1.2251241207122803,-4.824589729309082,1531.9767680168152
D4:22:CD:00:49:AA,102.00078582763672,-87.53486633300781,-176.55044555664062,-4.763500213623047,-4.609630584716797,4.222293853759766,1531.9767680168152
D4:22:CD:00:05:6E,16.80000114440918,-46.48613739013672,173.2622833251953,-8.040307998657227,-7.253893852233887,-2.578385353088379,1531.9767680168152
D4:22:CD:00:05:5E,-102.67243957519531,-64.30254364013672,-130.1349639892578,0.2842447757720947,3.8060173988342285,8.877038955688477,1531.9767680168152
D4:22:CD:00:05:5D,147.10511779785156,-61.76039505004883,-64.4193115234375,1.511899709701538,-7.7992143630981445,5.897642135620117,1532.0069317817688
D4:22:CD:00:05:6B,2.464017391204834,50.029319763183594,-124.48212432861328,-5.106584548950195,-2.9759087562561035,-2.7035112380981445,1532.0069317817688
D4:22:CD:00:49:AA,117.03553771972656,-87.78062438964844,164.82241821289062,2.613931655883789,-2.383693218231201,6.275053024291992,1532.0069317817688
D4:22:CD:00:05:6E,-5.063612461090088,-54.3958740234375,-177.5117645263672,-7.283880233764648,-4.149341583251953,1.6046171188354492,1532.0069317817688
D4:22:CD:00:05:5E,-109.8576431274414,-65.47139739990234,-124.58983612060547,-9.439184188842773,-0.4292125701904297,-1.2206058502197266,1532.0069317817688
D4:22:CD:00:05:5D,141.78933715820312,-58.100486755371094,-63.9317741394043,2.3350253105163574,-6.811199188232422,12.063800811767578,1532.0369310379028
D4:22:CD:00:05:6B,9.973237037658691,49.48682403564453,-105.59049987792969,-2.300431728363037,-3.5647730827331543,-3.0529966354370117,1532.0369310379028
D4:22:CD:00:49:AA,152.59112548828125,-87.57634735107422,124.72052764892578,6.102514266967773,0.27269458770751953,-1.5951719284057617,1532.0369310379028
D4:22:CD:00:05:6E,-30.80375099182129,-59.209312438964844,-166.9202423095703,-8.804706573486328,-2.7197608947753906,4.206038475036621,1532.0369310379028
D4:22:CD:00:05:5E,-111.47611236572266,-68.32891082763672,-122.13972473144531,-4.840688705444336,1.063405990600586,2.959010124206543,1532.0369310379028
D4:22:CD:00:05:5D,135.8992919921875,-55.740055084228516,-64.53404235839844,13.216880798339844,-7.026773452758789,3.3848819732666016,1532.0967409610748
D4:22:CD:00:05:6B,15.347614288330078,42.475284576416016,-83.37539672851562,-5.2056379318237305,-1.8950083255767822,-4.709334373474121,1532.0967409610748
D4:22:CD:00:49:AA,176.30221557617188,-85.18175506591797,96.67923736572266,6.595311164855957,-0.6587622165679932,1.102834701538086,1532.0967409610748
D4:22:CD:00:05:6E,-51.864688873291016,-63.20728302001953,-161.27430725097656,1.9715993404388428,3.9398579597473145,5.312249183654785,1532.0967409610748
D4:22:CD:00:05:5E,-112.4456558227539,-70.73892974853516,-121.05360412597656,-5.968901634216309,0.09894225001335144,-0.9080171585083008,1532.0967409610748
D4:22:CD:00:05:5D,134.7202606201172,-53.92937088012695,-69.40506744384766,12.669490814208984,14.439950942993164,2.8252830505371094,1532.126831293106
D4:22:CD:00:05:6B,17.193622589111328,29.152156829833984,-68.55320739746094,-3.82729434967041,4.808096885681152,-3.383575916290283,1532.126831293106
D4:22:CD:00:49:AA,-173.44927978515625,-83.0810317993164,84.59224700927734,-3.8626694679260254,-0.8486621379852295,7.35993766784668,1532.126831293106
D4:22:CD:00:05:6E,-60.590511322021484,-66.17432403564453,-159.07644653320312,6.897080421447754,1.122004508972168,6.741382598876953,1532.126831293106
D4:22:CD:00:05:5E,-108.82691955566406,-73.6767807006836,-123.05778503417969,-4.829592704772949,0.7835512161254883,0.8320903778076172,1532.126831293106
D4:22:CD:00:05:5D,139.24267578125,-50.274600982666016,-78.71541595458984,11.758611679077148,11.050432205200195,0.24119281768798828,1532.1570103168488
D4:22:CD:00:05:6B,14.523931503295898,11.70167064666748,-59.29755783081055,-3.255577564239502,5.256516456604004,-7.5767822265625,1532.1570103168488
D4:22:CD:00:49:AA,-164.7602081298828,-82.59313201904297,78.61714172363281,-0.7269266843795776,2.556610107421875,4.403512954711914,1532.1570103168488
D4:22:CD:00:05:6E,-58.88433074951172,-66.75279998779297,-159.79287719726562,-5.150108337402344,0.8402789831161499,5.387236595153809,1532.1570103168488
D4:22:CD:00:05:5E,-100.47344207763672,-76.49301147460938,-128.6990203857422,-4.763970375061035,-0.19648978114128113,-1.4783754348754883,1532.1570103168488
D4:22:CD:00:05:5D,145.16758728027344,-44.96393966674805,-89.0931625366211,2.687314033508301,6.350831031799316,-2.863595962524414,1532.1870317459106
D4:22:CD:00:05:6B,13.580190658569336,-6.5324296951293945,-49.8577880859375,0.6743810176849365,-1.4081971645355225,-3.889512538909912,1532.1870317459106
D4:22:CD:00:49:AA,-162.0506591796875,-82.38614654541016,77.94480895996094,9.051382064819336,0.7406513690948486,0.9473438262939453,1532.1870317459106
D4:22:CD:00:05:6E,-58.79433059692383,-67.32028198242188,-160.65423583984375,-7.451556205749512,0.24347466230392456,2.3038082122802734,1532.1870317459106
D4:22:CD:00:05:5E,-88.10053253173828,-78.8444595336914,-137.10208129882812,-5.209718704223633,-1.3817927837371826,-2.7038321495056152,1532.1870317459106
D4:22:CD:00:05:5D,148.53756713867188,-38.76359176635742,-97.03074645996094,-4.4426469802856445,3.1381583213806152,-7.461056709289551,1532.2162396907806
D4:22:CD:00:05:6B,9.378022193908691,-20.903858184814453,-36.972965240478516,8.819036483764648,5.678988456726074,7.684757232666016,1532.2162396907806
D4:22:CD:00:49:AA,-162.55677795410156,-82.80598449707031,78.3539047241211,5.44785213470459,-1.3963327407836914,-0.7620372772216797,1532.2162396907806
D4:22:CD:00:05:6E,-60.877593994140625,-69.41654205322266,-160.80186462402344,-2.1777443885803223,0.28415411710739136,-1.4275360107421875,1532.2162396907806
D4:22:CD:00:05:5E,-77.0799331665039,-80.33543395996094,-143.747802734375,-5.631686210632324,-1.9702098369598389,-3.002563953399658,1532.2162396907806
D4:22:CD:00:05:5D,151.9573211669922,-32.92163848876953,-102.35684967041016,-2.2296276092529297,1.69435715675354,-11.93071174621582,1532.2466049194336
D4:22:CD:00:05:6B,-3.8440918922424316,-26.574665069580078,-23.530324935913086,3.489920139312744,13.942846298217773,-0.7746849060058594,1532.2466049194336
D4:22:CD:00:49:AA,-168.5027313232422,-83.85043334960938,84.47692108154297,0.030291367322206497,-0.7960399389266968,-3.167153835296631,1532.2466049194336
D4:22:CD:00:05:6E,-58.225982666015625,-71.86167907714844,-162.40682983398438,-1.353071689605713,1.7559022903442383,-4.441713333129883,1532.2466049194336
D4:22:CD:00:05:5E,-78.70382690429688,-80.8566665649414,-139.68113708496094,-5.446230888366699,-0.6474980115890503,-5.864938735961914,1532.2466049194336
D4:22:CD:00:05:5D,156.92501831054688,-28.599306106567383,-106.57930755615234,-0.46943598985671997,2.2541680335998535,-9.297151565551758,1532.2764468193054
D4:22:CD:00:05:6B,-12.973862648010254,-25.766639709472656,-15.444512367248535,-5.937078475952148,-3.647109031677246,0.513401985168457,1532.2764468193054
D4:22:CD:00:49:AA,-178.67193603515625,-84.7303237915039,94.62874603271484,-2.3031511306762695,-0.2114468216896057,-6.417490005493164,1532.2764468193054
D4:22:CD:00:05:6E,-49.60971450805664,-73.91036224365234,-166.94296264648438,-3.997673511505127,0.6570839881896973,-5.380544662475586,1532.2764468193054
D4:22:CD:00:05:5E,-94.57024383544922,-80.13361358642578,-124.61598205566406,-4.550691604614258,0.75401771068573,-3.0332021713256836,1532.2764468193054
D4:22:CD:00:05:5D,162.596923828125,-25.62211799621582,-110.30635070800781,-0.13015615940093994,1.3294920921325684,-6.511929512023926,1532.3065848350525
D4:22:CD:00:05:6B,-10.884198188781738,-22.370895385742188,-13.593951225280762,-2.8204751014709473,6.201333999633789,-8.196300506591797,1532.3065848350525
D4:22:CD:00:49:AA,176.2914276123047,-85.1285400390625,100.0698471069336,-1.1856598854064941,0.03728542476892471,-6.791848182678223,1532.3065848350525
D4:22:CD:00:05:6E,-36.070709228515625,-75.91883850097656,-176.14334106445312,-3.3636436462402344,-1.3419742584228516,-5.762511253356934,1532.3065848350525
D4:22:CD:00:05:5E,-112.24151611328125,-77.39753723144531,-109.7323989868164,-6.071698188781738,-1.4041593074798584,-2.5225954055786133,1532.3065848350525
D4:22:CD:00:05:5D,167.19387817382812,-25.10319709777832,-114.05046844482422,-2.5938892364501953,-1.393160104751587,-8.453611373901367,1532.3366615772247
D4:22:CD:00:05:6B,-12.12059211730957,-21.027498245239258,-15.321579933166504,-5.207513809204102,7.421384811401367,-12.11431884765625,1532.3366615772247
D4:22:CD:00:49:AA,177.60850524902344,-85.25282287597656,100.4567642211914,1.82712721824646,1.4299781322479248,-5.1922607421875,1532.3366615772247
D4:22:CD:00:05:6E,-15.024127960205078,-77.38633728027344,167.41644287109375,-1.7179019451141357,-1.3858754634857178,-5.358905792236328,1532.3366615772247
D4:22:CD:00:05:5E,-122.28247833251953,-74.22537231445312,-101.15424346923828,-6.436566352844238,-1.7347917556762695,-3.0901570320129395,1532.3366615772247
D4:22:CD:00:05:5D,168.74778747558594,-25.880840301513672,-118.14026641845703,-2.872307777404785,11.090446472167969,24.45264434814453,1532.3964745998383
D4:22:CD:00:05:6B,-18.35660171508789,-25.31192398071289,-18.037912368774414,-2.6937875747680664,5.917995452880859,-14.263723373413086,1532.3964745998383
D4:22:CD:00:49:AA,178.94482421875,-84.99602508544922,100.53502655029297,4.071242332458496,0.6435883045196533,-1.1298437118530273,1532.3964745998383
D4:22:CD:00:05:6E,11.772271156311035,-76.93061065673828,145.8292694091797,-2.137540340423584,-1.835690975189209,-4.577406883239746,1532.3964745998383
D4:22:CD:00:05:5E,-127.20291900634766,-71.25389862060547,-97.20664978027344,-4.740057945251465,1.236591100692749,-0.8329238891601562,1532.3964745998383
D4:22:CD:00:05:5D,165.0228729248047,-24.255918502807617,-119.61725616455078,-10.095596313476562,-11.803197860717773,-9.237668991088867,1532.4265735149384
D4:22:CD:00:05:6B,-24.62904167175293,-36.1447639465332,-24.487693786621094,7.5985212326049805,0.26367664337158203,-11.036127090454102,1532.4265735149384
D4:22:CD:00:49:AA,-178.9524688720703,-85.44917297363281,97.94481658935547,6.832402229309082,-1.1211695671081543,1.9627552032470703,1532.4265735149384
D4:22:CD:00:05:6E,31.41545867919922,-74.57550048828125,129.48500061035156,-4.094659805297852,-5.399015426635742,-1.6122064590454102,1532.4265735149384
D4:22:CD:00:05:5E,-130.30715942382812,-69.2763442993164,-94.99945068359375,-5.145597457885742,0.907418966293335,2.065840721130371,1532.4265735149384
D4:22:CD:00:05:5D,164.03927612304688,-24.757368087768555,-118.85449981689453,-8.120157241821289,-16.88190460205078,-0.2152395248413086,1532.4565782546997
D4:22:CD:00:05:6B,-19.619121551513672,-52.345542907714844,-42.27532958984375,18.5079345703125,-16.10367202758789,31.971996307373047,1532.4565782546997
D4:22:CD:00:49:AA,-178.6885223388672,-85.13401794433594,96.07459259033203,-0.8989346027374268,0.7494461536407471,-1.3915748596191406,1532.4565782546997
D4:22:CD:00:05:6E,39.67338180541992,-70.58252716064453,117.09890747070312,-6.286627769470215,-13.600765228271484,14.731452941894531,1532.4565782546997
D4:22:CD:00:05:5E,-133.29556274414062,-68.63980102539062,-92.66358947753906,-4.74467658996582,1.990342140197754,1.413644790649414,1532.4565782546997
D4:22:CD:00:05:5D,167.356201171875,-24.56505012512207,-117.5200424194336,-25.09490966796875,-8.459611892700195,16.666297912597656,1532.486096382141
D4:22:CD:00:05:6B,-3.789808988571167,-58.37454605102539,-73.02462768554688,21.425983428955078,-23.408451080322266,51.46470642089844,1532.486096382141
D4:22:CD:00:49:AA,176.5609130859375,-83.64665222167969,100.80268859863281,-8.200347900390625,-3.254680633544922,5.156678199768066,1532.486096382141
D4:22:CD:00:05:6E,39.642364501953125,-61.55409622192383,104.78937530517578,0.21693044900894165,-4.905734062194824,31.74093246459961,1532.486096382141
D4:22:CD:00:05:5E,-135.1847381591797,-69.85261535644531,-91.00373077392578,-5.692295074462891,1.4516074657440186,0.24713993072509766,1532.486096382141
D4:22:CD:00:05:5D,168.95651245117188,-21.28590965270996,-115.29786682128906,-21.41858673095703,-10.19819450378418,16.668895721435547,1532.5165989398956
D4:22:CD:00:05:6B,-36.60371398925781,-56.974308013916016,-63.27212142944336,12.426778793334961,12.336307525634766,14.0670166015625,1532.5165989398956
D4:22:CD:00:49:AA,-179.9171905517578,-82.05147552490234,99.52633666992188,1.5299394130706787,-0.04166281223297119,14.647958755493164,1532.5165989398956
D4:22:CD:00:05:6E,41.6876335144043,-46.523895263671875,95.07076263427734,4.831423759460449,-0.6014411449432373,27.978939056396484,1532.5165989398956
D4:22:CD:00:05:5E,-134.8076629638672,-72.2447509765625,-91.5884017944336,-6.871673583984375,0.49649715423583984,-0.7336854934692383,1532.5165989398956
D4:22:CD:00:05:5D,169.5409698486328,-16.120807647705078,-112.11752319335938,-8.555519104003906,-13.017278671264648,4.617981910705566,1532.5466027259827
D4:22:CD:00:05:6B,-41.567710876464844,-47.09016799926758,-51.97766876220703,2.1078672409057617,-21.721622467041016,30.592082977294922,1532.5466027259827
D4:22:CD:00:49:AA,179.32325744628906,-81.01296997070312,100.92724609375,4.251761436462402,1.5937495231628418,6.130655288696289,1532.5466027259827
D4:22:CD:00:05:6E,46.875648498535156,-30.128402709960938,87.77486419677734,-5.240025520324707,-4.767915725708008,17.340972900390625,1532.5466027259827
D4:22:CD:00:05:5E,-129.4989471435547,-75.23312377929688,-97.86095428466797,-7.7166900634765625,0.8853417634963989,-0.06884002685546875,1532.5466027259827
D4:22:CD:00:05:5D,171.69281005859375,-12.03159236907959,-111.43389892578125,-4.419927597045898,-4.179075241088867,12.254922866821289,1532.5764417648315
D4:22:CD:00:05:6B,-33.10856246948242,-36.85222625732422,-47.333011627197266,15.128534317016602,-16.3572998046875,-3.9006218910217285,1532.5764417648315
D4:22:CD:00:49:AA,174.02731323242188,-80.58482360839844,106.81673431396484,1.8546528816223145,3.8615384101867676,8.86822509765625,1532.5764417648315
D4:22:CD:00:05:6E,50.48023986816406,-15.367629051208496,79.85892486572266,-7.079599380493164,-2.6361870765686035,13.926044464111328,1532.5764417648315
D4:22:CD:00:05:5E,-112.33475494384766,-78.63727569580078,-117.08832550048828,-8.729190826416016,1.4266915321350098,1.8316335678100586,1532.5764417648315
D4:22:CD:00:05:5D,168.01199340820312,-10.254778861999512,-111.8897933959961,-2.8621273040771484,0.735732913017273,2.738347053527832,1532.6066517829895
D4:22:CD:00:05:6B,-39.21837615966797,-31.25201988220215,-43.38715362548828,-2.4620137214660645,-10.149370193481445,-6.665055274963379,1532.6066517829895
D4:22:CD:00:49:AA,168.8960418701172,-79.26068878173828,111.54386901855469,4.239152908325195,0.7138994932174683,8.99273681640625,1532.6066517829895
D4:22:CD:00:05:6E,50.48586654663086,-1.9896260499954224,72.69068908691406,-5.213687896728516,0.7747111320495605,8.29660415649414,1532.6066517829895
D4:22:CD:00:05:5E,-54.933860778808594,-79.29399108886719,-175.30645751953125,-4.071998596191406,-4.49742317199707,12.776163101196289,1532.6066517829895
D4:22:CD:00:05:5D,163.0866241455078,-11.15036392211914,-111.96823120117188,1.8890280723571777,2.8199644088745117,-6.467845916748047,1532.639652967453
D4:22:CD:00:05:6B,-44.57264709472656,-31.004039764404297,-42.241573333740234,-7.779300689697266,-2.1999707221984863,-6.861931800842285,1532.639652967453
D4:22:CD:00:49:AA,163.5688018798828,-78.78966522216797,116.22759246826172,4.016634941101074,0.4575953483581543,4.1927995681762695,1532.639652967453
D4:22:CD:00:05:6E,41.779876708984375,11.702101707458496,67.8413314819336,-14.236526489257812,10.670440673828125,5.9394121170043945,1532.639652967453
D4:22:CD:00:05:5E,-21.93821144104004,-73.45569610595703,157.03961181640625,-8.81928825378418,1.666078805923462,-1.201216697692871,1532.639652967453
D4:22:CD:00:05:5D,159.7557830810547,-15.252115249633789,-111.8080825805664,1.7763392925262451,2.5022969245910645,-16.95815658569336,1532.696995973587
D4:22:CD:00:05:6B,-46.8424072265625,-34.607173919677734,-42.98081588745117,-6.0293169021606445,0.836261510848999,-8.370794296264648,1532.696995973587
D4:22:CD:00:49:AA,160.8240509033203,-77.68390655517578,118.90093231201172,1.0135009288787842,0.04282139241695404,-3.805185317993164,1532.696995973587
D4:22:CD:00:05:6E,17.533620834350586,25.391176223754883,62.447975158691406,-14.244251251220703,6.619351387023926,-17.95404052734375,1532.696995973587
D4:22:CD:00:05:5E,-12.776808738708496,-70.80307006835938,152.67874145507812,-11.857648849487305,11.2891845703125,-13.396156311035156,1532.696995973587
D4:22:CD:00:05:5D,158.49160766601562,-22.45952033996582,-111.2161865234375,-1.1505916118621826,-2.0923595428466797,-21.474578857421875,1532.7270011901855
D4:22:CD:00:05:6B,-50.399864196777344,-40.276390075683594,-44.26976013183594,-4.178664207458496,1.8920831680297852,-9.231910705566406,1532.7270011901855
D4:22:CD:00:49:AA,159.89784240722656,-75.8897705078125,119.79853057861328,-1.1180360317230225,-0.9837136268615723,-9.056436538696289,1532.7270011901855
D4:22:CD:00:05:6E,-12.943887710571289,35.39234161376953,55.888946533203125,2.193753242492676,-11.314460754394531,-16.889057159423828,1532.7270011901855
D4:22:CD:00:05:5E,-23.231779098510742,-73.9429931640625,162.82778930664062,-6.447405815124512,0.0904839038848877,-10.529186248779297,1532.7270011901855
D4:22:CD:00:05:5D,157.25787353515625,-32.50001907348633,-109.90776824951172,-4.351809501647949,-2.958092212677002,-17.256935119628906,1532.756602525711
D4:22:CD:00:05:6B,-54.592857360839844,-47.22366714477539,-46.29585647583008,-2.193509578704834,2.3922648429870605,-9.282648086547852,1532.756602525711
D4:22:CD:00:49:AA,159.54811096191406,-74.55332946777344,120.34225463867188,-0.8259086608886719,0.40941423177719116,-8.70655632019043,1532.756602525711
D4:22:CD:00:05:6E,-31.861536026000977,42.68207550048828,50.93121337890625,6.2831830978393555,-7.1148834228515625,-3.576878547668457,1532.756602525711
D4:22:CD:00:05:5E,-50.2926025390625,-76.36864471435547,-176.0706787109375,3.441317558288574,-3.603590488433838,-7.03645133972168,1532.756602525711
D4:22:CD:00:05:5D,153.68052673339844,-45.62550735473633,-106.97455596923828,-5.598609924316406,-5.372471809387207,-12.770673751831055,1532.7865533828735
D4:22:CD:00:05:6B,-56.807621002197266,-54.947208404541016,-49.199607849121094,-1.2703518867492676,2.4539356231689453,-7.863120079040527,1532.7865533828735
D4:22:CD:00:49:AA,156.49317932128906,-74.55004119873047,123.06623840332031,1.0927624702453613,0.9653404951095581,-8.059164047241211,1532.7865533828735
D4:22:CD:00:05:6E,-34.96966552734375,48.706356048583984,48.710880279541016,1.3708429336547852,-1.360935926437378,-4.89499568939209,1532.7865533828735
D4:22:CD:00:05:5E,-60.57858657836914,-75.96513366699219,-171.4674072265625,-4.499611854553223,8.554498672485352,-9.956745147705078,1532.7865533828735
D4:22:CD:00:05:5D,146.7532501220703,-61.34525680541992,-100.26399230957031,-2.0800580978393555,-5.506366729736328,-3.120022773742676,1532.816882133484
D4:22:CD:00:05:6B,-56.71141815185547,-62.95045471191406,-52.90566635131836,-0.3714216947555542,3.032052516937256,-6.239907264709473,1532.816882133484
D4:22:CD:00:49:AA,150.1379852294922,-74.90780639648438,127.89966583251953,1.655407428741455,2.032658576965332,-9.333927154541016,1532.816882133484
D4:22:CD:00:05:6E,-25.216501235961914,54.84973907470703,49.69996643066406,-1.5451247692108154,-0.11320115625858307,-12.251199722290039,1532.816882133484
D4:22:CD:00:05:5E,-59.253440856933594,-75.999267578125,-171.7748260498047,-3.7647833824157715,-1.8802390098571777,-6.4766435623168945,1532.816882133484
D4:22:CD:00:05:5D,128.2274932861328,-77.36376190185547,-77.92123413085938,5.943794250488281,-3.696286201477051,12.893667221069336,1532.8471071720123
D4:22:CD:00:05:6B,-53.44149398803711,-70.912109375,-58.89048767089844,1.1970911026000977,3.75665283203125,-5.5095672607421875,1532.8471071720123
D4:22:CD:00:49:AA,143.5829315185547,-74.78924560546875,131.7468719482422,1.6758925914764404,0.7209904193878174,-6.322600364685059,1532.8471071720123
D4:22:CD:00:05:6E,-7.505860805511475,61.71672439575195,58.622474670410156,-3.456636428833008,1.041673183441162,-16.930770874023438,1532.8471071720123
D4:22:CD:00:05:5E,-60.68889617919922,-76.21138000488281,-168.37838745117188,-4.533636093139648,-6.545774459838867,-0.43872642517089844,1532.8471071720123
D4:22:CD:00:05:5D,43.535457611083984,-80.5777359008789,16.15132713317871,21.966079711914062,12.818838119506836,18.315696716308594,1532.8764185905457
D4:22:CD:00:05:6B,-42.45126724243164,-78.59839630126953,-72.12847900390625,1.6913690567016602,3.4341087341308594,-4.910231590270996,1532.8764185905457
D4:22:CD:00:49:AA,138.94895935058594,-75.37635803222656,134.98240661621094,-3.7032175064086914,-2.257357120513916,-3.328104019165039,1532.8764185905457
D4:22:CD:00:05:6E,18.539731979370117,66.24270629882812,84.5927963256836,-7.49137020111084,4.546978950500488,-26.384197235107422,1532.8764185905457
D4:22:CD:00:05:5E,-77.17076873779297,-76.46566009521484,-152.5757598876953,-5.3393049240112305,-3.826221466064453,3.7711181640625,1532.8764185905457
D4:22:CD:00:05:5D,33.8604736328125,-75.33212280273438,32.76572799682617,-6.602972984313965,30.88729476928711,-18.474281311035156,1532.9064955711365
D4:22:CD:00:05:6B,0.4058302640914917,-84.35948181152344,-117.32337951660156,1.2420451641082764,4.954418182373047,-1.3365230560302734,1532.9064955711365
D4:22:CD:00:49:AA,142.52117919921875,-76.6391830444336,134.02854919433594,-3.63859224319458,-5.298171043395996,-3.6820602416992188,1532.9064955711365
D4:22:CD:00:05:6E,40.70180130004883,63.376895904541016,112.08689880371094,-8.273420333862305,10.29629898071289,-28.166797637939453,1532.9064955711365
D4:22:CD:00:05:5E,-92.10314178466797,-75.48343658447266,-140.22654724121094,-7.644762992858887,4.1072893142700195,1.0502901077270508,1532.9064955711365
D4:22:CD:00:05:5D,43.97688293457031,-76.85203552246094,16.71922492980957,11.449628829956055,13.451448440551758,-4.441798210144043,1532.936609506607
D4:22:CD:00:05:6B,68.70099639892578,-82.24230194091797,169.57627868652344,0.207780122756958,2.9284768104553223,3.0899429321289062,1532.936609506607
D4:22:CD:00:49:AA,154.78076171875,-76.4052963256836,124.54993438720703,6.275974273681641,0.48576903343200684,2.1285037994384766,1532.936609506607
D4:22:CD:00:05:6E,39.84149169921875,63.794166564941406,105.47418975830078,10.290679931640625,-7.690268516540527,2.078510284423828,1532.936609506607
D4:22:CD:00:05:5E,-89.47234344482422,-74.69068908691406,-143.0867462158203,-7.9087419509887695,-1.444009780883789,5.242036819458008,1532.936609506607
D4:22:CD:00:05:5D,82.75999450683594,-77.57550811767578,-24.017847061157227,8.39759635925293,4.861021995544434,7.831745147705078,1532.9963464736938
D4:22:CD:00:05:6B,88.71111297607422,-77.92829132080078,140.9176483154297,-1.6479723453521729,6.556815147399902,10.332115173339844,1532.9963464736938
D4:22:CD:00:49:AA,163.3126983642578,-76.7711181640625,117.38549041748047,10.620838165283203,4.456172943115234,11.091266632080078,1532.9963464736938
D4:22:CD:00:05:6E,30.145450592041016,65.17961883544922,82.90989685058594,-3.1689023971557617,5.0014848709106445,-9.39146614074707,1532.9963464736938
D4:22:CD:00:05:5E,-81.78733825683594,-73.32884979248047,-150.26223754882812,-5.236225128173828,-1.3511629104614258,6.6344146728515625,1532.9963464736938
D4:22:CD:00:05:5D,117.28258514404297,-73.33494567871094,-55.75872039794922,10.73843002319336,-8.890249252319336,5.217266082763672,1533.026755809784
D4:22:CD:00:05:6B,97.06694030761719,-75.79608917236328,129.40713500976562,-1.7870655059814453,12.210325241088867,11.340896606445312,1533.026755809784
D4:22:CD:00:49:AA,169.48739624023438,-76.66462707519531,111.30923461914062,4.149806976318359,-0.7801792621612549,4.791869163513184,1533.026755809784
D4:22:CD:00:05:6E,4.918251037597656,61.8076057434082,54.31656265258789,-2.5460572242736816,2.6111621856689453,-9.96006965637207,1533.026755809784
D4:22:CD:00:05:5E,-73.40778350830078,-71.25465393066406,-157.6407928466797,-6.304543495178223,-0.5553257465362549,2.7011423110961914,1533.026755809784
D4:22:CD:00:05:5D,130.78163146972656,-69.88862609863281,-66.19013214111328,-2.228785991668701,-17.595462799072266,-0.41510581970214844,1533.05628323555
D4:22:CD:00:05:6B,114.69424438476562,-76.45443725585938,122.77124786376953,-5.516116142272949,6.62940788269043,10.607025146484375,1533.05628323555
D4:22:CD:00:49:AA,175.46737670898438,-75.55989074707031,106.6635513305664,-0.8046778440475464,-1.3029167652130127,4.625502586364746,1533.05628323555
D4:22:CD:00:05:6E,-9.11237621307373,51.85321044921875,34.30622863769531,-4.923951148986816,5.545947074890137,-8.908594131469727,1533.05628323555
D4:22:CD:00:05:5E,-65.14434814453125,-68.17143249511719,-165.56515502929688,-7.076998710632324,-2.5296764373779297,-0.13070964813232422,1533.05628323555
D4:22:CD:00:05:5D,136.25241088867188,-72.03121185302734,-70.7668685913086,0.5099256038665771,0.8584815263748169,6.812282562255859,1533.086804151535
D4:22:CD:00:05:6B,143.97265625,-80.33856964111328,109.10753631591797,-0.4087703824043274,0.8431940078735352,12.654924392700195,1533.086804151535
D4:22:CD:00:49:AA,-177.66262817382812,-74.43824005126953,103.62100982666016,-0.08291570842266083,-2.652106285095215,1.4475507736206055,1533.086804151535
D4:22:CD:00:05:6E,-15.38381290435791,39.641876220703125,23.75311851501465,-13.580066680908203,-2.1606454849243164,-5.19936466217041,1533.086804151535
D4:22:CD:00:05:5E,-52.527488708496094,-64.69189453125,-173.7490692138672,-9.690135955810547,7.956521034240723,-5.791589736938477,1533.086804151535
D4:22:CD:00:05:5D,142.69703674316406,-74.4331283569336,-79.25938415527344,-10.896282196044922,-2.8816938400268555,2.9571781158447266,1533.1168019771576
D4:22:CD:00:05:6B,-167.69241333007812,-83.56842803955078,74.53736114501953,7.17893123626709,-0.6947038173675537,5.016911506652832,1533.1168019771576
D4:22:CD:00:49:AA,-168.45376586914062,-73.08251190185547,100.005859375,-1.9429426193237305,0.17192929983139038,-1.1417007446289062,1533.1168019771576
D4:22:CD:00:05:6E,-18.18130874633789,26.321401596069336,16.582225799560547,-8.2989501953125,-8.10226058959961,-5.026675224304199,1533.1168019771576
D4:22:CD:00:05:5E,-38.36371994018555,-62.071128845214844,-173.5917205810547,-24.234161376953125,15.329641342163086,-10.065084457397461,1533.1168019771576
D4:22:CD:00:05:5D,152.3863525390625,-75.49748992919922,-85.51869201660156,1.8393385410308838,-3.6304192543029785,1.0400886535644531,1533.1464104652405
D4:22:CD:00:05:6B,-121.19054412841797,-82.28693389892578,34.84153747558594,8.76701545715332,-2.1703786849975586,-5.23029899597168,1533.1464104652405
D4:22:CD:00:49:AA,-165.9127960205078,-72.04887390136719,101.31998443603516,-4.737659454345703,2.758723735809326,-4.579819679260254,1533.1464104652405
D4:22:CD:00:05:6E,-15.05217170715332,11.737068176269531,8.91382884979248,1.7334353923797607,-8.12081527709961,-6.339608192443848,1533.1464104652405
D4:22:CD:00:05:5E,-39.11628723144531,-64.04265594482422,-159.2483673095703,-28.69554901123047,-3.34181547164917,-10.745790481567383,1533.1464104652405
D4:22:CD:00:05:5D,163.23912048339844,-76.65345001220703,-93.78026580810547,2.0304579734802246,0.22843024134635925,1.3027925491333008,1533.1764657497406
D4:22:CD:00:05:6B,-104.0665283203125,-79.51616668701172,17.30793571472168,1.7720730304718018,-6.051027297973633,-7.923062324523926,1533.1764657497406
D4:22:CD:00:49:AA,-169.24850463867188,-70.39324951171875,105.77896881103516,-1.3329031467437744,-0.7356745004653931,-0.4528675079345703,1533.1764657497406
D4:22:CD:00:05:6E,-3.5578904151916504,-1.4841896295547485,-0.15256142616271973,6.702589988708496,-15.626241683959961,0.7460308074951172,1533.1764657497406
D4:22:CD:00:05:5E,-65.85211181640625,-68.34676361083984,-129.154541015625,-16.95199203491211,-6.49332332611084,-7.586239814758301,1533.1764657497406
D4:22:CD:00:05:5D,172.98182678222656,-77.85352325439453,-104.39322662353516,-0.3227897882461548,-0.4539176821708679,0.030449867248535156,1533.206464290619
D4:22:CD:00:05:6B,-97.1160888671875,-78.23235321044922,7.590692520141602,-8.897298812866211,-6.80817985534668,-4.254021644592285,1533.206464290619
D4:22:CD:00:49:AA,-172.2344207763672,-68.72195434570312,108.6922607421875,0.2977854013442993,0.9921219348907471,1.0584745407104492,1533.206464290619
D4:22:CD:00:05:6E,20.763376235961914,-9.787501335144043,-7.2025146484375,-0.7810903787612915,-10.305599212646484,-9.636100769042969,1533.206464290619
D4:22:CD:00:05:5E,-101.37916564941406,-68.67695617675781,-93.1596450805664,-3.983948230743408,-4.091923713684082,-10.969619750976562,1533.206464290619
D4:22:CD:00:05:5D,-178.76577758789062,-78.14533996582031,-111.90322875976562,2.3052568435668945,-1.5276901721954346,-0.34894371032714844,1533.2365260124207
D4:22:CD:00:05:6B,-86.61942291259766,-78.55644989013672,-5.2559661865234375,-6.889411926269531,-3.59852933883667,-3.3378705978393555,1533.2365260124207
D4:22:CD:00:49:AA,-174.75425720214844,-67.63338470458984,110.46818542480469,-1.3611044883728027,2.962855339050293,-1.0164709091186523,1533.2365260124207
D4:22:CD:00:05:6E,39.25381851196289,-15.714149475097656,-11.683429718017578,2.2660012245178223,22.425941467285156,3.34311580657959,1533.2365260124207
D4:22:CD:00:05:5E,-127.33777618408203,-65.13766479492188,-68.07545471191406,4.875506401062012,-3.7343826293945312,-12.631904602050781,1533.2365260124207
D4:22:CD:00:05:5D,-175.4109649658203,-77.57575988769531,-115.74304962158203,-1.1486890316009521,-1.8611178398132324,-1.3693246841430664,1533.2963898181915
D4:22:CD:00:05:6B,-75.70311737060547,-78.01213836669922,-21.0241756439209,-3.793679714202881,-5.661703109741211,-5.166385650634766,1533.2963898181915
D4:22:CD:00:49:AA,-175.96878051757812,-67.3113784790039,110.19426727294922,-2.3061866760253906,2.114342212677002,-2.1826171875,1533.2963898181915
D4:22:CD:00:05:6E,42.165283203125,-18.2850284576416,-16.207172393798828,-3.4027347564697266,-3.4869375228881836,1.915273666381836,1533.2963898181915
D4:22:CD:00:05:5E,-145.66944885253906,-61.961299896240234,-54.33285903930664,-2.4735684394836426,-4.659956932067871,-11.352851867675781,1533.2963898181915
D4:22:CD:00:05:5D,-175.79702758789062,-75.712890625,-114.99921417236328,1.5147411823272705,-4.061098098754883,-0.5402250289916992,1533.3263185024261
D4:22:CD:00:05:6B,-69.43895721435547,-76.15591430664062,-34.826080322265625,-2.8644614219665527,-2.0952224731445312,-3.2315688133239746,1533.3263185024261
D4:22:CD:00:49:AA,-177.95989990234375,-67.64478302001953,110.01545715332031,-0.9005122184753418,1.1532115936279297,-4.664507865905762,1533.3263185024261
D4:22:CD:00:05:6E,53.12260437011719,-18.938922882080078,-16.591079711914062,-5.931926727294922,-6.938129425048828,-5.455514907836914,1533.3263185024261
D4:22:CD:00:05:5E,-164.40980529785156,-60.24875259399414,-44.62868881225586,7.7508344650268555,-1.899714469909668,-2.024412155151367,1533.3263185024261
D4:22:CD:00:05:5D,-178.53883361816406,-72.97388458251953,-110.55158996582031,-1.1916608810424805,0.05181119590997696,-0.07835102081298828,1533.3564720153809
D4:22:CD:00:05:6B,-65.9485855102539,-72.52021789550781,-47.128292083740234,-3.424834728240967,1.5227346420288086,-2.7796053886413574,1533.3564720153809
D4:22:CD:00:49:AA,175.93836975097656,-68.11994171142578,112.90363311767578,-0.6881923675537109,0.8651210069656372,-5.749887466430664,1533.3564720153809
D4:22:CD:00:05:6E,68.46621704101562,-21.82493782043457,-13.770833015441895,-2.645106315612793,2.7756290435791016,-3.022101879119873,1533.3564720153809
D4:22:CD:00:05:5E,-177.84193420410156,-61.670448303222656,-37.76642608642578,8.357276916503906,-6.055673599243164,-1.6919708251953125,1533.3564720153809
D4:22:CD:00:05:5D,176.51089477539062,-69.06394958496094,-103.97270965576172,2.4068808555603027,-4.149035453796387,-5.506854057312012,1533.3869876861572
D4:22:CD:00:05:6B,-63.99814987182617,-67.64398956298828,-57.645545959472656,-0.6105597019195557,2.5524349212646484,-4.820892333984375,1533.3869876861572
D4:22:CD:00:49:AA,165.2404022216797,-69.32470703125,119.42528533935547,-2.3109936714172363,0.1381947100162506,-5.662783622741699,1533.3869876861572
D4:22:CD:00:05:6E,79.02837371826172,-29.340679168701172,-10.74687671661377,-0.4507795572280884,-0.23346194624900818,-0.9917545318603516,1533.3869876861572
D4:22:CD:00:05:5E,-179.4482421875,-65.80961608886719,-33.17692184448242,-13.292667388916016,8.911521911621094,23.2501220703125,1533.3869876861572
D4:22:CD:00:05:5D,175.62387084960938,-64.37420654296875,-100.16468048095703,1.7201125621795654,0.5040602684020996,0.15663719177246094,1533.4159967899323
D4:22:CD:00:05:6B,-61.353084564208984,-62.20767593383789,-67.46536254882812,0.684328556060791,3.023250102996826,-5.7101335525512695,1533.4159967899323
D4:22:CD:00:49:AA,155.0406036376953,-69.99297332763672,126.88308715820312,-4.773972511291504,1.4281671047210693,-1.9944310188293457,1533.4159967899323
D4:22:CD:00:05:6E,83.32463073730469,-42.176544189453125,-7.886122226715088,2.771078109741211,-6.168987274169922,7.917451858520508,1533.4159967899323
D4:22:CD:00:05:5E,-179.15518188476562,-65.43379974365234,-31.306360244750977,15.526739120483398,-1.771852731704712,-2.4741058349609375,1533.4159967899323
D4:22:CD:00:05:5D,173.9405975341797,-59.32767105102539,-98.15739440917969,-1.8990025520324707,0.013074837625026703,-0.0032262802124023438,1533.446461200714
D4:22:CD:00:05:6B,-58.714500427246094,-57.093955993652344,-75.90176391601562,-0.21003007888793945,3.359355926513672,-4.487082481384277,1533.446461200714
D4:22:CD:00:49:AA,147.10447692871094,-69.31482696533203,133.55581665039062,0.7090623378753662,-1.9167206287384033,-0.5481014251708984,1533.446461200714
D4:22:CD:00:05:6E,75.75611877441406,-59.65774154663086,-0.9873007535934448,8.948843002319336,-7.1025238037109375,18.992023468017578,1533.446461200714
D4:22:CD:00:05:5E,-179.26419067382812,-65.80968475341797,-28.94517707824707,4.683173179626465,-4.118114471435547,12.843164443969727,1533.446461200714
D4:22:CD:00:05:5D,173.04244995117188,-54.23231887817383,-96.56294250488281,1.0723669528961182,0.012393569573760033,-0.6279497146606445,1533.4770987033844
D4:22:CD:00:05:6B,-57.485023498535156,-51.485836029052734,-82.44493103027344,-2.2467246055603027,8.432403564453125,7.144702911376953,1533.4770987033844
D4:22:CD:00:49:AA,140.1888885498047,-69.03455352783203,139.4451904296875,3.204707622528076,3.4824166297912598,2.4425411224365234,1533.4770987033844
D4:22:CD:00:05:6E,53.17945861816406,-73.41185760498047,21.136707305908203,2.79681396484375,-2.7324209213256836,35.033042907714844,1533.4770987033844
D4:22:CD:00:05:5E,-175.3117218017578,-64.33002471923828,-27.915321350097656,8.439208984375,1.4332444667816162,14.986711502075195,1533.4770987033844
D4:22:CD:00:05:5D,173.48226928710938,-50.26300811767578,-96.51042175292969,-2.1051740646362305,1.035200834274292,2.096010208129883,1533.5086243152618
D4:22:CD:00:05:6B,-57.94072723388672,-42.26416778564453,-87.23526763916016,0.5431299209594727,12.984516143798828,18.276470184326172,1533.5086243152618
D4:22:CD:00:49:AA,135.5309295654297,-68.67752838134766,141.7913360595703,-4.478687286376953,1.8630223274230957,9.924531936645508,1533.5086243152618
D4:22:CD:00:05:6E,56.208492279052734,-72.56796264648438,18.275693893432617,13.634500503540039,-8.538383483886719,-5.0199127197265625,1533.5086243152618
D4:22:CD:00:05:5E,-168.00462341308594,-59.84916305541992,-29.76864242553711,8.317291259765625,-5.895700454711914,23.03104019165039,1533.5086243152618
D4:22:CD:00:05:5D,174.68995666503906,-47.81272506713867,-97.4593734741211,1.0361182689666748,1.4200823307037354,0.6351299285888672,1533.5371997356415
D4:22:CD:00:05:6B,-58.376808166503906,-29.051328659057617,-88.97257232666016,6.416808128356934,16.809608459472656,27.944671630859375,1533.5371997356415
D4:22:CD:00:49:AA,132.43252563476562,-68.5029525756836,143.31588745117188,-5.922515869140625,-3.195765972137451,9.978015899658203,1533.5371997356415
D4:22:CD:00:05:6E,67.8710708618164,-69.56010437011719,16.936012268066406,16.65460205078125,1.2191903591156006,8.159202575683594,1533.5371997356415
D4:22:CD:00:05:5E,-165.2046356201172,-51.4415168762207,-32.895816802978516,5.028792381286621,-12.403884887695312,18.030147552490234,1533.5371997356415
