Device,EulerX,EulerY,EulerZ,FreeAccX,FreeAccY,FreeAccZ,Timestamp
D4:22:CD:00:05:5D,-176.89801025390625,-53.392478942871094,-64.48054504394531,0.8355495929718018,-0.019787266850471497,1.031998634338379,470.5661108493805
D4:22:CD:00:05:6B,-54.87812042236328,-16.136688232421875,-44.27700424194336,3.8600473403930664,0.3264198303222656,14.681903839111328,470.5661108493805
D4:22:CD:00:49:AA,143.55369567871094,-73.2466049194336,151.1776123046875,-2.5241732597351074,-1.8131489753723145,4.847400665283203,470.5661108493805
D4:22:CD:00:05:6E,100.8593521118164,10.090250015258789,-29.62481117248535,11.39266586303711,3.934999465942383,-4.509584426879883,470.5661108493805
D4:22:CD:00:05:5E,175.99722290039062,-34.88481903076172,2.2297706604003906,12.269058227539062,10.427627563476562,-2.594461441040039,470.5661108493805
D4:22:CD:00:05:6B,-49.550575256347656,-0.5365738272666931,-43.74612045288086,7.884510040283203,-1.6198680400848389,3.332742691040039,470.5781145095825
D4:22:CD:00:49:AA,148.27577209472656,-72.9405288696289,147.6693878173828,-4.415021896362305,-0.5434509515762329,2.0744810104370117,470.5781145095825
D4:22:CD:00:05:6E,105.6328125,11.331299781799316,-20.20098114013672,4.12669563293457,5.349286079406738,-6.711235046386719,470.5781145095825
D4:22:CD:00:05:5E,-174.51768493652344,-37.847381591796875,-2.2203612327575684,2.9932169914245605,7.77433967590332,1.708139419555664,470.5781145095825
D4:22:CD:00:05:5D,-141.39488220214844,-77.73116302490234,-165.57119750976562,-0.07429268956184387,7.080913543701172,-1.604660987854004,470.58411693573
D4:22:CD:00:05:6B,-63.4129524230957,-44.855140686035156,-69.38722229003906,0.37816286087036133,0.07492808997631073,1.1495275497436523,470.58411693573
D4:22:CD:00:05:6E,112.0363540649414,5.2060346603393555,-10.636892318725586,-1.9648687839508057,5.757107734680176,-4.457823753356934,470.58411693573
D4:22:CD:00:05:5E,-166.78475952148438,-42.191978454589844,-7.871385097503662,1.382800817489624,3.857844352722168,-2.1523051261901855,470.58411693573
D4:22:CD:00:05:5D,-178.11459350585938,-69.66463470458984,-130.1267547607422,-1.112422227859497,-0.11852310597896576,1.2803573608398438,470.588360786438
D4:22:CD:00:05:6B,-63.76420211791992,-42.611759185791016,-69.13411712646484,-0.13763651251792908,0.8810503482818604,1.2687854766845703,470.588360786438
D4:22:CD:00:49:AA,52.52720642089844,-88.32252502441406,-124.55541229248047,-1.6851012706756592,-0.6929441690444946,7.917440414428711,470.588360786438
D4:22:CD:00:05:6E,115.78251647949219,-6.968979358673096,-2.6874616146087646,-3.464545726776123,3.4892029762268066,-0.931422233581543,470.588360786438
D4:22:CD:00:05:5E,-159.22642517089844,-48.141849517822266,-14.94151496887207,1.394890546798706,-0.5312033891677856,-4.731814384460449,470.588360786438
D4:22:CD:00:05:5D,172.8466033935547,-55.669334411621094,-122.79312896728516,-1.1275513172149658,1.1202514171600342,1.5748491287231445,470.59236097335815
D4:22:CD:00:05:6B,-59.00876998901367,-30.39297866821289,-64.5969009399414,1.3935792446136475,-0.4517841339111328,7.942888259887695,470.59236097335815
D4:22:CD:00:49:AA,-74.2121810913086,-85.91908264160156,2.040958881378174,2.2298502922058105,1.6555790901184082,9.38368034362793,470.59236097335815
D4:22:CD:00:05:6E,65.1858139038086,-56.63185501098633,76.37906646728516,1.7316243648529053,5.911048889160156,11.138580322265625,470.59236097335815
D4:22:CD:00:05:5D,171.62628173828125,-54.32997131347656,-122.40460205078125,0.6235870122909546,2.1256933212280273,1.1083412170410156,470.60435581207275
D4:22:CD:00:05:6B,-59.693729400634766,-25.243274688720703,-59.36349868774414,-0.8679988384246826,-0.2301628589630127,15.92877197265625,470.60435581207275
D4:22:CD:00:49:AA,-57.05628967285156,-87.00212860107422,-16.179758071899414,3.2670974731445312,1.6733043193817139,7.3294830322265625,470.60435581207275
D4:22:CD:00:05:6E,67.62873840332031,-57.15238571166992,76.78984832763672,1.7071547508239746,8.852188110351562,6.547943115234375,470.60435581207275
D4:22:CD:00:05:5E,159.00082397460938,-61.56926727294922,-10.136528015136719,2.741612434387207,1.177751064300537,11.399637222290039,470.60435581207275
D4:22:CD:00:05:5D,170.71693420410156,-54.27806854248047,-121.20945739746094,0.9133081436157227,1.6096463203430176,-0.17659664154052734,470.6542081832886
D4:22:CD:00:05:6B,-58.64376449584961,-18.99163055419922,-52.179927825927734,0.36199986934661865,-0.7602759599685669,18.716102600097656,470.6542081832886
D4:22:CD:00:49:AA,-11.733484268188477,-88.78437042236328,-63.15469741821289,1.913475513458252,-1.261122226715088,4.838991165161133,470.6542081832886
D4:22:CD:00:05:6E,73.73889923095703,-64.93889617919922,81.62076568603516,-4.4813947677612305,9.159019470214844,-2.916633129119873,470.6542081832886
D4:22:CD:00:05:5E,163.4854736328125,-63.91204833984375,-14.069445610046387,6.067022323608398,1.6480417251586914,12.070371627807617,470.6542081832886
D4:22:CD:00:05:5D,170.55136108398438,-55.3436393737793,-118.73539733886719,0.11277167499065399,0.1248185783624649,0.5646963119506836,470.684207201004
D4:22:CD:00:05:6B,-52.07176971435547,-12.101151466369629,-44.94454574584961,3.7536282539367676,-4.605524063110352,17.28418731689453,470.684207201004
D4:22:CD:00:49:AA,104.12395477294922,-88.96448516845703,-179.03221130371094,-0.19057250022888184,-2.5301384925842285,1.5755338668823242,470.684207201004
D4:22:CD:00:05:6E,84.77574920654297,-74.4349136352539,83.20918273925781,-10.892143249511719,6.159704208374023,-5.346503257751465,470.684207201004
D4:22:CD:00:05:5E,-173.3781280517578,-72.96566772460938,-35.225746154785156,9.231681823730469,0.9502862691879272,9.073192596435547,470.684207201004
D4:22:CD:00:05:5D,171.36094665527344,-56.8671989440918,-115.654052734375,0.3085287809371948,-0.3909222483634949,-0.07376861572265625,470.7137203216553
D4:22:CD:00:05:6B,-37.190982818603516,-4.485371112823486,-41.40983963012695,12.180139541625977,-3.98506498336792,17.01834487915039,470.7137203216553
D4:22:CD:00:49:AA,136.11285400390625,-88.3700942993164,149.356201171875,-1.9181971549987793,-2.6089391708374023,-1.316481590270996,470.7137203216553
D4:22:CD:00:05:6E,107.67530059814453,-84.91912841796875,70.9594497680664,-12.160348892211914,2.6470494270324707,-7.784200668334961,470.7137203216553
D4:22:CD:00:05:5E,-130.81993103027344,-77.26536560058594,-77.24676513671875,-10.819391250610352,4.042697906494141,3.990006446838379,470.7137203216553
D4:22:CD:00:05:5D,172.5066680908203,-58.60001754760742,-113.9163818359375,1.2817461490631104,-1.2675902843475342,0.7667121887207031,470.7441556453705
D4:22:CD:00:05:6B,-18.24186134338379,5.061589241027832,-41.49644088745117,6.797260284423828,-9.54930305480957,4.0814208984375,470.7441556453705
D4:22:CD:00:49:AA,169.26792907714844,-88.59793090820312,117.95452880859375,-2.5359764099121094,-2.016758918762207,-1.5300350189208984,470.7441556453705
D4:22:CD:00:05:6E,-93.1640853881836,-82.37872314453125,-81.02577209472656,-8.956510543823242,-3.854358196258545,-10.118770599365234,470.7441556453705
D4:22:CD:00:05:5E,-121.0462646484375,-74.671630859375,-89.98103332519531,6.0260820388793945,0.6309515237808228,2.1557674407958984,470.7441556453705
D4:22:CD:00:05:5D,173.79734802246094,-60.92948913574219,-114.14590454101562,0.602924108505249,-0.3636006712913513,0.27501583099365234,470.7771940231323
D4:22:CD:00:05:6B,-3.5737757682800293,15.359258651733398,-42.165645599365234,2.5304574966430664,-12.054542541503906,-2.994704246520996,470.7771940231323
D4:22:CD:00:49:AA,-145.4176025390625,-88.21305084228516,75.4697494506836,-0.13436949253082275,-0.41240954399108887,-0.5768308639526367,470.7771940231323
D4:22:CD:00:05:6E,-78.15739440917969,-68.92063903808594,-93.1740493774414,-3.7915053367614746,-6.1494140625,-9.946298599243164,470.7771940231323
D4:22:CD:00:05:5E,-95.15901947021484,-71.57640838623047,-112.04362487792969,-1.834352731704712,2.08089542388916,-0.766840934753418,470.7771940231323
D4:22:CD:00:05:5D,174.9490203857422,-63.81245040893555,-114.67412567138672,0.43548572063446045,-0.10998088121414185,0.1592416763305664,470.8094654083252
D4:22:CD:00:05:6B,6.835780620574951,25.42721939086914,-42.86735153198242,-2.4149603843688965,-12.51158332824707,-9.85220718383789,470.8094654083252
D4:22:CD:00:49:AA,-134.0346221923828,-87.74553680419922,67.03679656982422,0.8163880109786987,1.2867984771728516,-3.041804313659668,470.8094654083252
D4:22:CD:00:05:6E,-67.28315734863281,-54.570396423339844,-99.95523071289062,-1.8048481941223145,-10.947269439697266,-6.675240516662598,470.8094654083252
D4:22:CD:00:05:5E,-75.00743865966797,-67.13627624511719,-129.18751525878906,-2.5714988708496094,1.0142030715942383,-4.494438171386719,470.8094654083252
D4:22:CD:00:05:5D,176.00289916992188,-67.07299041748047,-115.4872055053711,-0.4031100869178772,0.34082192182540894,0.07540225982666016,470.8443760871887
D4:22:CD:00:05:6B,11.447822570800781,34.142478942871094,-42.48173141479492,-5.643499374389648,-9.478010177612305,-12.388736724853516,470.8443760871887
D4:22:CD:00:49:AA,-141.29803466796875,-87.34554290771484,76.84710693359375,-0.4508374333381653,0.8380366563796997,-4.389010429382324,470.8443760871887
D4:22:CD:00:05:6E,-57.02023696899414,-39.40634536743164,-103.63228607177734,-2.3384294509887695,-16.99786376953125,-5.057967185974121,470.8443760871887
D4:22:CD:00:05:5E,-57.82138442993164,-62.17885208129883,-145.2018585205078,-3.2319822311401367,-1.4827091693878174,-7.424444198608398,470.8443760871887
D4:22:CD:00:05:5D,176.95582580566406,-70.28363037109375,-117.04268646240234,-0.2610622048377991,-1.4853088855743408,-0.3655719757080078,470.87437677383423
D4:22:CD:00:05:6B,9.307032585144043,41.62101364135742,-42.113746643066406,-1.9932355880737305,0.612765908241272,-9.902048110961914,470.87437677383423
D4:22:CD:00:49:AA,-151.6826171875,-86.73667907714844,89.31536865234375,-0.45228004455566406,0.18466338515281677,-3.7071480751037598,470.87437677383423
D4:22:CD:00:05:6E,-47.980934143066406,-25.198528289794922,-103.65460205078125,-5.595335006713867,-20.37970733642578,-8.601198196411133,470.87437677383423
D4:22:CD:00:05:5E,-44.1023063659668,-56.30718994140625,-160.59994506835938,-5.900318145751953,-1.336134910583496,-6.706857681274414,470.87437677383423
D4:22:CD:00:05:5D,178.2266082763672,-72.98709869384766,-118.99393463134766,-0.9094058275222778,-0.683701753616333,-1.018040657043457,470.9046642780304
D4:22:CD:00:05:6B,7.51643705368042,48.69545364379883,-48.4901237487793,-0.9874356985092163,-0.24723201990127563,-5.491192817687988,470.9046642780304
D4:22:CD:00:49:AA,-158.8614501953125,-86.79985809326172,98.06766510009766,0.5202529430389404,-0.5958023071289062,-3.4534554481506348,470.9046642780304
D4:22:CD:00:05:6E,-36.66093826293945,-16.368614196777344,-99.83633422851562,-0.6197584867477417,-16.403148651123047,-12.883529663085938,470.9046642780304
D4:22:CD:00:05:5E,-36.98993682861328,-49.74901580810547,-172.8311767578125,-11.254951477050781,0.7592792510986328,-7.397313117980957,470.9046642780304
D4:22:CD:00:05:5D,178.20901489257812,-74.8908920288086,-119.50247955322266,-0.12928593158721924,-2.0894227027893066,-1.4726924896240234,470.9542999267578
D4:22:CD:00:05:6B,6.709702968597412,54.236873626708984,-68.73604583740234,4.317602157592773,8.502609252929688,-5.715397834777832,470.9542999267578
D4:22:CD:00:49:AA,-168.4661407470703,-87.14363861083984,108.54151153564453,0.6319160461425781,-0.2628893256187439,-2.614224433898926,470.9542999267578
D4:22:CD:00:05:6E,-24.824079513549805,-14.842156410217285,-96.71903991699219,10.566980361938477,-10.557519912719727,-12.485843658447266,470.9542999267578
D4:22:CD:00:05:5E,-36.37202072143555,-43.855098724365234,178.5624237060547,-18.7752685546875,3.6451239585876465,-7.83443546295166,470.9542999267578
D4:22:CD:00:05:5D,176.85977172851562,-75.9244384765625,-117.4637222290039,0.5979084968566895,-2.1677498817443848,-0.6054553985595703,470.9843039512634
D4:22:CD:00:05:6B,-12.899133682250977,52.240020751953125,-93.6218032836914,4.543304443359375,1.6642727851867676,-16.142379760742188,470.9843039512634
D4:22:CD:00:49:AA,168.15164184570312,-87.29723358154297,131.3328399658203,0.8663296699523926,-0.20809435844421387,-2.022350311279297,470.9843039512634
D4:22:CD:00:05:6E,-22.18067169189453,-18.084753036499023,-95.5374755859375,8.14889144897461,-8.614534378051758,-15.712356567382812,470.9843039512634
D4:22:CD:00:05:5E,-41.23019027709961,-40.889366149902344,174.51837158203125,-20.40948486328125,10.257757186889648,-21.279945373535156,470.9843039512634
D4:22:CD:00:05:5D,172.95263671875,-76.1659164428711,-113.13059997558594,-0.5882965326309204,-1.7894532680511475,-0.45892906188964844,471.0142424106598
D4:22:CD:00:05:6B,-45.71221923828125,42.99981689453125,-113.67922973632812,-13.096551895141602,-9.889884948730469,-31.734180450439453,471.0142424106598
D4:22:CD:00:49:AA,143.07131958007812,-86.6457290649414,154.01966857910156,-0.8921172618865967,-2.689051628112793,0.676300048828125,471.0142424106598
D4:22:CD:00:05:6E,-30.037424087524414,-23.4688720703125,-95.24467468261719,6.609786033630371,-12.391708374023438,-15.97117805480957,471.0142424106598
D4:22:CD:00:05:5E,-47.06668472290039,-42.18769454956055,174.5019989013672,-14.332014083862305,12.191396713256836,-20.34148406982422,471.0142424106598
D4:22:CD:00:05:5D,167.0918731689453,-75.5082015991211,-106.86573028564453,-0.8341333866119385,-1.3451972007751465,0.6648445129394531,471.04479122161865
D4:22:CD:00:05:6B,-62.60860061645508,34.641204833984375,-125.37837219238281,-13.919620513916016,-11.169950485229492,-11.904949188232422,471.04479122161865
D4:22:CD:00:49:AA,138.2013702392578,-86.44841003417969,156.6469268798828,-2.347017288208008,-3.632490634918213,4.253602027893066,471.04479122161865
D4:22:CD:00:05:6E,-42.7339973449707,-28.956941604614258,-94.00006103515625,2.9371209144592285,-9.123056411743164,-7.177766799926758,471.04479122161865
D4:22:CD:00:05:5E,-52.09725570678711,-47.8135871887207,178.99745178222656,-16.927772521972656,-6.952042579650879,-14.214487075805664,471.04479122161865
D4:22:CD:00:05:5D,159.5866241455078,-74.79129028320312,-99.2253189086914,-1.4051597118377686,0.27839183807373047,2.2786006927490234,471.0987730026245
D4:22:CD:00:05:6B,-72.03948974609375,37.94038391113281,-119.84156036376953,-12.7783203125,1.6071834564208984,17.19234848022461,471.0987730026245
D4:22:CD:00:49:AA,144.92933654785156,-87.2863998413086,149.47659301757812,-1.7937853336334229,-2.5355658531188965,1.8537702560424805,471.0987730026245
D4:22:CD:00:05:6E,-53.63870620727539,-31.561399459838867,-91.98174285888672,4.6842498779296875,-7.791413307189941,-3.0848851203918457,471.0987730026245
D4:22:CD:00:05:5E,-56.17411422729492,-54.02425765991211,-176.97280883789062,-1.7972502708435059,-13.709281921386719,6.35871696472168,471.0987730026245
D4:22:CD:00:05:5D,148.91912841796875,-74.60807037353516,-90.68727111816406,0.4124774932861328,-0.671233057975769,1.713109016418457,471.10977721214294
D4:22:CD:00:05:6B,-61.171016693115234,40.58507537841797,-101.7682113647461,-14.395135879516602,-1.3723468780517578,-15.956356048583984,471.10977721214294
D4:22:CD:00:49:AA,163.05299377441406,-87.56298065185547,130.51614379882812,0.7146975994110107,-0.943753719329834,-0.056000709533691406,471.10977721214294
D4:22:CD:00:05:6E,-57.916297912597656,-33.42205810546875,-90.05066680908203,6.483542442321777,-7.938668251037598,-3.437117576599121,471.10977721214294
D4:22:CD:00:05:5E,-60.782508850097656,-58.01670837402344,-172.80984497070312,-14.58671760559082,-0.6931908130645752,6.554044723510742,471.10977721214294
D4:22:CD:00:05:5D,137.20472717285156,-74.76480865478516,-80.75121307373047,-0.2717823386192322,1.1848526000976562,3.0303192138671875,471.1443648338318
D4:22:CD:00:05:6B,-49.536075592041016,37.33087921142578,-79.537841796875,-8.810379028320312,-3.939396381378174,-12.019554138183594,471.1443648338318
D4:22:CD:00:49:AA,-158.6988525390625,-87.06021881103516,91.26368713378906,2.080331802368164,0.29862648248672485,1.1002788543701172,471.1443648338318
D4:22:CD:00:05:6E,-60.955169677734375,-36.14687728881836,-88.92605590820312,5.918808937072754,-12.363882064819336,-5.083963394165039,471.1443648338318
D4:22:CD:00:05:5E,-70.8097152709961,-61.02340316772461,-167.9041290283203,0.14375150203704834,9.40789794921875,5.465326309204102,471.1443648338318
D4:22:CD:00:05:5D,118.03632354736328,-76.03533935546875,-66.72437286376953,1.5713138580322266,-1.2626421451568604,1.4581527709960938,471.17429423332214
D4:22:CD:00:05:6B,-42.93623733520508,28.246416091918945,-62.145687103271484,-10.668413162231445,4.491722106933594,-1.0095129013061523,471.17429423332214
D4:22:CD:00:49:AA,-130.0264892578125,-85.57490539550781,60.84539031982422,5.25238037109375,3.1030139923095703,-0.34787464141845703,471.17429423332214
D4:22:CD:00:05:6E,-66.65849304199219,-39.06758117675781,-89.5784683227539,-0.43904364109039307,-8.785032272338867,1.3166847229003906,471.17429423332214
D4:22:CD:00:05:5E,-68.22796630859375,-64.15479278564453,-169.2078857421875,-6.8741254806518555,1.1544997692108154,-0.772735595703125,471.17429423332214
D4:22:CD:00:05:5D,99.0763931274414,-75.360595703125,-56.97373962402344,15.447946548461914,9.926454544067383,-1.884810447692871,471.2043926715851
D4:22:CD:00:05:6B,-41.228179931640625,17.305328369140625,-46.105438232421875,-6.086915016174316,4.171622276306152,-5.389379501342773,471.2043926715851
D4:22:CD:00:49:AA,-125.6734848022461,-84.07431030273438,55.508399963378906,7.179852485656738,-2.778707981109619,-0.8344306945800781,471.2043926715851
D4:22:CD:00:05:6E,-66.66719055175781,-41.4196662902832,-92.01287078857422,-3.390756130218506,-1.784686803817749,3.055699348449707,471.2043926715851
D4:22:CD:00:05:5E,-64.88843536376953,-67.10233306884766,-171.6739044189453,-7.408129692077637,-0.15699124336242676,-3.1272621154785156,471.2043926715851
D4:22:CD:00:05:5D,106.35436248779297,-72.40104675292969,-76.521240234375,33.05005645751953,5.724237442016602,0.814208984375,471.25417709350586
D4:22:CD:00:05:6B,-45.14790725708008,6.531932353973389,-29.04288673400879,0.1512608528137207,-2.7961463928222656,0.18715381622314453,471.25417709350586
D4:22:CD:00:49:AA,-121.22432708740234,-83.3839340209961,51.70338439941406,1.5370969772338867,0.3911136984825134,0.6774835586547852,471.25417709350586
D4:22:CD:00:05:6E,-61.1290397644043,-43.22371292114258,-95.24320220947266,-2.5922389030456543,-6.61512565612793,-1.8991427421569824,471.25417709350586
D4:22:CD:00:05:5E,-66.57221221923828,-68.85452270507812,-171.4534454345703,-8.424278259277344,-2.371967315673828,-4.6903181076049805,471.25417709350586
D4:22:CD:00:05:5D,130.31964111328125,-62.491764068603516,-102.07582092285156,15.348810195922852,0.6764407157897949,9.564271926879883,471.28449845314026
D4:22:CD:00:05:6B,-48.19319534301758,-2.359292507171631,-12.38267993927002,6.31682014465332,1.2510054111480713,-4.651333808898926,471.28449845314026
D4:22:CD:00:49:AA,-124.86531066894531,-83.06432342529297,54.601993560791016,4.863202095031738,3.023510456085205,-2.604311943054199,471.28449845314026
D4:22:CD:00:05:6E,-56.064964294433594,-44.53742218017578,-98.90483093261719,-5.74118709564209,-8.170001983642578,-2.0793051719665527,471.28449845314026
D4:22:CD:00:05:5E,-69.1851806640625,-69.58917999267578,-170.54098510742188,-5.650993347167969,0.5627906322479248,-1.2069931030273438,471.28449845314026
D4:22:CD:00:05:5D,143.80763244628906,-49.361106872558594,-115.90597534179688,4.36391544342041,-3.2958059310913086,4.242740631103516,471.3140022754669
D4:22:CD:00:05:6B,-56.5284423828125,-8.969924926757812,2.1796247959136963,3.293997287750244,0.7963488101959229,-5.4012956619262695,471.3140022754669
D4:22:CD:00:49:AA,-132.08546447753906,-82.68589782714844,60.07689666748047,6.429808616638184,0.5520228147506714,-2.469447135925293,471.3140022754669
D4:22:CD:00:05:6E,-52.09870147705078,-46.1727180480957,-102.09217834472656,-5.3740386962890625,-5.6936798095703125,-4.187675476074219,471.3140022754669
D4:22:CD:00:05:5E,-71.10284423828125,-70.11029815673828,-169.4280548095703,-4.7688446044921875,0.15981778502464294,-1.1430950164794922,471.3140022754669
D4:22:CD:00:05:5D,152.0642547607422,-36.77235794067383,-124.40397644042969,-2.349729061126709,-3.8468151092529297,-3.3111910820007324,471.3450129032135
D4:22:CD:00:05:6B,-64.16464233398438,-12.695535659790039,13.730011940002441,1.8202130794525146,-6.315402030944824,12.653339385986328,471.3450129032135
D4:22:CD:00:49:AA,-137.89923095703125,-82.43455505371094,65.4234619140625,-0.2660624384880066,0.053319238126277924,-1.1897163391113281,471.3450129032135
D4:22:CD:00:05:6E,-47.5832405090332,-48.36098861694336,-105.1683120727539,-3.725773334503174,-4.7651519775390625,-4.949776649475098,471.3450129032135
D4:22:CD:00:05:5E,-74.15241241455078,-70.5316390991211,-166.98300170898438,-5.610390663146973,-0.18641671538352966,-1.7118635177612305,471.3450129032135
D4:22:CD:00:05:5D,158.06402587890625,-26.38433265686035,-130.32583618164062,-4.679296493530273,-0.6778504848480225,-9.144954681396484,471.37401509284973
D4:22:CD:00:05:6B,-59.32264709472656,-13.657818794250488,21.201988220214844,2.0350890159606934,-4.13026237487793,5.193078994750977,471.37401509284973
D4:22:CD:00:49:AA,-139.18829345703125,-82.17037963867188,67.06275939941406,-2.2640833854675293,0.5466388463973999,-3.398235321044922,471.37401509284973
D4:22:CD:00:05:6E,-41.56177520751953,-50.434818267822266,-108.88735961914062,-2.0272774696350098,-5.105192184448242,-6.141240119934082,471.37401509284973
D4:22:CD:00:05:5E,-78.00462341308594,-70.73699188232422,-162.9437713623047,-4.637365341186523,-0.8580633401870728,-2.202939987182617,471.37401509284973
D4:22:CD:00:05:5D,162.55702209472656,-19.220264434814453,-135.31004333496094,-4.663701057434082,0.6844770908355713,-9.268083572387695,471.4040229320526
D4:22:CD:00:05:6B,-51.91665267944336,-14.027905464172363,25.572683334350586,1.6565656661987305,1.0609397888183594,-3.7421765327453613,471.4040229320526
D4:22:CD:00:49:AA,-137.0301055908203,-81.81746673583984,65.89483642578125,0.5946894884109497,0.43943899869918823,-4.737431526184082,471.4040229320526
D4:22:CD:00:05:6E,-35.22780227661133,-51.71147155761719,-113.04791259765625,-1.1456756591796875,-5.435906410217285,-6.478403091430664,471.4040229320526
D4:22:CD:00:05:5E,-84.05350494384766,-70.57960510253906,-156.30908203125,-5.6490936279296875,-0.6429752111434937,-2.7499523162841797,471.4040229320526
D4:22:CD:00:05:5D,164.555419921875,-15.892990112304688,-139.9315948486328,-8.954118728637695,0.4118139147758484,-9.052305221557617,471.46932315826416
D4:22:CD:00:05:6B,-55.08237075805664,-15.90371322631836,28.86810874938965,3.441204071044922,-3.212109088897705,-3.5391483306884766,471.46932315826416
D4:22:CD:00:49:AA,-136.59353637695312,-81.35084533691406,66.54708099365234,2.7400054931640625,1.772857666015625,-3.9121522903442383,471.46932315826416
D4:22:CD:00:05:6E,-29.04304313659668,-52.10116958618164,-117.16448211669922,-0.146482914686203,-6.324178695678711,-5.990370750427246,471.46932315826416
D4:22:CD:00:05:5E,-91.76583862304688,-69.83866119384766,-148.09036254882812,-4.822912216186523,0.7764307260513306,-1.392695426940918,471.46932315826416
D4:22:CD:00:05:5D,163.781005859375,-17.054716110229492,-142.6049346923828,-16.19949722290039,-2.886721611022949,-15.984457015991211,471.4763195514679
D4:22:CD:00:05:6B,-55.87973403930664,-22.366779327392578,32.37763214111328,7.211102485656738,-1.82442045211792,4.799679756164551,471.4763195514679
D4:22:CD:00:49:AA,-137.13674926757812,-80.75746154785156,66.7642593383789,6.497780799865723,0.9218192100524902,1.0506629943847656,471.4763195514679
D4:22:CD:00:05:6E,-22.62005043029785,-52.030487060546875,-121.206298828125,0.7596502304077148,-7.923249244689941,-4.542101860046387,471.4763195514679
D4:22:CD:00:05:5E,-98.52412414550781,-68.8560791015625,-140.3153076171875,-4.52736759185791,0.33445674180984497,-0.9931716918945312,471.4763195514679
D4:22:CD:00:05:5D,165.7167510986328,-21.2808780670166,-143.40699768066406,-8.384719848632812,4.5438127517700195,14.79127311706543,471.5043387413025
D4:22:CD:00:05:6B,-51.3668212890625,-32.04889678955078,33.84652328491211,19.121871948242188,14.766666412353516,12.053266525268555,471.5043387413025
D4:22:CD:00:49:AA,-135.94650268554688,-80.78062438964844,63.75987243652344,0.5463281869888306,0.035397522151470184,2.9565258026123047,471.5043387413025
D4:22:CD:00:05:6E,-15.148303031921387,-51.64244842529297,-125.7344970703125,2.0706562995910645,-10.784223556518555,-3.116821765899658,471.5043387413025
D4:22:CD:00:05:5E,-104.283203125,-68.02054595947266,-133.39012145996094,-5.612007141113281,1.4296026229858398,-0.6124906539916992,471.5043387413025
D4:22:CD:00:05:5D,167.84963989257812,-20.481203079223633,-141.51341247558594,-17.053382873535156,-8.90638542175293,-9.750566482543945,471.5542929172516
D4:22:CD:00:05:6B,-48.928253173828125,-33.410247802734375,31.393718719482422,32.153419494628906,19.629650115966797,21.326732635498047,471.5542929172516
D4:22:CD:00:49:AA,-135.1132049560547,-80.90914916992188,62.77679443359375,-4.520865440368652,-1.5288231372833252,5.824057579040527,471.5542929172516
D4:22:CD:00:05:6E,-7.7696852684021,-51.427642822265625,-131.337890625,5.731132507324219,-16.53229522705078,-0.12565326690673828,471.5542929172516
D4:22:CD:00:05:5E,-108.06389617919922,-67.61724853515625,-128.40536499023438,-5.942739486694336,1.4215443134307861,-0.24283504486083984,471.5542929172516
D4:22:CD:00:05:5D,170.07579040527344,-20.50879669189453,-139.5646514892578,-19.955459594726562,-11.360937118530273,5.7188568115234375,471.5844039916992
D4:22:CD:00:05:6B,-56.48453903198242,-25.194599151611328,32.251197814941406,21.667083740234375,4.431084632873535,18.222625732421875,471.5844039916992
D4:22:CD:00:49:AA,-139.77084350585938,-80.73529052734375,67.91098022460938,2.137216567993164,1.0727243423461914,8.617712020874023,471.5844039916992
D4:22:CD:00:05:6E,0.5604597926139832,-51.50440979003906,-139.79632568359375,4.5762128829956055,-19.142486572265625,6.614738464355469,471.5844039916992
D4:22:CD:00:05:5E,-108.2629623413086,-68.29466247558594,-126.80194091796875,-6.404658317565918,1.484057903289795,-0.3268709182739258,471.5844039916992
D4:22:CD:00:05:5D,170.87411499023438,-19.529586791992188,-138.06590270996094,-21.651447296142578,-9.503292083740234,1.9011106491088867,471.6140480041504
D4:22:CD:00:05:6B,-57.02511978149414,-17.159866333007812,32.30810546875,17.81582260131836,4.353668212890625,1.5376758575439453,471.6140480041504
D4:22:CD:00:49:AA,-143.83236694335938,-80.70643615722656,71.46785736083984,3.6869587898254395,1.5520901679992676,5.987010955810547,471.6140480041504
D4:22:CD:00:05:6E,5.221450328826904,-51.966007232666016,-151.05831909179688,8.550775527954102,-27.777812957763672,3.782984733581543,471.6140480041504
D4:22:CD:00:05:5E,-101.7634506225586,-70.57244873046875,-131.6843719482422,-5.8513078689575195,0.09439264237880707,0.6167573928833008,471.6140480041504
D4:22:CD:00:05:5D,169.87425231933594,-19.018972396850586,-136.6493682861328,-16.134002685546875,-9.759984970092773,-1.934804916381836,471.64406156539917
D4:22:CD:00:05:6B,-58.07511901855469,-11.415589332580566,28.154281616210938,7.5374908447265625,-0.733464241027832,-7.3654375076293945,471.64406156539917
D4:22:CD:00:49:AA,-147.33921813964844,-81.50042724609375,74.39057159423828,3.045100688934326,1.1539363861083984,3.5575971603393555,471.64406156539917
D4:22:CD:00:05:6E,2.4686036109924316,-51.53894805908203,-164.453369140625,5.874044418334961,-14.826759338378906,9.682960510253906,471.64406156539917
D4:22:CD:00:05:5E,-91.44969177246094,-72.59525299072266,-139.99171447753906,-6.340197563171387,1.5561573505401611,-2.1929755210876465,471.64406156539917
D4:22:CD:00:05:5D,167.2176055908203,-21.587383270263672,-136.37652587890625,-4.173789978027344,-7.229032516479492,0.8665580749511719,471.674001455307
D4:22:CD:00:05:6B,-59.13490295410156,-10.522944450378418,20.008546829223633,2.2797203063964844,-6.043257713317871,-5.398273468017578,471.674001455307
D4:22:CD:00:49:AA,-155.1326904296875,-82.15386962890625,80.84855651855469,2.853994846343994,2.685513496398926,1.1030540466308594,471.674001455307
D4:22:CD:00:05:6E,8.215022087097168,-45.93170928955078,178.59619140625,5.932607650756836,-16.767990112304688,8.538848876953125,471.674001455307
D4:22:CD:00:05:5E,-83.73958587646484,-73.70108032226562,-147.24554443359375,-6.360400199890137,1.4788167476654053,-1.2771015167236328,471.674001455307
D4:22:CD:00:05:5D,167.27601623535156,-24.313282012939453,-136.40188598632812,-0.006182367913424969,-3.529576301574707,7.985994338989258,471.7093005180359
D4:22:CD:00:05:6B,-58.00553894042969,-15.247257232666016,9.809850692749023,-0.45999741554260254,-6.765162467956543,-6.055383682250977,471.7093005180359
D4:22:CD:00:49:AA,-163.55001831054688,-82.41519165039062,87.5928955078125,2.0312118530273438,2.2064156532287598,-0.8572788238525391,471.7093005180359
D4:22:CD:00:05:6E,11.302057266235352,-35.37861633300781,163.42869567871094,-1.2329087257385254,-11.045909881591797,4.529117584228516,471.7093005180359
D4:22:CD:00:05:5E,-75.25761413574219,-74.39192199707031,-156.83900451660156,-6.931034088134766,2.0828585624694824,-1.6741523742675781,471.7093005180359
D4:22:CD:00:05:5D,164.1968231201172,-29.049962997436523,-137.58432006835938,-4.243071556091309,2.5828676223754883,0.5553884506225586,471.7439148426056
D4:22:CD:00:05:6B,-58.266029357910156,-23.74999237060547,-0.6132089495658875,-2.003202438354492,-7.51583194732666,-3.4426050186157227,471.7439148426056
D4:22:CD:00:49:AA,-171.6682586669922,-82.3680191040039,94.53819274902344,0.8081969022750854,0.8437809944152832,-0.804224967956543,471.7439148426056
D4:22:CD:00:05:6E,11.830942153930664,-22.421504974365234,150.1373748779297,-4.700647354125977,-5.315481185913086,-0.5820713043212891,471.7439148426056
D4:22:CD:00:05:5E,-69.12155151367188,-74.45160675048828,-165.6986083984375,-5.791898727416992,1.0604815483093262,-1.8215398788452148,471.7439148426056
D4:22:CD:00:05:5D,154.85545349121094,-35.928306579589844,-138.50787353515625,-2.9832887649536133,1.7195463180541992,-4.580960273742676,471.77433681488037
D4:22:CD:00:05:6B,-57.770992279052734,-33.880252838134766,-10.761616706848145,-3.8435311317443848,-5.3060760498046875,-1.1171855926513672,471.77433681488037
D4:22:CD:00:49:AA,-177.97299194335938,-82.4315414428711,100.18580627441406,0.9420994520187378,0.8466418981552124,-2.570253372192383,471.77433681488037
D4:22:CD:00:05:6E,9.073948860168457,-10.304421424865723,138.56195068359375,-4.659339904785156,-1.7520272731781006,-5.234596252441406,471.77433681488037
D4:22:CD:00:05:5E,-65.31157684326172,-74.03120422363281,-172.47850036621094,-5.1555376052856445,0.06392470002174377,-1.2683191299438477,471.77433681488037
D4:22:CD:00:05:5D,146.22352600097656,-44.74810791015625,-138.82473754882812,-2.0166101455688477,-0.6470718383789062,-8.274139404296875,471.80459094047546
D4:22:CD:00:05:6B,-55.53580856323242,-44.45565414428711,-20.91530990600586,-3.623744010925293,-2.723175048828125,-4.722822189331055,471.80459094047546
D4:22:CD:00:49:AA,176.88214111328125,-82.811767578125,104.96842956542969,1.6248528957366943,0.8427592515945435,-4.442981719970703,471.80459094047546
D4:22:CD:00:05:6E,4.344995498657227,-0.847352147102356,127.96763610839844,-2.6081175804138184,-3.296700954437256,-6.712126731872559,471.80459094047546
D4:22:CD:00:05:5E,-58.05912780761719,-73.13493347167969,178.56736755371094,-5.389410018920898,-0.3834834098815918,-1.8745508193969727,471.80459094047546
D4:22:CD:00:05:5D,142.11427307128906,-54.55628204345703,-138.3801727294922,-2.709866523742676,-1.5707392692565918,-7.372591972351074,471.8542640209198
D4:22:CD:00:05:6B,-52.325077056884766,-55.081138610839844,-32.58159637451172,-2.835188388824463,-0.7536261081695557,-2.477893829345703,471.8542640209198
D4:22:CD:00:49:AA,171.73731994628906,-83.32738494873047,109.68212890625,2.6010689735412598,0.4325893521308899,-5.097614288330078,471.8542640209198
D4:22:CD:00:05:6E,1.0492868423461914,5.3181891441345215,118.34960174560547,-2.0273189544677734,-5.758606910705566,-7.386641502380371,471.8542640209198
D4:22:CD:00:05:5E,-50.97571563720703,-71.76931762695312,170.51792907714844,-5.448423385620117,-1.058838129043579,-2.6867523193359375,471.8542640209198
D4:22:CD:00:05:5D,141.42018127441406,-65.6355209350586,-135.6266326904297,-2.13051700592041,-0.6649689674377441,-1.0299530029296875,471.8841943740845
D4:22:CD:00:05:6B,-45.17388153076172,-64.73405456542969,-49.02387619018555,-2.783250331878662,-0.04062676429748535,-2.8379111289978027,471.8841943740845
D4:22:CD:00:49:AA,168.22647094726562,-83.31194305419922,112.31867218017578,2.352357864379883,0.24110090732574463,-4.362954139709473,471.8841943740845
D4:22:CD:00:05:6E,-1.854366660118103,9.20169734954834,111.00518035888672,1.1138901710510254,-5.966648101806641,-7.622841835021973,471.8841943740845
D4:22:CD:00:05:5E,-47.309417724609375,-70.47125244140625,166.13450622558594,-4.848773002624512,-1.916393756866455,-3.399629592895508,471.8841943740845
D4:22:CD:00:05:5D,134.62725830078125,-76.69373321533203,-122.8039779663086,1.7766199111938477,0.8605027198791504,2.41800594329834,471.91433787345886
D4:22:CD:00:05:6B,-28.646106719970703,-72.57186126708984,-75.4289321899414,-2.5987706184387207,1.850522756576538,-2.990166187286377,471.91433787345886
D4:22:CD:00:49:AA,167.8912811279297,-83.5162582397461,112.17005920410156,1.6466710567474365,-0.37470781803131104,-1.6212921142578125,471.91433787345886
D4:22:CD:00:05:6E,-4.955549240112305,12.042180061340332,107.6502914428711,1.026625633239746,-6.039907455444336,-8.226320266723633,471.91433787345886
D4:22:CD:00:05:5E,-47.861297607421875,-69.76476287841797,166.22242736816406,-5.321556091308594,-2.7975645065307617,-3.4676523208618164,471.91433787345886
D4:22:CD:00:05:5D,95.16451263427734,-82.70658111572266,-73.84717559814453,10.680822372436523,4.052335739135742,6.113640785217285,471.94390511512756
D4:22:CD:00:05:6B,4.462213039398193,-76.07117462158203,-118.8524398803711,-2.353672504425049,2.4693641662597656,-2.320753574371338,471.94390511512756
D4:22:CD:00:49:AA,172.8206024169922,-84.03511047363281,107.66448211669922,0.8090860843658447,0.2963305711746216,0.11943340301513672,471.94390511512756
D4:22:CD:00:05:6E,-6.685691833496094,15.94106388092041,108.60631561279297,1.2896909713745117,-1.612084150314331,-8.034280776977539,471.94390511512756
D4:22:CD:00:05:5E,-52.290157318115234,-69.47972869873047,170.2557373046875,-4.942522048950195,-1.0958251953125,-1.7384147644042969,471.94390511512756
D4:22:CD:00:05:5D,65.22665405273438,-80.33073425292969,-33.7996711730957,17.376422882080078,5.470464706420898,-3.7295637130737305,471.9745979309082
D4:22:CD:00:05:6B,34.69627380371094,-73.75394439697266,-162.1680145263672,-5.470179557800293,2.111152172088623,-0.030190467834472656,471.9745979309082
D4:22:CD:00:49:AA,-174.22116088867188,-84.56895446777344,96.09618377685547,1.8913910388946533,-0.3417409062385559,-0.9734869003295898,471.9745979309082
D4:22:CD:00:05:6E,-1.942649245262146,21.01648712158203,114.60057830810547,0.9405927658081055,1.1920514106750488,-10.921070098876953,471.9745979309082
D4:22:CD:00:05:5E,-58.30138397216797,-69.11863708496094,176.6351318359375,-5.054253578186035,-0.23853078484535217,-1.9884371757507324,471.9745979309082
D4:22:CD:00:05:5D,76.25753784179688,-78.19573211669922,-34.99518585205078,20.232662200927734,17.181415557861328,-8.327404022216797,472.00961470603943
D4:22:CD:00:05:6B,49.015472412109375,-68.91873931884766,168.70484924316406,-8.136455535888672,6.760021209716797,3.640409469604492,472.00961470603943
D4:22:CD:00:49:AA,-161.96372985839844,-84.68168640136719,85.24617004394531,3.101759433746338,-0.26094913482666016,-0.30481624603271484,472.00961470603943
D4:22:CD:00:05:6E,9.80837345123291,25.41023063659668,125.72274780273438,-6.182745933532715,4.58415412902832,-14.484830856323242,472.00961470603943
D4:22:CD:00:05:5E,-64.87998962402344,-68.35928344726562,-176.50518798828125,-6.483759880065918,-0.12109708786010742,-2.1463918685913086,472.00961470603943
D4:22:CD:00:05:5D,102.31706237792969,-76.44691467285156,-55.65625,4.347378730773926,-6.401582717895508,1.6408929824829102,472.0444164276123
D4:22:CD:00:05:6B,55.935462951660156,-64.4686050415039,150.53407287597656,-6.578996658325195,14.100221633911133,4.1033935546875,472.0444164276123
D4:22:CD:00:49:AA,-158.11756896972656,-84.64090728759766,81.79994201660156,3.7022953033447266,0.22221902012825012,1.7202396392822266,472.0444164276123
D4:22:CD:00:05:6E,24.36556625366211,26.71422576904297,139.28648376464844,-12.310426712036133,4.035879135131836,-14.747198104858398,472.0444164276123
D4:22:CD:00:05:5E,-68.29991912841797,-66.89177703857422,-172.10696411132812,-5.2271318435668945,2.5533604621887207,-0.0033044815063476562,472.0444164276123
D4:22:CD:00:05:5D,117.34786987304688,-75.67154693603516,-70.4996337890625,0.7843029499053955,-8.423067092895508,1.353494644165039,472.0741949081421
D4:22:CD:00:05:6B,62.51508331298828,-62.75457000732422,143.1757049560547,-3.7898216247558594,13.348310470581055,-1.6932907104492188,472.0741949081421
D4:22:CD:00:49:AA,-158.44757080078125,-84.67483520507812,82.05670166015625,2.214972496032715,-0.49087733030319214,1.2612638473510742,472.0741949081421
D4:22:CD:00:05:6E,39.097415924072266,26.184711456298828,149.12681579589844,-5.659329414367676,-4.026751518249512,-7.585479736328125,472.0741949081421
D4:22:CD:00:05:5E,-69.02798461914062,-65.16913604736328,-170.4860382080078,-6.702667236328125,0.8293150663375854,-0.8850765228271484,472.0741949081421
D4:22:CD:00:05:5D,130.3629150390625,-74.16751861572266,-82.12458038330078,-0.9107329845428467,-1.2735097408294678,3.7827510833740234,472.1042127609253
D4:22:CD:00:05:6B,67.03893280029297,-65.90003204345703,144.52127075195312,-2.0742807388305664,6.037946701049805,0.9544706344604492,472.1042127609253
D4:22:CD:00:49:AA,-159.6445770263672,-84.64080047607422,84.25627136230469,0.7146600484848022,-1.2193424701690674,1.2586860656738281,472.1042127609253
D4:22:CD:00:05:6E,52.16441345214844,26.54634666442871,149.89559936523438,-1.9698238372802734,-13.224021911621094,-3.1023831367492676,472.1042127609253
D4:22:CD:00:05:5E,-68.18524932861328,-62.9764289855957,-171.24111938476562,-6.715415000915527,1.9502177238464355,0.18550968170166016,472.1042127609253
D4:22:CD:00:05:5D,142.20567321777344,-72.1640396118164,-90.14185333251953,-3.331521511077881,1.7982521057128906,2.1363821029663086,472.1543095111847
D4:22:CD:00:05:6B,63.702674865722656,-72.35726928710938,152.58663940429688,-2.316321849822998,5.645782470703125,4.519288063049316,472.1543095111847
D4:22:CD:00:49:AA,-163.09674072265625,-84.255126953125,89.4146957397461,-0.14937013387680054,0.6539360284805298,1.495039939880371,472.1543095111847
D4:22:CD:00:05:6E,52.47699737548828,26.73419761657715,141.04641723632812,-8.28752326965332,-13.327611923217773,-0.9696359634399414,472.1543095111847
D4:22:CD:00:05:5E,-64.16018676757812,-60.63005447387695,-174.41871643066406,-7.067499160766602,-0.03167938441038132,1.4630355834960938,472.1543095111847
D4:22:CD:00:05:5D,150.67752075195312,-70.9798355102539,-96.9329833984375,-1.1203022003173828,3.003129005432129,0.31369972229003906,472.1843810081482
D4:22:CD:00:05:6B,50.962493896484375,-78.4456558227539,170.56826782226562,-0.826343297958374,4.201045989990234,4.671662330627441,472.1843810081482
D4:22:CD:00:49:AA,-170.4588623046875,-83.31205749511719,98.42448425292969,-2.725558280944824,1.5566010475158691,-1.3533496856689453,472.1843810081482
D4:22:CD:00:05:6E,50.27172088623047,23.375829696655273,125.93314361572266,-7.305975914001465,-6.0894670486450195,-13.243085861206055,472.1843810081482
D4:22:CD:00:05:5E,-54.01667785644531,-57.241859436035156,178.3831329345703,-5.244855880737305,-2.0173349380493164,0.3944435119628906,472.1843810081482
D4:22:CD:00:05:5D,158.0253143310547,-70.9031753540039,-103.1846694946289,0.15576213598251343,0.8813490867614746,1.6073780059814453,472.2144024372101
D4:22:CD:00:05:6B,25.87436866760254,-81.399169921875,-158.16334533691406,0.8426839113235474,-2.4830541610717773,2.96358585357666,472.2144024372101
D4:22:CD:00:49:AA,-176.55210876464844,-80.5827407836914,106.27220916748047,-3.478461742401123,-2.1723623275756836,-1.2454557418823242,472.2144024372101
D4:22:CD:00:05:6E,54.25455856323242,16.49177360534668,109.53033447265625,-9.879682540893555,-6.050850868225098,-11.340009689331055,472.2144024372101
D4:22:CD:00:05:5E,-47.434532165527344,-54.66719055175781,177.5672149658203,-12.490089416503906,0.5811432600021362,-6.5109758377075195,472.2144024372101
D4:22:CD:00:05:5D,164.80862426757812,-71.74244689941406,-110.0769271850586,1.5261058807373047,0.017828956246376038,0.5608034133911133,472.2447214126587
D4:22:CD:00:05:6B,-6.64586877822876,-80.75843811035156,-124.07415771484375,0.8016657829284668,-7.727211952209473,0.36537742614746094,472.2447214126587
D4:22:CD:00:49:AA,179.7591094970703,-77.1040267944336,111.16996765136719,-2.4841699600219727,0.035446472465991974,2.4210615158081055,472.2447214126587
D4:22:CD:00:05:6E,56.580718994140625,7.558450698852539,94.72086334228516,2.059399127960205,-6.164009094238281,-13.865985870361328,472.2447214126587
D4:22:CD:00:05:5E,-45.54527282714844,-55.24727249145508,-174.81393432617188,-31.679485321044922,14.530954360961914,-16.831771850585938,472.2447214126587
D4:22:CD:00:05:5D,170.50860595703125,-72.48236846923828,-116.17948150634766,0.9258757829666138,-0.32390737533569336,0.3686676025390625,472.2746069431305
D4:22:CD:00:05:6B,-33.80253219604492,-77.97279357910156,-102.4144058227539,-0.3929009437561035,-7.949916839599609,-1.2199115753173828,472.2746069431305
D4:22:CD:00:49:AA,175.31590270996094,-75.32982635498047,115.02436065673828,-0.34679150581359863,1.360788345336914,2.02188777923584,472.2746069431305
D4:22:CD:00:05:6E,63.69878387451172,-3.0692899227142334,80.95096588134766,4.59832763671875,-2.6618075370788574,-14.682733535766602,472.2746069431305
D4:22:CD:00:05:5E,-60.257957458496094,-58.94630813598633,-154.85202026367188,-23.48605728149414,2.669966697692871,-3.4677863121032715,472.2746069431305
D4:22:CD:00:05:5D,175.29563903808594,-73.01758575439453,-120.4827880859375,1.1344034671783447,-1.2418267726898193,-0.14357948303222656,472.3044021129608
D4:22:CD:00:05:6B,-51.365196228027344,-74.69188690185547,-93.03073120117188,-1.6944727897644043,-5.034648895263672,-1.805206298828125,472.3044021129608
D4:22:CD:00:49:AA,169.522216796875,-74.59906768798828,119.71995544433594,-2.5161633491516113,1.1427226066589355,-0.3000984191894531,472.3044021129608
D4:22:CD:00:05:6E,79.2868423461914,-13.36431884765625,66.81196594238281,5.565247535705566,3.318039894104004,-14.362710952758789,472.3044021129608
D4:22:CD:00:05:5E,-81.17721557617188,-60.52391815185547,-129.77565002441406,-10.56960678100586,-1.9287996292114258,-4.61769962310791,472.3044021129608
D4:22:CD:00:05:5D,178.87672424316406,-73.28845977783203,-122.71830749511719,0.8668727874755859,-1.5354022979736328,-0.2443981170654297,472.3443624973297
D4:22:CD:00:05:6B,-59.71758270263672,-71.99431610107422,-90.3718490600586,-2.3438196182250977,-2.5839881896972656,-1.9030227661132812,472.3443624973297
D4:22:CD:00:49:AA,165.03860473632812,-74.02088928222656,123.62480163574219,-4.607734680175781,0.802580714225769,-1.3069648742675781,472.3443624973297
D4:22:CD:00:05:6E,102.37084197998047,-20.983501434326172,52.49503707885742,5.994427680969238,2.047637939453125,-9.894407272338867,472.3443624973297
D4:22:CD:00:05:5E,-100.53334045410156,-59.423973083496094,-107.1785888671875,-3.6446847915649414,-5.001143455505371,-7.54340934753418,472.3443624973297
D4:22:CD:00:05:5D,-179.0746307373047,-73.31363677978516,-123.73747253417969,-0.5964134931564331,-1.1197946071624756,-0.42730045318603516,472.37423610687256
D4:22:CD:00:05:6B,-61.37595748901367,-70.43604278564453,-90.22938537597656,-1.8175585269927979,-1.9632587432861328,-2.303757667541504,472.37423610687256
D4:22:CD:00:49:AA,161.4817352294922,-73.9199447631836,127.43843841552734,-3.4357872009277344,-0.11122675240039825,-2.6345014572143555,472.37423610687256
D4:22:CD:00:05:6E,126.97830200195312,-27.0803165435791,38.97373580932617,-1.5279607772827148,0.1690479815006256,0.722569465637207,472.37423610687256
D4:22:CD:00:05:5E,-117.70983123779297,-56.77207565307617,-89.58193969726562,0.12489992380142212,-4.010448455810547,-9.311214447021484,472.37423610687256
D4:22:CD:00:05:5D,-177.45228576660156,-72.75484466552734,-124.39591217041016,-1.0365309715270996,-1.0753512382507324,-0.6169643402099609,472.4042422771454
D4:22:CD:00:05:6B,-59.53145980834961,-69.93296813964844,-91.07009887695312,-1.4472589492797852,-0.6433801651000977,-2.9230618476867676,472.4042422771454
D4:22:CD:00:49:AA,157.24945068359375,-73.78438568115234,132.22088623046875,-1.183807134628296,0.23351147770881653,-3.371469020843506,472.4042422771454
D4:22:CD:00:05:6E,139.8395538330078,-31.83659553527832,25.329771041870117,-0.787772536277771,-9.107965469360352,2.4813919067382812,472.4042422771454
D4:22:CD:00:05:5E,-132.7301788330078,-54.35785675048828,-77.05384063720703,1.5100493431091309,-2.8172693252563477,-9.934545516967773,472.4042422771454
D4:22:CD:00:05:5D,-176.2633819580078,-71.49478912353516,-124.67476654052734,-0.1648504137992859,-1.3522534370422363,-0.7134742736816406,472.4543426036835
D4:22:CD:00:05:6B,-57.356178283691406,-69.83179473876953,-91.41104888916016,-2.044510841369629,-0.3881687521934509,-3.3833813667297363,472.4543426036835
D4:22:CD:00:49:AA,151.88648986816406,-73.22445678710938,137.28543090820312,-0.30663877725601196,0.9045780897140503,-3.5471606254577637,472.4543426036835
D4:22:CD:00:05:6E,150.19351196289062,-35.502864837646484,13.276666641235352,-0.4392279386520386,-4.070677757263184,-3.293917655944824,472.4543426036835
D4:22:CD:00:05:5E,-146.33633422851562,-53.56732177734375,-68.10603332519531,0.13416129350662231,-4.000700950622559,-7.669365882873535,472.4543426036835
D4:22:CD:00:05:5D,-176.33387756347656,-69.60320281982422,-124.16102600097656,-0.5525758266448975,-1.1102263927459717,-0.4280261993408203,472.48414397239685
D4:22:CD:00:05:6B,-56.60987091064453,-69.34351348876953,-90.57514190673828,-1.4580140113830566,0.8028320074081421,-2.142899513244629,472.48414397239685
D4:22:CD:00:49:AA,146.7026824951172,-72.22418975830078,141.4488983154297,0.24194136261940002,0.546082615852356,-3.4868545532226562,472.48414397239685
D4:22:CD:00:05:6E,156.55633544921875,-40.79828643798828,1.759649395942688,-6.605215072631836,-14.773305892944336,4.719247817993164,472.48414397239685
D4:22:CD:00:05:5E,-156.69544982910156,-55.61141586303711,-60.96820831298828,2.4804091453552246,-4.732020378112793,-3.459414482116699,472.48414397239685
D4:22:CD:00:05:5D,-177.28192138671875,-67.05717468261719,-122.94632720947266,-0.18770885467529297,-0.47561317682266235,-0.8120346069335938,472.51414370536804
D4:22:CD:00:05:6B,-58.45439910888672,-68.3022689819336,-88.8814697265625,-2.055891990661621,1.4803807735443115,-0.8087406158447266,472.51414370536804
D4:22:CD:00:49:AA,143.5949249267578,-71.09799194335938,142.9574432373047,1.5883760452270508,0.7009850740432739,-2.2544775009155273,472.51414370536804
D4:22:CD:00:05:6E,158.5811767578125,-47.117919921875,-11.146496772766113,10.635143280029297,-16.813098907470703,17.152149200439453,472.51414370536804
D4:22:CD:00:05:5E,-163.6634521484375,-60.79240036010742,-54.70402908325195,8.169761657714844,-7.486993789672852,-1.2088184356689453,472.51414370536804
D4:22:CD:00:05:5D,-178.32327270507812,-64.34764862060547,-122.423095703125,-0.8392568826675415,0.16260433197021484,-0.18396568298339844,472.54468727111816
D4:22:CD:00:05:6B,-63.03908157348633,-67.03211212158203,-86.24871826171875,-1.8626465797424316,3.6606311798095703,0.9946870803833008,472.54468727111816
D4:22:CD:00:49:AA,142.3545684814453,-70.57827758789062,143.1103973388672,1.3194637298583984,-0.8507428169250488,0.7375459671020508,472.54468727111816
D4:22:CD:00:05:6E,153.78250122070312,-51.77836608886719,-18.161104202270508,17.176551818847656,-18.92538070678711,18.28692626953125,472.54468727111816
D4:22:CD:00:05:5E,-164.85958862304688,-67.04621887207031,-45.711605072021484,-46.31769561767578,25.672985076904297,34.52442932128906,472.54468727111816
D4:22:CD:00:05:5D,-179.1826171875,-61.464778900146484,-122.23029327392578,-0.5992125272750854,0.3493713140487671,0.5542087554931641,472.57468914985657
D4:22:CD:00:05:6B,-66.69656372070312,-65.15337371826172,-82.55670928955078,-0.6803438663482666,6.470549583435059,4.695326805114746,472.57468914985657
D4:22:CD:00:49:AA,141.37168884277344,-70.13761901855469,142.77130126953125,-3.509978771209717,-0.5425852537155151,3.8830394744873047,472.57468914985657
D4:22:CD:00:05:6E,150.4034881591797,-52.75665283203125,-17.085697174072266,20.952774047851562,-13.806882858276367,7.712669372558594,472.57468914985657
D4:22:CD:00:05:5E,-161.8463134765625,-69.66780853271484,-41.22530746459961,5.378493309020996,-4.837898254394531,-0.915074348449707,472.57468914985657
D4:22:CD:00:05:5D,-179.40109252929688,-59.09712600708008,-122.24321746826172,0.299519419670105,1.3637192249298096,1.0241355895996094,472.6047124862671
D4:22:CD:00:05:6B,-69.14631652832031,-62.27442932128906,-78.28759765625,-3.1810693740844727,5.0955963134765625,6.625310897827148,472.6047124862671
D4:22:CD:00:49:AA,142.01458740234375,-69.33348846435547,141.8931121826172,-6.215824127197266,-1.191711664199829,7.534763336181641,472.6047124862671
D4:22:CD:00:05:6E,147.36192321777344,-53.174835205078125,-12.888137817382812,15.602205276489258,-8.951040267944336,5.852261543273926,472.6047124862671
D4:22:CD:00:05:5E,-161.45028686523438,-70.01219940185547,-40.4164924621582,7.124842643737793,-2.892685890197754,12.264230728149414,472.6047124862671
D4:22:CD:00:05:5D,-179.36785888671875,-57.882362365722656,-122.44048309326172,0.2053605616092682,1.0240402221679688,1.517622947692871,472.64440417289734
D4:22:CD:00:05:6B,-72.80999755859375,-58.25882339477539,-72.71955108642578,-5.222583770751953,7.504709243774414,11.02457046508789,472.64440417289734
D4:22:CD:00:49:AA,143.801513671875,-68.89481353759766,141.3480224609375,-1.6191611289978027,-0.5635815858840942,6.473180770874023,472.64440417289734
D4:22:CD:00:05:6E,144.14956665039062,-53.73289489746094,-6.192815780639648,9.489206314086914,-5.737114906311035,13.318510055541992,472.64440417289734
D4:22:CD:00:05:5E,-158.89321899414062,-68.1290054321289,-43.90109634399414,3.1558470726013184,-2.4375247955322266,15.256599426269531,472.64440417289734
D4:22:CD:00:05:5D,-178.97181701660156,-57.96434783935547,-122.87419128417969,0.49550384283065796,0.6924886703491211,1.3232402801513672,472.6744067668915
D4:22:CD:00:05:6B,-76.02933502197266,-52.42985916137695,-65.98434448242188,-6.2616071701049805,6.890905380249023,11.148630142211914,472.6744067668915
D4:22:CD:00:49:AA,145.6593780517578,-68.79046630859375,140.700439453125,0.673160195350647,0.5255182981491089,4.617088317871094,472.6744067668915
D4:22:CD:00:05:6E,141.7790069580078,-51.03955841064453,2.337493419647217,4.538476943969727,-2.672313690185547,14.60835075378418,472.6744067668915
D4:22:CD:00:05:5E,-157.72052001953125,-64.61833953857422,-45.691646575927734,0.09193050861358643,-1.078864574432373,10.383745193481445,472.6744067668915
D4:22:CD:00:05:5D,-178.34339904785156,-59.2691650390625,-123.4870376586914,0.9493070840835571,0.14917510747909546,1.2732906341552734,472.70387744903564
D4:22:CD:00:05:6B,-78.73406982421875,-44.423675537109375,-58.80672836303711,-4.439911842346191,4.902826309204102,8.525814056396484,472.70387744903564
D4:22:CD:00:49:AA,148.08963012695312,-69.20740509033203,139.58714294433594,-1.3783667087554932,0.7174490690231323,3.6248836517333984,472.70387744903564
D4:22:CD:00:05:6E,138.92947387695312,-46.048274993896484,11.217386245727539,3.590622901916504,-1.396028757095337,11.310178756713867,472.70387744903564
D4:22:CD:00:05:5E,-156.2977752685547,-61.85498046875,-47.27415084838867,2.4611153602600098,-0.8970327377319336,4.558157920837402,472.70387744903564
D4:22:CD:00:05:5D,-177.6116180419922,-61.9272346496582,-124.90906524658203,-0.3903568983078003,0.9922425746917725,0.7224636077880859,472.7540180683136
D4:22:CD:00:05:6B,-80.43157958984375,-34.85175704956055,-52.4999885559082,-2.0150485038757324,3.1567063331604004,5.2053985595703125,472.7540180683136
D4:22:CD:00:49:AA,150.10446166992188,-70.1592788696289,138.58607482910156,-1.8680026531219482,1.6290218830108643,1.9441537857055664,472.7540180683136
D4:22:CD:00:05:6E,135.99989318847656,-41.598567962646484,21.80669403076172,1.1026499271392822,0.965255856513977,3.49530029296875,472.7540180683136
D4:22:CD:00:05:5E,-157.89630126953125,-61.3036994934082,-48.72682571411133,-0.5324656963348389,-2.4444403648376465,0.013486862182617188,472.7540180683136
D4:22:CD:00:05:5D,-176.6863555908203,-64.68498992919922,-126.21827697753906,-0.6384750604629517,1.2028248310089111,0.6440773010253906,472.7842924594879
D4:22:CD:00:05:6B,-79.86552429199219,-24.94779396057129,-47.892555236816406,0.5663166046142578,0.5586574077606201,1.4485502243041992,472.7842924594879
D4:22:CD:00:49:AA,152.55731201171875,-71.23359680175781,136.8868865966797,-2.117325782775879,0.9427807331085205,0.19034767150878906,472.7842924594879
D4:22:CD:00:05:6E,133.11370849609375,-39.32145690917969,33.82234573364258,-4.260260581970215,-0.7855186462402344,-0.99542236328125,472.7842924594879
D4:22:CD:00:05:5E,-153.4812774658203,-63.78443145751953,-52.54510498046875,2.7657222747802734,4.2139387130737305,-0.10947036743164062,472.7842924594879
D4:22:CD:00:05:5D,-174.99179077148438,-67.51245880126953,-127.89518737792969,-0.6531763076782227,1.2090327739715576,0.5650901794433594,472.81437373161316
D4:22:CD:00:05:6B,-78.25817108154297,-15.423742294311523,-44.92859649658203,2.132845401763916,-0.25729870796203613,-1.76263427734375,472.81437373161316
D4:22:CD:00:49:AA,155.1158447265625,-72.0564193725586,134.9790496826172,-2.140439033508301,0.8917140960693359,-1.6444282531738281,472.81437373161316
D4:22:CD:00:05:6E,126.78564453125,-39.14138412475586,47.48577880859375,-5.037944793701172,-1.9239516258239746,-4.719292640686035,472.81437373161316
D4:22:CD:00:05:5E,-139.47047424316406,-67.53532409667969,-63.144954681396484,1.9822375774383545,3.682065963745117,-1.6769752502441406,472.81437373161316
D4:22:CD:00:05:5D,-172.88314819335938,-70.48922729492188,-130.1148223876953,-0.11070506274700165,0.3896164894104004,0.030671119689941406,472.84458017349243
D4:22:CD:00:05:6B,-76.08745574951172,-6.7226948738098145,-43.467681884765625,2.014845371246338,-0.8826138973236084,-4.394162178039551,472.84458017349243
D4:22:CD:00:49:AA,156.99542236328125,-72.65898132324219,133.2843017578125,-1.7322158813476562,0.8338669538497925,-2.686102867126465,472.84458017349243
D4:22:CD:00:05:6E,117.18510437011719,-40.06437301635742,63.55695343017578,-4.7002458572387695,-1.594146966934204,-9.442863464355469,472.84458017349243
D4:22:CD:00:05:5E,-119.11872100830078,-70.48207092285156,-82.52226257324219,-0.03457263112068176,1.1093697547912598,-3.9999022483825684,472.84458017349243
D4:22:CD:00:05:5D,-170.35629272460938,-73.62326049804688,-133.230712890625,0.08196890354156494,-0.5987765789031982,-0.45193004608154297,472.87458539009094
D4:22:CD:00:05:6B,-72.56520080566406,0.9893029928207397,-43.48670196533203,1.0283558368682861,-2.6080288887023926,-6.858135223388672,472.87458539009094
D4:22:CD:00:49:AA,157.5362548828125,-73.21163177490234,132.5989532470703,-1.6705620288848877,0.28690075874328613,-3.9154577255249023,472.87458539009094
D4:22:CD:00:05:6E,105.52118682861328,-40.49059295654297,82.14337158203125,-5.505087852478027,-3.043278694152832,-9.529314041137695,472.87458539009094
D4:22:CD:00:05:5E,-93.35674285888672,-71.10284423828125,-109.54888153076172,-2.2491393089294434,-1.3658807277679443,-4.95965576171875,472.87458539009094
D4:22:CD:00:05:5D,-167.06561279296875,-76.56744384765625,-137.16787719726562,0.3168488144874573,-1.1854805946350098,-0.5584859848022461,472.9095871448517
D4:22:CD:00:05:6B,-68.65825653076172,8.044899940490723,-44.55314636230469,-0.8035699129104614,-4.252926826477051,-8.574575424194336,472.9095871448517
D4:22:CD:00:49:AA,156.07554626464844,-73.66316986083984,134.29647827148438,-2.5591049194335938,0.21717804670333862,-4.75115966796875,472.9095871448517
D4:22:CD:00:05:6E,90.94071960449219,-38.71757125854492,101.68067169189453,-6.320145606994629,-4.3463640213012695,-11.20261001586914,472.9095871448517
D4:22:CD:00:05:5E,-70.25213623046875,-68.56855010986328,-135.75830078125,-6.135173797607422,-1.1539673805236816,-4.2830705642700195,472.9095871448517
D4:22:CD:00:05:5D,-163.4012908935547,-79.11952209472656,-141.44430541992188,-0.3664930462837219,-0.9929851293563843,-0.5605945587158203,472.94418025016785
D4:22:CD:00:05:6B,-66.02415466308594,14.796015739440918,-46.01802062988281,-3.0777063369750977,-5.8353776931762695,-8.785900115966797,472.94418025016785
D4:22:CD:00:49:AA,152.37460327148438,-73.90397644042969,138.5083770751953,-2.727942943572998,-0.40320050716400146,-4.537075996398926,472.94418025016785
D4:22:CD:00:05:6E,76.63690185546875,-34.81877517700195,119.63490295410156,-5.3587846755981445,-4.286028861999512,-16.36846160888672,472.94418025016785
D4:22:CD:00:05:5E,-57.30104064941406,-63.96876525878906,-154.006103515625,-10.378564834594727,0.008023221045732498,-3.682835102081299,472.94418025016785
D4:22:CD:00:05:5D,-159.84933471679688,-81.02913665771484,-145.45741271972656,0.2395687699317932,-2.208682060241699,-0.7208919525146484,472.97455382347107
D4:22:CD:00:05:6B,-63.974395751953125,21.5330753326416,-47.32221603393555,-3.0769381523132324,-5.286587715148926,-5.873100280761719,472.97455382347107
D4:22:CD:00:49:AA,147.21006774902344,-73.53626251220703,144.3085479736328,-2.8366994857788086,-1.906203269958496,-2.278803825378418,472.97455382347107
D4:22:CD:00:05:6E,66.28277587890625,-30.564044952392578,134.88502502441406,-0.8425512313842773,-4.134183883666992,-17.036720275878906,472.97455382347107
D4:22:CD:00:05:5E,-51.39178466796875,-58.63661575317383,-165.9292449951172,-14.33371353149414,2.59993839263916,-4.0923614501953125,472.97455382347107
D4:22:CD:00:05:5D,-157.31727600097656,-82.2785415649414,-147.3155517578125,-0.6718727350234985,-1.3885293006896973,-0.3724708557128906,473.0045714378357
D4:22:CD:00:05:6B,-60.17448043823242,28.83058738708496,-49.621551513671875,2.11869478225708,-4.0238189697265625,1.4036331176757812,473.0045714378357
D4:22:CD:00:49:AA,140.7305908203125,-72.85101318359375,151.32003784179688,-2.342550754547119,0.707890510559082,-0.6581611633300781,473.0045714378357
D4:22:CD:00:05:6E,58.93632507324219,-26.841175079345703,148.98129272460938,2.554410457611084,-4.021135330200195,-14.933391571044922,473.0045714378357
D4:22:CD:00:05:5E,-49.34346389770508,-53.95002746582031,-172.31814575195312,-17.684417724609375,6.107418060302734,-9.166849136352539,473.0045714378357
