Device,EulerX,EulerY,EulerZ,FreeAccX,FreeAccY,FreeAccZ,Timestamp
D4:22:CD:00:05:5D,169.78204345703125,-78.25152587890625,-81.47451782226562,3.081928253173828,-12.71934700012207,-7.4940032958984375,1451.958740234375
D4:22:CD:00:05:6B,62.525115966796875,52.85459518432617,-56.79216384887695,0.20234155654907227,2.3656959533691406,-9.278776168823242,1451.958740234375
D4:22:CD:00:49:AA,-172.88919067382812,-72.01485443115234,116.70416259765625,-2.9131240844726562,0.15864232182502747,-7.074230194091797,1451.958740234375
D4:22:CD:00:05:6E,-121.28297424316406,-70.57620239257812,-43.99922561645508,1.483788013458252,-4.986415863037109,-9.355245590209961,1451.958740234375
D4:22:CD:00:05:5E,-40.9922981262207,-59.40062713623047,156.34495544433594,-9.048700332641602,13.623115539550781,-6.526454925537109,1451.958740234375
D4:22:CD:00:05:5D,168.58799743652344,-79.0545654296875,-79.56564331054688,-3.7338757514953613,13.947380065917969,-4.8305463790893555,1451.9687373638153
D4:22:CD:00:05:6B,56.191070556640625,55.542659759521484,-70.56829833984375,6.2551422119140625,3.4994540214538574,-4.945843696594238,1451.9687373638153
D4:22:CD:00:49:AA,-173.22776794433594,-74.27745056152344,119.33026123046875,-3.176579475402832,1.141608715057373,-4.628183364868164,1451.9687373638153
D4:22:CD:00:05:6E,-109.38238525390625,-70.8436508178711,-48.61875534057617,2.245975971221924,-4.759320259094238,-6.3932342529296875,1451.9687373638153
D4:22:CD:00:05:5E,-45.96149444580078,-53.995243072509766,158.5116729736328,-15.752212524414062,11.295049667358398,-16.593364715576172,1451.9687373638153
D4:22:CD:00:05:6B,40.9439811706543,57.765384674072266,-94.16624450683594,6.0134077072143555,1.6418423652648926,-3.5294618606567383,1451.9767429828644
D4:22:CD:00:49:AA,-173.90994262695312,-75.83183288574219,120.91653442382812,-0.12718534469604492,-1.3797309398651123,-1.857959270477295,1451.9767429828644
D4:22:CD:00:05:6E,-97.97147369384766,-71.37091827392578,-53.208187103271484,3.327749252319336,-5.626853942871094,-4.622561454772949,1451.9767429828644
D4:22:CD:00:05:5E,-55.84701919555664,-52.732906341552734,164.1579132080078,-13.557914733886719,11.147531509399414,-14.236774444580078,1451.9767429828644
D4:22:CD:00:05:5D,-83.1331558227539,-45.55615997314453,-112.49095916748047,-2.689295768737793,-2.836463451385498,3.36126708984375,1451.9817342758179
D4:22:CD:00:05:6E,-87.29449462890625,-71.53266906738281,-57.81690979003906,4.871917724609375,-5.365640640258789,-4.974630355834961,1451.9817342758179
D4:22:CD:00:05:5E,-67.41462707519531,-54.20143127441406,172.51608276367188,-15.398183822631836,5.342350959777832,-10.788471221923828,1451.9817342758179
D4:22:CD:00:05:5D,-141.0373077392578,-70.29597473144531,-48.31371307373047,-2.194136619567871,-5.316362380981445,-0.4478263854980469,1451.9847359657288
D4:22:CD:00:05:6B,-78.78173828125,-30.816560745239258,-82.55125427246094,1.7530949115753174,-1.7716171741485596,6.5668487548828125,1451.9847359657288
D4:22:CD:00:49:AA,-90.28260803222656,-70.3773422241211,-0.49125373363494873,3.9152565002441406,-1.8459439277648926,-2.6896939277648926,1451.9847359657288
D4:22:CD:00:05:5D,-173.2705841064453,-67.41700744628906,-12.006978034973145,-5.368995666503906,-1.7074925899505615,-2.291909694671631,1452.0274276733398
D4:22:CD:00:05:6B,-72.72152709960938,-19.533626556396484,-85.72463989257812,5.083498954772949,-0.8560130596160889,10.871871948242188,1452.0274276733398
D4:22:CD:00:49:AA,-106.64490509033203,-79.26897430419922,16.86578369140625,4.638192176818848,-4.717829704284668,1.1415281295776367,1452.0274276733398
D4:22:CD:00:05:6E,76.37117767333984,-69.47720336914062,73.97984313964844,-7.085858345031738,-11.233449935913086,16.531169891357422,1452.0274276733398
D4:22:CD:00:05:5E,105.20220184326172,-76.90221405029297,73.19657135009766,-2.569779872894287,-11.608478546142578,13.76513671875,1452.0274276733398
D4:22:CD:00:05:5D,176.04356384277344,-61.369651794433594,1.4636280536651611,-6.926307678222656,2.998640537261963,1.4779701232910156,1452.056747674942
D4:22:CD:00:05:6B,-66.66654205322266,-6.535055160522461,-86.66631317138672,4.685087203979492,-1.830115556716919,14.398391723632812,1452.056747674942
D4:22:CD:00:49:AA,-158.50338745117188,-78.75468444824219,70.03865051269531,1.870873212814331,-0.7343052625656128,13.529268264770508,1452.056747674942
D4:22:CD:00:05:6E,86.10082244873047,-42.95335006713867,73.17355346679688,9.67863655090332,9.962963104248047,9.369985580444336,1452.056747674942
D4:22:CD:00:05:5E,106.11666107177734,-61.732383728027344,74.9418716430664,0.23149996995925903,-1.9526643753051758,16.397308349609375,1452.056747674942
D4:22:CD:00:05:5D,174.67652893066406,-57.66387939453125,3.1611311435699463,-5.324184417724609,3.33779239654541,1.5929584503173828,1452.0867748260498
D4:22:CD:00:05:6B,-56.55857467651367,6.578855514526367,-84.92855072021484,8.576971054077148,-3.8809666633605957,17.229026794433594,1452.0867748260498
D4:22:CD:00:49:AA,-174.240966796875,-74.56965637207031,87.59722137451172,4.024666786193848,-1.9398303031921387,10.109952926635742,1452.0867748260498
D4:22:CD:00:05:6E,72.6534423828125,-49.121185302734375,85.09442138671875,9.534095764160156,16.30435562133789,8.539363861083984,1452.0867748260498
D4:22:CD:00:05:5E,114.7358169555664,-51.553131103515625,77.24687957763672,2.4989895820617676,8.90032958984375,12.674211502075195,1452.0867748260498
D4:22:CD:00:05:5D,175.26246643066406,-56.544227600097656,3.5710175037384033,-1.786243200302124,0.11836537718772888,0.8144779205322266,1452.1167750358582
D4:22:CD:00:05:6B,-41.15896987915039,19.293811798095703,-78.8305435180664,8.882545471191406,-11.141094207763672,16.720508575439453,1452.1167750358582
D4:22:CD:00:49:AA,175.31155395507812,-71.40103912353516,97.0459976196289,3.2159204483032227,-0.2902483344078064,7.940483093261719,1452.1167750358582
D4:22:CD:00:05:6E,47.693241119384766,-62.08889389038086,107.86626434326172,1.519291639328003,12.639415740966797,9.145374298095703,1452.1167750358582
D4:22:CD:00:05:5E,122.9330825805664,-54.408451080322266,70.72309112548828,0.7412995100021362,7.529120445251465,9.814828872680664,1452.1167750358582
D4:22:CD:00:05:5D,176.45989990234375,-57.786773681640625,4.462948322296143,-0.573599100112915,-1.488799810409546,3.9053916931152344,1452.146695137024
D4:22:CD:00:05:6B,-18.65151596069336,29.2371883392334,-68.84705352783203,1.8230957984924316,-17.921485900878906,12.072273254394531,1452.146695137024
D4:22:CD:00:49:AA,170.68118286132812,-70.58148193359375,101.8295669555664,-3.5824928283691406,2.6020312309265137,9.018819808959961,1452.146695137024
D4:22:CD:00:05:6E,6.194547176361084,-67.41571044921875,149.2772216796875,-6.875205993652344,2.9503731727600098,7.236137390136719,1452.146695137024
D4:22:CD:00:05:5E,125.3702392578125,-59.32460403442383,65.92513275146484,1.5494534969329834,14.547235488891602,0.5025119781494141,1452.146695137024
D4:22:CD:00:05:5D,176.88409423828125,-61.08941650390625,5.4526753425598145,0.9829517602920532,-2.8039908409118652,5.026833534240723,1452.1767530441284
D4:22:CD:00:05:6B,4.958707809448242,34.56748580932617,-58.830230712890625,-4.918241500854492,-13.870128631591797,2.8555479049682617,1452.1767530441284
D4:22:CD:00:49:AA,174.55699157714844,-71.55977630615234,100.54729461669922,-6.356598854064941,0.3420525789260864,2.613332748413086,1452.1767530441284
D4:22:CD:00:05:6E,-22.869659423828125,-62.29054641723633,-178.37350463867188,-15.802022933959961,0.00021345485583879054,3.518294334411621,1452.1767530441284
D4:22:CD:00:05:5E,123.38682556152344,-68.97032165527344,65.4581298828125,-1.747110366821289,14.91282844543457,-3.297891139984131,1452.1767530441284
D4:22:CD:00:05:5D,175.6294708251953,-66.37004852294922,8.556570053100586,2.058234214782715,-0.7241084575653076,5.303841590881348,1452.2212662696838
D4:22:CD:00:05:6B,20.367521286010742,36.78840255737305,-51.69111251831055,-6.8502302169799805,-9.629266738891602,-2.927474021911621,1452.2212662696838
D4:22:CD:00:49:AA,-175.0977783203125,-72.0104751586914,94.21859741210938,-0.20197591185569763,-0.19090107083320618,0.22894954681396484,1452.2212662696838
D4:22:CD:00:05:6E,-34.31058120727539,-56.75603103637695,-160.34005737304688,-15.356029510498047,-4.118800163269043,-4.560685157775879,1452.2212662696838
D4:22:CD:00:05:5E,108.7153549194336,-80.9320068359375,79.8204574584961,-1.5546975135803223,11.691289901733398,-5.926857948303223,1452.2212662696838
D4:22:CD:00:05:5D,173.63856506347656,-74.34956359863281,8.576395988464355,5.025321006774902,4.648428916931152,2.393951416015625,1452.266624212265
D4:22:CD:00:05:6B,27.93711280822754,37.540191650390625,-46.97327423095703,-8.44595718383789,-3.9483180046081543,-5.385981559753418,1452.266624212265
D4:22:CD:00:49:AA,-164.41775512695312,-71.55554962158203,88.00321197509766,3.3593664169311523,1.0677111148834229,-3.691890239715576,1452.266624212265
D4:22:CD:00:05:6E,-40.65483474731445,-53.128631591796875,-147.4781036376953,-9.450651168823242,-6.082836151123047,-9.567720413208008,1452.266624212265
D4:22:CD:00:05:5E,0.46922749280929565,-82.12977600097656,-171.6846923828125,-6.051247596740723,4.7462873458862305,-7.223982810974121,1452.266624212265
D4:22:CD:00:05:5D,168.55885314941406,-78.32433319091797,5.879918098449707,-6.4172210693359375,-1.9119446277618408,-8.068395614624023,1452.2966237068176
D4:22:CD:00:05:6B,26.970056533813477,38.2954216003418,-45.01511001586914,-8.749267578125,-0.3991560935974121,-8.413190841674805,1452.2966237068176
D4:22:CD:00:49:AA,-157.59619140625,-70.58744049072266,84.31361389160156,3.1003427505493164,3.913951873779297,-8.984914779663086,1452.2966237068176
D4:22:CD:00:05:6E,-44.472957611083984,-50.72969055175781,-139.2445526123047,-3.062615394592285,-4.2540130615234375,-14.241739273071289,1452.2966237068176
D4:22:CD:00:05:5E,-24.316011428833008,-70.68302154541016,-150.40284729003906,-9.121673583984375,3.004958152770996,-13.117120742797852,1452.2966237068176
D4:22:CD:00:05:5D,161.79989624023438,-76.8248291015625,-0.2064446657896042,-16.416465759277344,5.212833404541016,-3.377901077270508,1452.326721906662
D4:22:CD:00:05:6B,23.200159072875977,41.47257995605469,-47.19879150390625,2.439812183380127,-2.228238582611084,-8.42264175415039,1452.326721906662
D4:22:CD:00:49:AA,-152.55299377441406,-70.32996368408203,80.88925170898438,1.8098721504211426,2.7184910774230957,-9.699565887451172,1452.326721906662
D4:22:CD:00:05:6E,-46.38541793823242,-49.11006164550781,-135.43240356445312,-2.3529586791992188,-3.017606735229492,-10.14274787902832,1452.326721906662
D4:22:CD:00:05:5E,-30.984201431274414,-60.536800384521484,-147.96717834472656,-10.687128067016602,-0.2960658073425293,-10.445817947387695,1452.326721906662
D4:22:CD:00:05:5D,156.45401000976562,-70.31922912597656,-2.0882961750030518,15.565877914428711,2.1434803009033203,-11.98353385925293,1452.3574080467224
D4:22:CD:00:05:6B,23.967397689819336,49.324928283691406,-56.64396286010742,-0.24196183681488037,-3.1476902961730957,-11.390501022338867,1452.3574080467224
D4:22:CD:00:49:AA,-145.5410614013672,-72.34367370605469,75.2982177734375,1.0559906959533691,1.7866661548614502,-9.994346618652344,1452.3574080467224
D4:22:CD:00:05:6E,-41.89228820800781,-48.281307220458984,-135.15760803222656,-2.581186294555664,-4.251333236694336,-6.806230545043945,1452.3574080467224
D4:22:CD:00:05:5E,-35.05290222167969,-52.94624710083008,-147.30966186523438,-13.188276290893555,-0.46654415130615234,-10.68979263305664,1452.3574080467224
D4:22:CD:00:05:5D,159.16757202148438,-70.6596450805664,-1.6921766996383667,-5.373597145080566,-1.3269481658935547,-11.00503921508789,1452.4170095920563
D4:22:CD:00:05:6B,20.5699520111084,58.883544921875,-77.45169830322266,5.81043815612793,3.4795799255371094,-12.844062805175781,1452.4170095920563
D4:22:CD:00:49:AA,-140.87637329101562,-75.8139877319336,71.29960632324219,0.19961461424827576,2.6124391555786133,-8.55422592163086,1452.4170095920563
D4:22:CD:00:05:6E,-31.780330657958984,-47.4937858581543,-136.95606994628906,-2.456173896789551,-5.882689476013184,-5.527376174926758,1452.4170095920563
D4:22:CD:00:05:5E,-38.84657669067383,-47.710594177246094,-145.6068572998047,-15.84067153930664,-4.281201362609863,-11.987930297851562,1452.4170095920563
D4:22:CD:00:05:5D,157.483642578125,-70.07882690429688,-0.7612833976745605,6.460444450378418,5.848852157592773,-7.590683937072754,1452.4261121749878
D4:22:CD:00:05:6B,-5.487532615661621,60.55154037475586,-111.19037628173828,2.854187488555908,-1.8667700290679932,-21.27527618408203,1452.4261121749878
D4:22:CD:00:49:AA,-142.2599334716797,-78.92456817626953,72.39493560791016,-1.348780870437622,1.0158507823944092,-2.847839832305908,1452.4261121749878
D4:22:CD:00:05:6E,-19.108156204223633,-45.89497375488281,-139.51358032226562,-2.809664726257324,-8.965835571289062,-5.148157119750977,1452.4261121749878
D4:22:CD:00:05:5E,-46.369117736816406,-45.60520935058594,-141.02444458007812,-16.387386322021484,-8.342844009399414,-19.265098571777344,1452.4261121749878
D4:22:CD:00:05:5D,157.5547637939453,-69.44282531738281,1.7751033306121826,5.122653007507324,-4.276122093200684,4.701021194458008,1452.4469213485718
D4:22:CD:00:05:6B,-34.41948318481445,50.969913482666016,-137.17652893066406,-17.20458221435547,-10.117000579833984,-30.53219985961914,1452.4469213485718
D4:22:CD:00:49:AA,-149.09201049804688,-79.69512176513672,77.76062774658203,-4.319855690002441,-0.14663255214691162,2.4883975982666016,1452.4469213485718
D4:22:CD:00:05:6E,-7.892297267913818,-43.698909759521484,-140.9344024658203,-3.820840358734131,-10.584239959716797,-4.602653503417969,1452.4469213485718
D4:22:CD:00:05:5E,-60.219688415527344,-47.39043045043945,-132.83200073242188,-18.285839080810547,-9.765726089477539,-18.867996215820312,1452.4469213485718
D4:22:CD:00:05:5D,154.56297302246094,-68.650146484375,9.084512710571289,4.047079086303711,-2.684873104095459,5.18002986907959,1452.4769146442413
D4:22:CD:00:05:6B,-47.124507904052734,44.006080627441406,-146.35641479492188,-0.8160881996154785,6.3234968185424805,-5.863316535949707,1452.4769146442413
D4:22:CD:00:49:AA,-152.1589813232422,-81.11759185791016,78.19417572021484,-4.433835983276367,-1.2803871631622314,5.376112937927246,1452.4769146442413
D4:22:CD:00:05:6E,0.9441380500793457,-41.76063919067383,-139.11514282226562,-2.8841147422790527,-10.63067626953125,-7.32159423828125,1452.4769146442413
D4:22:CD:00:05:5E,-77.01483917236328,-51.1889533996582,-120.24854278564453,-2.3250770568847656,-16.836071014404297,1.6029014587402344,1452.4769146442413
D4:22:CD:00:05:5D,148.51963806152344,-67.31865692138672,16.45026206970215,4.457758903503418,0.37677955627441406,3.596670150756836,1452.5062928199768
D4:22:CD:00:05:6B,-55.46280288696289,47.12220001220703,-140.172607421875,-18.647869110107422,-1.870617389678955,13.658079147338867,1452.5062928199768
D4:22:CD:00:49:AA,-151.30909729003906,-82.65719604492188,75.70018005371094,-4.411294937133789,-0.7328457832336426,0.6202030181884766,1452.5062928199768
D4:22:CD:00:05:6E,3.825838804244995,-41.56497573852539,-132.51535034179688,3.8906145095825195,-14.351251602172852,-7.450812339782715,1452.5062928199768
D4:22:CD:00:05:5E,-73.69309997558594,-54.67381286621094,-117.75328063964844,6.444053649902344,-13.96375846862793,-2.8385705947875977,1452.5062928199768
D4:22:CD:00:05:5D,141.93260192871094,-66.0840835571289,23.51451301574707,0.4228696823120117,-1.8581969738006592,2.8313913345336914,1452.566967010498
D4:22:CD:00:05:6B,-39.17580032348633,47.472408294677734,-136.1512908935547,-1.532231092453003,1.6642515659332275,-6.565478324890137,1452.566967010498
D4:22:CD:00:49:AA,-150.8905029296875,-82.91983795166016,73.38451385498047,-1.119917392730713,1.2507426738739014,-0.6157913208007812,1452.566967010498
D4:22:CD:00:05:6E,-7.339744567871094,-42.83367156982422,-123.17422485351562,10.725883483886719,-21.899768829345703,-6.191228866577148,1452.566967010498
D4:22:CD:00:05:5E,-71.01649475097656,-58.51029586791992,-117.41783905029297,-1.4298982620239258,-8.08642578125,6.968563079833984,1452.566967010498
D4:22:CD:00:05:5D,134.7389373779297,-65.50531768798828,31.51044273376465,0.9322577714920044,0.8896466493606567,2.4767065048217773,1452.596967458725
D4:22:CD:00:05:6B,-22.46197509765625,47.58234786987305,-128.28785705566406,3.5174694061279297,-3.6307802200317383,-8.818571090698242,1452.596967458725
D4:22:CD:00:49:AA,-155.3433380126953,-82.6175765991211,74.8355484008789,2.391524314880371,-1.185624361038208,1.4649791717529297,1452.596967458725
D4:22:CD:00:05:6E,-32.183074951171875,-45.60807800292969,-117.4066390991211,0.1341983675956726,-15.806255340576172,-12.115203857421875,1452.596967458725
D4:22:CD:00:05:5E,-82.52862548828125,-60.931339263916016,-108.87593078613281,1.9731647968292236,-13.940204620361328,2.1283864974975586,1452.596967458725
D4:22:CD:00:05:5D,127.97885131835938,-64.9437255859375,38.89680862426758,1.5277864933013916,6.3941497802734375,2.6394309997558594,1452.6269745826721
D4:22:CD:00:05:6B,-13.650538444519043,47.67079544067383,-113.90867614746094,-6.156533241271973,-3.191044807434082,-8.573385238647461,1452.6269745826721
D4:22:CD:00:49:AA,-159.01136779785156,-80.85808563232422,75.17982482910156,3.7310538291931152,-3.545602798461914,6.983875274658203,1452.6269745826721
D4:22:CD:00:05:6E,-60.15116882324219,-51.66794967651367,-115.54124450683594,-6.862799644470215,-7.837399482727051,1.6695623397827148,1452.6269745826721
D4:22:CD:00:05:5E,-93.52326965332031,-62.681644439697266,-100.38734436035156,-5.30837345123291,2.5390400886535645,-3.507579803466797,1452.6269745826721
D4:22:CD:00:05:5D,121.3418197631836,-66.12029266357422,42.918983459472656,-0.9107906818389893,5.4330949783325195,3.671762466430664,1452.6575112342834
D4:22:CD:00:05:6B,-2.318436622619629,46.23640441894531,-96.37040710449219,-8.831220626831055,-4.621885299682617,-8.697898864746094,1452.6575112342834
D4:22:CD:00:49:AA,-153.77700805664062,-79.88522338867188,69.47245025634766,3.521595001220703,-1.207369089126587,-0.9566974639892578,1452.6575112342834
D4:22:CD:00:05:6E,-76.48760223388672,-59.36967086791992,-115.99220275878906,2.1176390647888184,5.595226287841797,7.255397796630859,1452.6575112342834
D4:22:CD:00:05:5E,-95.5754165649414,-64.46858978271484,-96.84519958496094,-5.846688270568848,-5.121402740478516,-0.23555946350097656,1452.6575112342834
D4:22:CD:00:05:5D,115.73146057128906,-66.95972442626953,39.45198059082031,-21.082015991210938,12.369071960449219,3.5685081481933594,1452.6875100135803
D4:22:CD:00:05:6B,6.572107791900635,42.11551284790039,-79.97319030761719,-6.962456703186035,1.0315663814544678,-3.0948424339294434,1452.6875100135803
D4:22:CD:00:49:AA,-150.36013793945312,-79.8553237915039,67.46907043457031,5.138920783996582,2.5258145332336426,-5.78511905670166,1452.6875100135803
D4:22:CD:00:05:6E,-77.7431640625,-63.41191482543945,-117.85778045654297,3.6119260787963867,4.1445722579956055,3.3818140029907227,1452.6875100135803
D4:22:CD:00:05:5E,-97.45996856689453,-65.9393310546875,-94.8469467163086,-5.426532745361328,-4.333589553833008,-1.8427743911743164,1452.6875100135803
D4:22:CD:00:05:5D,128.86672973632812,-60.90129470825195,21.99005126953125,-16.132568359375,17.07284164428711,6.6362457275390625,1452.7172565460205
D4:22:CD:00:05:6B,14.270463943481445,34.4978141784668,-65.86038208007812,-9.569517135620117,4.282513618469238,-1.104477882385254,1452.7172565460205
D4:22:CD:00:49:AA,-155.2112274169922,-77.74395751953125,72.76586151123047,1.7358410358428955,2.8306918144226074,1.9820270538330078,1452.7172565460205
D4:22:CD:00:05:6E,-68.1236572265625,-64.43083190917969,-125.68144989013672,-6.744515419006348,-2.1417832374572754,3.3327150344848633,1452.7172565460205
D4:22:CD:00:05:5E,-98.97530364990234,-67.27124786376953,-94.03821563720703,-4.633893966674805,-3.0795583724975586,-0.2335662841796875,1452.7172565460205
D4:22:CD:00:05:5D,139.40420532226562,-50.90932083129883,6.161048889160156,-3.216294765472412,8.123359680175781,3.8062095642089844,1452.776917219162
D4:22:CD:00:05:6B,19.957927703857422,23.24436378479004,-53.5561408996582,5.119943618774414,7.427267074584961,0.6725873947143555,1452.776917219162
D4:22:CD:00:49:AA,-155.4016571044922,-77.27300262451172,74.18275451660156,5.568532943725586,0.0554213747382164,6.550882339477539,1452.776917219162
D4:22:CD:00:05:6E,-60.768009185791016,-64.88311767578125,-131.84133911132812,-13.130138397216797,-2.140972137451172,1.5747556686401367,1452.776917219162
D4:22:CD:00:05:5E,-98.32081604003906,-68.69933319091797,-95.04779815673828,-4.999938011169434,-4.035167694091797,-1.0766048431396484,1452.776917219162
D4:22:CD:00:05:5D,144.70919799804688,-40.01784133911133,-4.859462738037109,1.7076866626739502,-0.6795990467071533,-3.890481472015381,1452.7831366062164
D4:22:CD:00:05:6B,10.884723663330078,9.62076187133789,-42.14512634277344,16.82561492919922,21.909832000732422,4.970170021057129,1452.7831366062164
D4:22:CD:00:49:AA,-155.4167022705078,-77.07244873046875,76.24903869628906,8.825078964233398,2.2352194786071777,6.38432502746582,1452.7831366062164
D4:22:CD:00:05:6E,-59.261810302734375,-66.83836364746094,-134.25189208984375,-7.050534248352051,-2.8311429023742676,4.017215728759766,1452.7831366062164
D4:22:CD:00:05:5E,-95.42896270751953,-70.1469497680664,-98.38130187988281,-4.561417579650879,-3.702291488647461,-1.0800437927246094,1452.7831366062164
D4:22:CD:00:05:5D,146.6280059814453,-30.50116539001465,-12.158297538757324,1.003962516784668,-6.952167510986328,-9.181415557861328,1452.807060956955
D4:22:CD:00:05:6B,-21.714048385620117,-2.7489728927612305,-33.1416015625,3.4209537506103516,12.134294509887695,-20.457374572753906,1452.807060956955
D4:22:CD:00:49:AA,-156.212158203125,-78.68580627441406,78.08255004882812,2.0881853103637695,2.6621341705322266,3.004977226257324,1452.807060956955
D4:22:CD:00:05:6E,-60.06454086303711,-70.13003540039062,-135.6996612548828,-4.935691833496094,-1.811382532119751,0.9358234405517578,1452.807060956955
D4:22:CD:00:05:5E,-89.7563705444336,-71.37495422363281,-104.08214569091797,-4.282326698303223,-3.5292282104492188,-1.217728614807129,1452.807060956955
D4:22:CD:00:05:5D,145.7769012451172,-24.385698318481445,-17.049348831176758,0.8464341163635254,-10.194833755493164,-11.223913192749023,1452.866980791092
D4:22:CD:00:05:6B,-48.089210510253906,-12.84145450592041,-27.34835433959961,-7.682620048522949,-17.042007446289062,10.516183853149414,1452.866980791092
D4:22:CD:00:49:AA,-158.16311645507812,-80.78492736816406,80.25828552246094,0.5115715265274048,2.3331122398376465,-0.8726034164428711,1452.866980791092
D4:22:CD:00:05:6E,-58.94533920288086,-74.44557189941406,-137.38307189941406,-2.1389856338500977,-0.5936864614486694,-2.893751621246338,1452.866980791092
D4:22:CD:00:05:5E,-83.54458618164062,-72.11224365234375,-110.4958724975586,-3.9975204467773438,-4.961498260498047,-2.6366658210754395,1452.866980791092
D4:22:CD:00:05:5D,144.52218627929688,-22.385604858398438,-19.467411041259766,5.165170669555664,-5.454498291015625,-14.88121223449707,1452.897022485733
D4:22:CD:00:05:6B,-52.8359489440918,-21.7423038482666,-25.075578689575195,-3.9524989128112793,0.2921658754348755,3.729602813720703,1452.897022485733
D4:22:CD:00:49:AA,-159.85702514648438,-82.10479736328125,82.05575561523438,3.805375099182129,2.5544748306274414,-5.056475639343262,1452.897022485733
D4:22:CD:00:05:6E,-49.71414566040039,-78.79442596435547,-144.45118713378906,-1.3783316612243652,-2.238539695739746,-4.819918632507324,1452.897022485733
D4:22:CD:00:05:5E,-79.62893676757812,-72.45532989501953,-115.09065246582031,-2.877352714538574,-4.2480058670043945,-2.46115779876709,1452.897022485733
D4:22:CD:00:05:5D,148.34146118164062,-24.088106155395508,-20.131961822509766,6.884546279907227,-10.672439575195312,-8.645294189453125,1452.927025794983
D4:22:CD:00:05:6B,-53.130001068115234,-31.182132720947266,-24.885984420776367,-0.5900555849075317,-0.12805506587028503,-5.111692428588867,1452.927025794983
D4:22:CD:00:49:AA,-160.36387634277344,-82.61783599853516,81.93626403808594,6.221689224243164,1.4552690982818604,-7.230766296386719,1452.927025794983
D4:22:CD:00:05:6E,-24.28261375427246,-81.58672332763672,-165.88539123535156,-1.1561660766601562,-0.7389562129974365,-4.00954532623291,1452.927025794983
D4:22:CD:00:05:5E,-79.5948715209961,-72.77459716796875,-115.5968017578125,-1.658210277557373,-3.552018642425537,-2.4142847061157227,1452.927025794983
D4:22:CD:00:05:5D,152.52369689941406,-29.943174362182617,-18.81670379638672,6.601503372192383,-2.328293800354004,4.083026885986328,1452.9567227363586
D4:22:CD:00:05:6B,-54.417667388916016,-43.16804504394531,-25.687074661254883,0.9307117462158203,-3.067288875579834,-3.6026835441589355,1452.9567227363586
D4:22:CD:00:49:AA,-163.5871124267578,-82.39063262939453,82.62911987304688,4.77311897277832,-1.6224615573883057,-5.824594497680664,1452.9567227363586
D4:22:CD:00:05:6E,11.583642959594727,-81.23839569091797,164.52587890625,-0.3037015199661255,-1.1279981136322021,-3.5566282272338867,1452.9567227363586
D4:22:CD:00:05:5E,-84.25526428222656,-72.47701263427734,-109.48360443115234,-0.5769952535629272,-3.876577854156494,-2.9167494773864746,1452.9567227363586
D4:22:CD:00:05:5D,156.0228271484375,-31.803434371948242,-16.27640151977539,2.7776479721069336,-0.8019058704376221,9.488433837890625,1452.9868388175964
D4:22:CD:00:05:6B,-51.21924591064453,-58.754215240478516,-30.450130462646484,1.7594356536865234,-5.451114654541016,10.352642059326172,1452.9868388175964
D4:22:CD:00:49:AA,-168.37962341308594,-82.29513549804688,84.7073974609375,-2.535036563873291,-4.663147926330566,-6.073081016540527,1452.9868388175964
D4:22:CD:00:05:6E,43.93681716918945,-78.02454376220703,141.5050048828125,-1.4226112365722656,-6.391704559326172,-2.056757926940918,1452.9868388175964
D4:22:CD:00:05:5E,-95.14099884033203,-71.36453247070312,-97.57510375976562,-3.4825844764709473,-6.349386215209961,-3.737382411956787,1452.9868388175964
D4:22:CD:00:05:5D,163.4599609375,-32.46135711669922,-13.471024513244629,6.560091972351074,-3.8035502433776855,-5.187991142272949,1453.0171377658844
D4:22:CD:00:05:6B,-18.623613357543945,-72.13157653808594,-59.247779846191406,2.067615509033203,-0.9494702816009521,35.071937561035156,1453.0171377658844
D4:22:CD:00:49:AA,-167.77171325683594,-82.17378997802734,82.87081909179688,-4.890427589416504,-1.3111975193023682,-4.042106628417969,1453.0171377658844
D4:22:CD:00:05:6E,63.921146392822266,-72.19336700439453,123.85941314697266,-4.229991912841797,-13.633504867553711,3.638641357421875,1453.0171377658844
D4:22:CD:00:05:5E,-105.57903289794922,-69.51609802246094,-86.2186508178711,-3.9529800415039062,-4.383909225463867,-2.7420096397399902,1453.0171377658844
D4:22:CD:00:05:5D,167.7214813232422,-32.33262252807617,-11.150800704956055,10.240983963012695,-5.702737808227539,-1.674820899963379,1453.0473036766052
D4:22:CD:00:05:6B,12.7813138961792,-71.93502807617188,-85.29954528808594,0.06521487236022949,-8.170719146728516,5.558213233947754,1453.0473036766052
D4:22:CD:00:49:AA,-166.77049255371094,-83.15481567382812,80.55078887939453,-0.052934348583221436,0.6897710561752319,0.6251688003540039,1453.0473036766052
D4:22:CD:00:05:6E,69.7750244140625,-62.13373947143555,109.47808074951172,1.6838443279266357,-9.138772964477539,11.350088119506836,1453.0473036766052
D4:22:CD:00:05:5E,-113.80620574951172,-67.32022094726562,-77.75291442871094,-4.929819107055664,-4.7043914794921875,-0.4782600402832031,1453.0473036766052
D4:22:CD:00:05:5D,168.53579711914062,-31.52091407775879,-10.93985652923584,15.920146942138672,-6.808802604675293,7.044992446899414,1453.0766651630402
D4:22:CD:00:05:6B,-5.6904497146606445,-69.4461669921875,-62.397918701171875,6.4603471755981445,-0.4685702323913574,4.674583435058594,1453.0766651630402
D4:22:CD:00:49:AA,-169.50010681152344,-83.32091522216797,81.60155487060547,3.213871479034424,1.5581557750701904,3.946812629699707,1453.0766651630402
D4:22:CD:00:05:6E,69.83123016357422,-46.94003677368164,100.41558074951172,6.201048851013184,-10.706480026245117,14.553529739379883,1453.0766651630402
D4:22:CD:00:05:5E,-118.30260467529297,-65.56292724609375,-72.78861999511719,-5.029538154602051,-3.1902856826782227,0.034084320068359375,1453.0766651630402
D4:22:CD:00:05:5D,163.6934356689453,-29.275352478027344,-12.273382186889648,15.454288482666016,-6.904603004455566,9.577238082885742,1453.107186794281
D4:22:CD:00:05:6B,-33.473846435546875,-59.53593826293945,-34.66415786743164,9.046987533569336,-15.998435974121094,16.50197982788086,1453.107186794281
D4:22:CD:00:49:AA,-174.9140167236328,-82.24640655517578,85.76040649414062,2.3224215507507324,-1.084758996963501,5.605925559997559,1453.107186794281
D4:22:CD:00:05:6E,65.49884033203125,-29.103979110717773,95.61253356933594,9.737604141235352,-11.681121826171875,14.913450241088867,1453.107186794281
D4:22:CD:00:05:5E,-121.0718002319336,-64.58563995361328,-69.79810333251953,-4.968500137329102,-3.359814167022705,-0.9868383407592773,1453.107186794281
D4:22:CD:00:05:5D,157.3835906982422,-24.28337287902832,-13.274374008178711,10.714649200439453,-4.1401166915893555,8.725715637207031,1453.1365599632263
D4:22:CD:00:05:6B,-41.71249008178711,-46.72572708129883,-25.511669158935547,14.113311767578125,-6.5742292404174805,7.065464019775391,1453.1365599632263
D4:22:CD:00:49:AA,-177.8912353515625,-82.23631286621094,88.0375747680664,1.241865634918213,0.044265396893024445,6.939785003662109,1453.1365599632263
D4:22:CD:00:05:6E,57.75284194946289,-10.202594757080078,94.3627700805664,13.872337341308594,-4.641567230224609,18.946521759033203,1453.1365599632263
D4:22:CD:00:05:5E,-122.54900360107422,-64.69847869873047,-68.33892059326172,-4.966470718383789,-2.52309513092041,0.2283344268798828,1453.1365599632263
D4:22:CD:00:05:5D,156.83004760742188,-18.949995040893555,-14.882033348083496,10.235637664794922,-3.43206787109375,5.169865608215332,1453.19726228714
D4:22:CD:00:05:6B,-45.006195068359375,-35.795127868652344,-25.145898818969727,9.196710586547852,-5.984764099121094,3.341245651245117,1453.19726228714
D4:22:CD:00:49:AA,176.90789794921875,-83.95967102050781,93.83795166015625,2.053168296813965,2.684964179992676,8.453832626342773,1453.19726228714
D4:22:CD:00:05:6E,47.99485778808594,9.727575302124023,93.95922088623047,-0.4183165431022644,3.5012307167053223,18.72509765625,1453.19726228714
D4:22:CD:00:05:5E,-122.0665054321289,-66.28787994384766,-68.67792510986328,-5.968409538269043,-4.206659317016602,0.10112953186035156,1453.19726228714
D4:22:CD:00:05:5D,155.8640899658203,-15.958518981933594,-17.49365997314453,2.4939398765563965,-7.075063705444336,2.090909957885742,1453.2267282009125
D4:22:CD:00:05:6B,-49.15220642089844,-28.57425880432129,-28.462533950805664,4.337192535400391,-5.050406455993652,-3.160447597503662,1453.2267282009125
D4:22:CD:00:49:AA,161.1499481201172,-84.77108764648438,109.04695892333984,6.5325822830200195,3.3981313705444336,8.038782119750977,1453.2267282009125
D4:22:CD:00:05:6E,42.27521896362305,26.915922164916992,91.33158874511719,-8.706048965454102,5.711596488952637,11.836610794067383,1453.2267282009125
D4:22:CD:00:05:5E,-117.52041625976562,-68.3033218383789,-74.14910888671875,-7.498869895935059,-5.808380126953125,-0.32813549041748047,1453.2267282009125
D4:22:CD:00:05:5D,153.87347412109375,-16.203319549560547,-19.95899200439453,-0.9371461868286133,-5.608865737915039,-3.600419521331787,1453.2569782733917
D4:22:CD:00:05:6B,-53.42433166503906,-27.172746658325195,-33.133304595947266,0.9258302450180054,-2.998322010040283,0.12054157257080078,1453.2569782733917
D4:22:CD:00:49:AA,138.4376983642578,-85.14078521728516,130.71466064453125,1.7186970710754395,3.9396142959594727,5.151045799255371,1453.2569782733917
D4:22:CD:00:05:6E,46.46745681762695,40.25883102416992,87.06372833251953,-10.174873352050781,2.598522186279297,1.967362403869629,1453.2569782733917
D4:22:CD:00:05:5E,-107.2518081665039,-69.80343627929688,-86.70234680175781,-5.673040390014648,-5.633094787597656,4.889542579650879,1453.2569782733917
D4:22:CD:00:05:5D,153.2008056640625,-19.956806182861328,-20.965604782104492,-0.3114044666290283,-5.632256507873535,-9.109394073486328,1453.2870724201202
D4:22:CD:00:05:6B,-55.79961395263672,-31.034351348876953,-38.42668151855469,1.4599864482879639,-0.06793111562728882,0.4182319641113281,1453.2870724201202
D4:22:CD:00:49:AA,127.99654388427734,-83.92762756347656,139.31788635253906,1.266315221786499,2.3549885749816895,1.4400815963745117,1453.2870724201202
D4:22:CD:00:05:6E,60.31248474121094,49.435394287109375,84.47806549072266,-6.281681060791016,1.7420248985290527,-5.518947601318359,1453.2870724201202
D4:22:CD:00:05:5E,-90.70526123046875,-70.85209655761719,-103.62804412841797,-0.20737889409065247,-7.494704246520996,9.094366073608398,1453.2870724201202
D4:22:CD:00:05:5D,153.40460205078125,-26.886899948120117,-20.133628845214844,0.8913938999176025,-6.256270408630371,-11.43126106262207,1453.3170747756958
D4:22:CD:00:05:6B,-58.89354705810547,-37.626678466796875,-43.89822006225586,-1.3478755950927734,1.7185595035552979,-1.9778504371643066,1453.3170747756958
D4:22:CD:00:49:AA,127.10098266601562,-81.87593078613281,138.10047912597656,3.2672104835510254,-0.654827356338501,-3.0346198081970215,1453.3170747756958
D4:22:CD:00:05:6E,74.1053466796875,54.47887420654297,87.52067565917969,-5.489076614379883,6.390907287597656,-7.506776809692383,1453.3170747756958
D4:22:CD:00:05:5E,-62.74229049682617,-69.79851531982422,-126.0999526977539,-0.5541486740112305,4.198780059814453,-5.066633224487305,1453.3170747756958
D4:22:CD:00:05:5D,152.2817840576172,-36.52105712890625,-17.806886672973633,2.5813169479370117,-4.948642730712891,-10.619722366333008,1453.346969127655
D4:22:CD:00:05:6B,-61.11228561401367,-45.66995620727539,-49.071868896484375,-2.8654236793518066,1.29978346824646,-5.046006202697754,1453.346969127655
D4:22:CD:00:49:AA,131.14682006835938,-79.68016052246094,132.52377319335938,0.32036101818084717,-1.059532642364502,-4.673917770385742,1453.346969127655
D4:22:CD:00:05:6E,78.19401550292969,54.96719741821289,96.79566955566406,-3.105891227722168,5.238189697265625,-11.665721893310547,1453.346969127655
D4:22:CD:00:05:5E,-55.23249053955078,-68.25071716308594,-130.70350646972656,-8.618227005004883,-0.8891937732696533,-11.927820205688477,1453.346969127655
D4:22:CD:00:05:5D,150.36407470703125,-47.94297409057617,-14.052898406982422,3.304704189300537,-0.9357365369796753,-7.937725067138672,1453.3769235610962
D4:22:CD:00:05:6B,-59.72391891479492,-54.162567138671875,-54.35588073730469,-0.9551823139190674,2.454021453857422,-4.797991752624512,1453.3769235610962
D4:22:CD:00:49:AA,136.35325622558594,-78.3930892944336,127.29371643066406,-3.288412570953369,0.7763772010803223,-9.111980438232422,1453.3769235610962
D4:22:CD:00:05:6E,77.9715576171875,51.18504333496094,109.9985122680664,-9.589067459106445,3.5846457481384277,-12.347991943359375,1453.3769235610962
D4:22:CD:00:05:5E,-64.85830688476562,-67.24262237548828,-124.1257095336914,-5.708743095397949,-2.7358531951904297,-11.032575607299805,1453.3769235610962
D4:22:CD:00:05:5D,147.364501953125,-60.63618087768555,-8.62575626373291,2.4222655296325684,0.5416067838668823,-3.1446313858032227,1453.4072239398956
D4:22:CD:00:05:6B,-56.14942169189453,-61.76995849609375,-60.424320220947266,-0.7913769483566284,1.25075364112854,-5.970113754272461,1453.4072239398956
D4:22:CD:00:49:AA,135.58663940429688,-78.49259948730469,127.31806182861328,-0.0008318593027070165,1.0357062816619873,-9.83683967590332,1453.4072239398956
D4:22:CD:00:05:6E,80.13075256347656,44.23008346557617,121.90631103515625,-9.992988586425781,12.309295654296875,-21.155540466308594,1453.4072239398956
D4:22:CD:00:05:5E,-79.73201751708984,-66.15986633300781,-116.59850311279297,1.3819599151611328,-0.9260891675949097,-11.157470703125,1453.4072239398956
D4:22:CD:00:05:5D,136.9839324951172,-73.96197509765625,3.638550281524658,-0.6092565059661865,-1.3337836265563965,3.9509382247924805,1453.4364867210388
D4:22:CD:00:05:6B,-56.20390319824219,-65.86825561523438,-66.80157470703125,-4.728446006774902,8.497848510742188,-2.1060256958007812,1453.4364867210388
D4:22:CD:00:49:AA,128.2046356201172,-79.88362884521484,132.8819122314453,1.6434104442596436,0.7060168981552124,-8.925386428833008,1453.4364867210388
D4:22:CD:00:05:6E,90.01793670654297,39.47968673706055,132.16119384765625,-8.995338439941406,-1.7446157932281494,-27.558101654052734,1453.4364867210388
D4:22:CD:00:05:5E,-88.095458984375,-64.68511962890625,-112.87639617919922,-11.404720306396484,2.374447822570801,-3.0022521018981934,1453.4364867210388
D4:22:CD:00:05:5D,70.54920196533203,-81.90478515625,69.76997375488281,-7.968229293823242,4.219194412231445,10.769876480102539,1453.4972877502441
D4:22:CD:00:05:6B,-47.04204559326172,-66.88307189941406,-77.31182098388672,-0.6373684406280518,8.236852645874023,-0.8999824523925781,1453.4972877502441
D4:22:CD:00:49:AA,122.11173248291016,-81.09953308105469,136.89735412597656,2.4709763526916504,1.107017993927002,-7.292713165283203,1453.4972877502441
D4:22:CD:00:05:6E,93.80807495117188,42.23097229003906,129.9153289794922,1.5258283615112305,5.484598159790039,-5.376766204833984,1453.4972877502441
D4:22:CD:00:05:5E,-95.90148162841797,-63.83890914916992,-107.38402557373047,0.7101967334747314,-5.158596992492676,-4.780895233154297,1453.4972877502441
D4:22:CD:00:05:5D,30.531007766723633,-76.85472106933594,113.81417083740234,-8.012645721435547,14.084623336791992,-12.047565460205078,1453.5273077487946
D4:22:CD:00:05:6B,-36.99374771118164,-66.04598999023438,-87.48735809326172,0.336179256439209,2.117770195007324,-7.735010147094727,1453.5273077487946
D4:22:CD:00:49:AA,122.96529388427734,-82.63627624511719,135.0860137939453,2.128910541534424,-0.9628851413726807,-4.887856483459473,1453.5273077487946
D4:22:CD:00:05:6E,90.9034652709961,51.383419036865234,120.54177856445312,-7.311196327209473,6.844816207885742,-7.986886024475098,1453.5273077487946
D4:22:CD:00:05:5E,-104.26564025878906,-62.121978759765625,-101.28157043457031,-1.5759985446929932,-5.944684982299805,0.2571544647216797,1453.5273077487946
D4:22:CD:00:05:5D,39.52452087402344,-75.02523803710938,110.08049774169922,-16.754077911376953,8.152027130126953,-6.378594398498535,1453.556839466095
D4:22:CD:00:05:6B,-34.79984664916992,-64.80133819580078,-92.84188079833984,2.4716339111328125,-1.7030808925628662,-5.502802848815918,1453.556839466095
D4:22:CD:00:49:AA,136.3556365966797,-84.11737060546875,122.2081069946289,1.1704566478729248,-2.843489170074463,1.001021385192871,1453.556839466095
D4:22:CD:00:05:6E,67.30696868896484,63.39957046508789,94.40986633300781,-5.979062080383301,9.571662902832031,-20.82868194580078,1453.556839466095
D4:22:CD:00:05:5E,-111.50885009765625,-58.90178298950195,-97.4787826538086,-3.652667999267578,-7.657770156860352,4.829943656921387,1453.556839466095
D4:22:CD:00:05:5D,74.0994644165039,-75.32154846191406,80.6858901977539,-19.355621337890625,19.313129425048828,-5.618156433105469,1453.5869901180267
D4:22:CD:00:05:6B,-34.60859680175781,-64.35706329345703,-96.40228271484375,-0.7695156335830688,1.125108242034912,-1.6804742813110352,1453.5869901180267
D4:22:CD:00:49:AA,152.9014434814453,-84.0215835571289,106.0363998413086,5.533102035522461,-1.367192268371582,8.527887344360352,1453.5869901180267
D4:22:CD:00:05:6E,26.183515548706055,65.67127990722656,47.57185363769531,0.9845707416534424,3.6521081924438477,-16.00452423095703,1453.5869901180267
D4:22:CD:00:05:5E,-111.95793151855469,-56.138267517089844,-98.17716979980469,-4.918121337890625,-6.8687944412231445,5.356786727905273,1453.5869901180267
D4:22:CD:00:05:5D,106.7468490600586,-74.4591064453125,51.25507354736328,15.602214813232422,3.728705406188965,4.449160575866699,1453.6171252727509
D4:22:CD:00:05:6B,-30.658061981201172,-66.68855285644531,-100.67997741699219,-1.7975013256072998,0.9010711908340454,1.804612159729004,1453.6171252727509
D4:22:CD:00:49:AA,163.79446411132812,-83.42019653320312,95.60478973388672,4.053256034851074,-1.351196527481079,8.991920471191406,1453.6171252727509
D4:22:CD:00:05:6E,1.3650189638137817,54.595760345458984,16.33864402770996,-1.395197868347168,0.2564055323600769,-11.440378189086914,1453.6171252727509
D4:22:CD:00:05:5E,-106.81964111328125,-54.488182067871094,-102.42008972167969,-3.822564125061035,-8.209379196166992,5.859174728393555,1453.6171252727509
D4:22:CD:00:05:5D,120.76793670654297,-74.77005004882812,33.68684005737305,-0.3651314377784729,-3.951228141784668,7.848913192749023,1453.646805047989
D4:22:CD:00:05:6B,-24.99933624267578,-72.3731918334961,-106.5982666015625,-2.443145275115967,-0.4092281460762024,8.45208740234375,1453.646805047989
D4:22:CD:00:49:AA,169.05113220214844,-82.7061538696289,91.71550750732422,-1.14286470413208,-0.8939710855484009,5.383893013000488,1453.646805047989
D4:22:CD:00:05:6E,-5.4946136474609375,41.00025939941406,3.8892974853515625,5.804587364196777,-15.79832649230957,1.478769302368164,1453.646805047989
D4:22:CD:00:05:5E,-96.68915557861328,-53.30929946899414,-109.69122314453125,-0.48887020349502563,-11.137630462646484,2.6580724716186523,1453.646805047989
D4:22:CD:00:05:5D,135.36293029785156,-73.75132751464844,23.119890213012695,2.106881618499756,-5.964596748352051,6.384395599365234,1453.6763920783997
D4:22:CD:00:05:6B,-20.480514526367188,-79.97198486328125,-112.65475463867188,-2.2237420082092285,-0.39763277769088745,6.916204452514648,1453.6763920783997
D4:22:CD:00:49:AA,174.53329467773438,-81.9659423828125,89.937744140625,-4.103216171264648,0.7121509313583374,2.325101852416992,1453.6763920783997
D4:22:CD:00:05:6E,0.34446585178375244,30.455909729003906,-2.272796630859375,5.046533584594727,-21.46804428100586,6.600591659545898,1453.6763920783997
D4:22:CD:00:05:5E,-82.65030670166016,-52.070884704589844,-115.80912017822266,-12.822099685668945,-5.937347412109375,-10.73779296875,1453.6763920783997
D4:22:CD:00:05:5D,148.01072692871094,-73.27392578125,15.74557876586914,-3.9175939559936523,-5.048020362854004,1.0010194778442383,1453.710032939911
D4:22:CD:00:05:6B,-9.896394729614258,-87.71913146972656,-122.66402435302734,-0.3148912191390991,3.299203395843506,6.526464462280273,1453.710032939911
D4:22:CD:00:49:AA,177.8695831298828,-80.20584106445312,91.02348327636719,-5.04970645904541,3.7072458267211914,-2.0120720863342285,1453.710032939911
D4:22:CD:00:05:6E,17.37470054626465,25.810964584350586,-4.376314640045166,4.0207366943359375,-33.19718933105469,9.158071517944336,1453.710032939911
D4:22:CD:00:05:5E,-72.16084289550781,-51.01930236816406,-115.13428497314453,-23.04735565185547,-6.199629783630371,-7.1219940185546875,1453.710032939911
D4:22:CD:00:05:5D,157.4685821533203,-73.7409896850586,6.014197826385498,1.377671480178833,3.8460936546325684,1.0606651306152344,1453.7366483211517
D4:22:CD:00:05:6B,136.84275817871094,-87.1747817993164,97.62602996826172,-1.0120718479156494,3.5024337768554688,3.119680404663086,1453.7366483211517
D4:22:CD:00:49:AA,177.7222442626953,-78.3577651977539,94.04006958007812,-1.8514928817749023,0.6105616092681885,-0.797236442565918,1453.7366483211517
D4:22:CD:00:05:6E,43.40066909790039,26.623111724853516,0.9033780097961426,-1.0742034912109375,-8.510078430175781,-7.621406555175781,1453.7366483211517
D4:22:CD:00:05:5E,-64.18912506103516,-51.423587799072266,-107.70743560791016,-20.19301986694336,-13.226032257080078,-12.231803894042969,1453.7366483211517
D4:22:CD:00:05:5D,166.359619140625,-74.22486877441406,-3.1313705444335938,0.5810661315917969,4.165426254272461,0.15991592407226562,1453.7967851161957
D4:22:CD:00:05:6B,134.54518127441406,-85.02587127685547,105.46272277832031,0.8054424524307251,0.15761741995811462,3.7804346084594727,1453.7967851161957
D4:22:CD:00:49:AA,174.3340301513672,-76.73863983154297,98.22906494140625,0.24814856052398682,-0.833680272102356,2.486727714538574,1453.7967851161957
D4:22:CD:00:05:6E,62.872467041015625,26.490964889526367,8.603736877441406,-6.679845809936523,19.65142059326172,4.021721839904785,1453.7967851161957
D4:22:CD:00:05:5E,-71.14396667480469,-53.599876403808594,-92.58732604980469,-10.766233444213867,-13.431686401367188,-12.772216796875,1453.7967851161957
D4:22:CD:00:05:5D,173.01954650878906,-74.91748046875,-8.673705101013184,0.3715021014213562,1.1014833450317383,0.514460563659668,1453.826981306076
D4:22:CD:00:05:6B,111.45345306396484,-84.09973907470703,130.67095947265625,-5.042041778564453,0.7114627361297607,1.8508110046386719,1453.826981306076
D4:22:CD:00:49:AA,168.32562255859375,-75.86064910888672,104.751953125,-3.4732666015625,2.0279488563537598,2.408329963684082,1453.826981306076
D4:22:CD:00:05:6E,65.88818359375,23.281858444213867,10.968168258666992,-7.06282901763916,5.199241638183594,5.5945940017700195,1453.826981306076
D4:22:CD:00:05:5E,-88.35012817382812,-55.90229034423828,-73.54866790771484,-2.8714823722839355,-7.977008819580078,-9.323345184326172,1453.826981306076
D4:22:CD:00:05:5D,177.77455139160156,-75.64683532714844,-12.908720016479492,0.4872508645057678,-1.5593187808990479,0.3299398422241211,1453.8568165302277
D4:22:CD:00:05:6B,85.46212768554688,-84.31462860107422,156.04525756835938,-3.2324423789978027,-2.7624826431274414,0.24670028686523438,1453.8568165302277
D4:22:CD:00:49:AA,164.67872619628906,-76.16214752197266,109.8175277709961,-6.049871444702148,2.6530961990356445,-2.134981155395508,1453.8568165302277
D4:22:CD:00:05:6E,69.3790283203125,17.8001766204834,11.373197555541992,-4.150350570678711,-10.707338333129883,-11.19857406616211,1453.8568165302277
D4:22:CD:00:05:5E,-105.57794189453125,-56.509761810302734,-54.965206146240234,1.504650592803955,-3.1225695610046387,-7.223389625549316,1453.8568165302277
D4:22:CD:00:05:5D,-177.0403594970703,-76.28585815429688,-18.758352279663086,0.8662338256835938,-0.8690541982650757,-0.11236381530761719,1453.886850118637
D4:22:CD:00:05:6B,34.99468994140625,-84.99140167236328,-158.87118530273438,-3.5626988410949707,-1.042931079864502,-1.0880413055419922,1453.886850118637
D4:22:CD:00:49:AA,162.4995574951172,-76.62509155273438,114.02777862548828,-2.824554443359375,1.7825067043304443,-4.808101654052734,1453.886850118637
D4:22:CD:00:05:6E,82.83027648925781,8.993531227111816,12.56905746459961,0.6830387115478516,0.9134457111358643,-11.578907012939453,1453.886850118637
D4:22:CD:00:05:5E,-120.02090454101562,-56.00707244873047,-39.974830627441406,2.614955425262451,-1.953066349029541,-8.971586227416992,1453.886850118637
D4:22:CD:00:05:5D,-173.9303741455078,-75.87639617919922,-22.406408309936523,2.8382325172424316,0.7462254762649536,-1.1756019592285156,1453.9166679382324
D4:22:CD:00:05:6B,-10.637653350830078,-81.76930236816406,-118.13069152832031,-5.410874366760254,1.857973575592041,-2.8208632469177246,1453.9166679382324
D4:22:CD:00:49:AA,158.79859924316406,-76.18428802490234,118.91023254394531,0.46204596757888794,-0.005212433636188507,-4.064539909362793,1453.9166679382324
D4:22:CD:00:05:6E,96.03094482421875,-3.830840587615967,14.394133567810059,7.553668975830078,3.2933602333068848,-5.496586799621582,1453.9166679382324
D4:22:CD:00:05:5E,-134.2720947265625,-55.64862823486328,-28.1639347076416,1.2389287948608398,-2.4427762031555176,-8.692333221435547,1453.9166679382324
D4:22:CD:00:05:5D,-175.11492919921875,-73.82890319824219,-20.864574432373047,4.576451301574707,2.1812891960144043,-1.8406662940979004,1453.9561607837677
D4:22:CD:00:05:6B,-30.620319366455078,-75.96539306640625,-101.52803039550781,-4.486589431762695,1.4397330284118652,-4.039787292480469,1453.9561607837677
D4:22:CD:00:49:AA,152.74729919433594,-75.37674713134766,124.59397888183594,0.8553087711334229,-1.234006643295288,-4.381948471069336,1453.9561607837677
D4:22:CD:00:05:6E,101.10346984863281,-19.423418045043945,17.7557430267334,9.492477416992188,2.5278472900390625,9.067678451538086,1453.9561607837677
D4:22:CD:00:05:5E,-148.10580444335938,-56.475276947021484,-18.597082138061523,1.9124672412872314,-1.691593885421753,-4.712155342102051,1453.9561607837677
D4:22:CD:00:05:5D,-177.53378295898438,-70.55641174316406,-17.645267486572266,1.1819171905517578,-0.14057672023773193,-0.1029520034790039,1453.977162361145
D4:22:CD:00:05:6B,-45.68793487548828,-67.92620086669922,-92.61630249023438,-4.47067928314209,2.0741662979125977,-3.264105796813965,1453.977162361145
D4:22:CD:00:49:AA,145.0398406982422,-74.39936065673828,131.25843811035156,-0.1928999423980713,-0.9689508676528931,-4.665964126586914,1453.977162361145
D4:22:CD:00:05:6E,93.89546203613281,-35.537601470947266,24.56110954284668,12.332447052001953,2.6464672088623047,8.197149276733398,1453.977162361145
D4:22:CD:00:05:5E,-158.5606689453125,-59.674072265625,-11.257115364074707,7.752046585083008,1.6708323955535889,-3.282986640930176,1453.977162361145
D4:22:CD:00:05:5D,179.2164306640625,-67.00484466552734,-14.53203010559082,0.8143694400787354,1.8917665481567383,-1.5488224029541016,1454.007255077362
D4:22:CD:00:05:6B,-56.587493896484375,-57.10211181640625,-89.5221176147461,-7.097696304321289,3.878966808319092,-5.531641006469727,1454.007255077362
D4:22:CD:00:49:AA,136.20066833496094,-73.67122650146484,138.54515075683594,0.639840841293335,0.2809690833091736,-4.181278228759766,1454.007255077362
D4:22:CD:00:05:6E,86.45833587646484,-49.17137145996094,36.98869323730469,18.17444610595703,7.630484580993652,11.951005935668945,1454.007255077362
D4:22:CD:00:05:5E,-159.75125122070312,-64.85710144042969,-7.0575761795043945,-11.672906875610352,2.463369369506836,16.45941162109375,1454.007255077362
D4:22:CD:00:05:5D,175.50680541992188,-62.309303283691406,-10.499693870544434,1.2505369186401367,0.07467673718929291,-0.8651704788208008,1454.037279844284
D4:22:CD:00:05:6B,-64.96721649169922,-43.81237030029297,-88.62850952148438,-6.6112260818481445,4.364937782287598,-2.824439525604248,1454.037279844284
D4:22:CD:00:49:AA,127.50337982177734,-73.38289642333984,145.3529052734375,0.7203671932220459,1.8658421039581299,-5.781841278076172,1454.037279844284
D4:22:CD:00:05:6E,102.87064361572266,-53.618194580078125,39.5031852722168,2.4464893341064453,-8.50811767578125,-3.365725040435791,1454.037279844284
D4:22:CD:00:05:5E,-154.69129943847656,-65.173828125,-5.069267272949219,25.976337432861328,15.00876235961914,-3.6964211463928223,1454.037279844284
D4:22:CD:00:05:5D,173.5014190673828,-57.27936553955078,-6.814628601074219,-3.3225855827331543,-1.2665209770202637,-1.1811447143554688,1454.09654378891
D4:22:CD:00:05:6B,-71.99673461914062,-28.733171463012695,-88.29271697998047,-4.600096702575684,4.240320205688477,1.6234197616577148,1454.09654378891
D4:22:CD:00:49:AA,124.67134857177734,-72.5391616821289,146.78131103515625,-1.4230458736419678,3.2542338371276855,-0.7277059555053711,1454.09654378891
D4:22:CD:00:05:6E,110.88827514648438,-55.44805145263672,39.043067932128906,2.394188404083252,-10.941909790039062,7.522974014282227,1454.09654378891
D4:22:CD:00:05:5E,-153.1057891845703,-65.58761596679688,-4.216312885284424,9.399024963378906,-5.038824081420898,9.683452606201172,1454.09654378891
