Device,EulerX,EulerY,EulerZ,FreeAccX,FreeAccY,FreeAccZ,Timestamp
D4:22:CD:00:05:5D,177.62376403808594,-70.3450927734375,-87.58818054199219,-0.5167666673660278,1.3694684505462646,0.6659173965454102,493.3369972705841
D4:22:CD:00:05:6B,-30.562480926513672,9.58236312866211,-33.24848937988281,3.2107934951782227,-3.802274703979492,-0.7675094604492188,493.3369972705841
D4:22:CD:00:49:AA,124.65292358398438,-72.6521987915039,138.19789123535156,-3.1256537437438965,2.1935839653015137,1.7661867141723633,493.3369972705841
D4:22:CD:00:05:6E,108.51087188720703,-76.5538558959961,30.472862243652344,-2.6341676712036133,2.8543124198913574,3.4483985900878906,493.3369972705841
D4:22:CD:00:05:5E,-165.1562042236328,-40.675331115722656,-103.0137710571289,6.9768476486206055,-7.064617156982422,-3.4268932342529297,493.3369972705841
D4:22:CD:00:05:6B,-20.721805572509766,18.147491455078125,-33.58078384399414,-6.095615386962891,-6.437379837036133,-4.853177070617676,493.34853315353394
D4:22:CD:00:49:AA,127.69720458984375,-74.76000213623047,138.67384338378906,-3.20466947555542,2.5366010665893555,1.1332855224609375,493.34853315353394
D4:22:CD:00:05:6E,116.46896362304688,-81.35702514648438,33.62681198120117,-4.333621978759766,0.8905410766601562,4.255941390991211,493.34853315353394
D4:22:CD:00:05:5E,-160.04832458496094,-47.45686340332031,-108.53668975830078,4.683372497558594,-4.834429740905762,-4.43887996673584,493.34853315353394
D4:22:CD:00:05:5D,-142.11526489257812,-77.20152282714844,-140.5255889892578,-0.14745527505874634,-0.4331474304199219,-0.5330467224121094,493.3565285205841
D4:22:CD:00:05:6B,-13.032835006713867,25.53748321533203,-34.92288589477539,-7.880327224731445,-4.5990753173828125,-7.870965003967285,493.3565285205841
D4:22:CD:00:49:AA,132.40260314941406,-76.80615997314453,137.87921142578125,-0.6540251970291138,1.1937940120697021,-1.3106307983398438,493.3565285205841
D4:22:CD:00:05:6E,122.64921569824219,-85.80712127685547,40.074974060058594,-4.55748176574707,-0.9892925024032593,2.398977279663086,493.3565285205841
D4:22:CD:00:05:5E,-150.59075927734375,-57.04521179199219,-117.71057891845703,1.3189492225646973,-3.1548805236816406,-1.0135412216186523,493.3565285205841
D4:22:CD:00:05:5D,-144.2222900390625,-76.20783996582031,-137.5574951171875,-1.2224581241607666,0.9049180746078491,-0.5816593170166016,493.3647792339325
D4:22:CD:00:05:6B,-110.5867919921875,-78.47052001953125,-60.09988784790039,1.5425994396209717,1.225653886795044,-4.033270835876465,493.3647792339325
D4:22:CD:00:49:AA,135.20433044433594,-78.91883850097656,138.2193603515625,0.8611201047897339,1.2546772956848145,-4.117766380310059,493.3647792339325
D4:22:CD:00:05:6E,81.27017974853516,-89.1976547241211,94.77664947509766,-4.706612586975098,-4.691895484924316,-2.070805072784424,493.3647792339325
D4:22:CD:00:05:5E,-133.11175537109375,-67.32418060302734,-135.78773498535156,-3.4014363288879395,3.033271312713623,3.6501808166503906,493.3647792339325
D4:22:CD:00:05:5D,-165.3984375,-71.14447784423828,-114.13905334472656,-0.3318449854850769,1.1048543453216553,-0.879399299621582,493.37470269203186
D4:22:CD:00:05:6B,-74.87405395507812,-58.09634017944336,-101.1675033569336,-0.04544679820537567,0.14686226844787598,5.580317497253418,493.37470269203186
D4:22:CD:00:49:AA,147.9947052001953,-71.08484649658203,130.5102996826172,1.768078088760376,1.9329414367675781,3.2146854400634766,493.37470269203186
D4:22:CD:00:05:6E,-39.065364837646484,-52.151405334472656,169.02601623535156,3.9967737197875977,0.7075742483139038,10.310457229614258,493.37470269203186
D4:22:CD:00:05:5D,-169.7103271484375,-67.27178192138672,-109.14369201660156,-2.4115843772888184,1.3839781284332275,0.3168811798095703,493.40408968925476
D4:22:CD:00:05:6B,-74.92122650146484,-48.114627838134766,-103.42996215820312,0.2060537040233612,0.07723809778690338,13.400318145751953,493.40408968925476
D4:22:CD:00:49:AA,136.49749755859375,-69.338134765625,140.5530242919922,-6.812383651733398,-0.5364006757736206,7.412786483764648,493.40408968925476
D4:22:CD:00:05:6E,-31.693260192871094,-41.79732131958008,167.91412353515625,-3.508267879486084,4.751829147338867,8.091354370117188,493.40408968925476
D4:22:CD:00:05:5E,155.4765625,-76.95356750488281,20.295703887939453,-3.2867870330810547,-8.91845703125,9.598344802856445,493.40408968925476
D4:22:CD:00:05:5D,-172.66136169433594,-63.56635284423828,-107.18766021728516,-0.810504674911499,2.0039000511169434,1.0280275344848633,493.434095621109
D4:22:CD:00:05:6B,-74.0391616821289,-36.58845138549805,-103.99848175048828,0.006730332970619202,-0.34205037355422974,20.403228759765625,493.434095621109
D4:22:CD:00:49:AA,143.00035095214844,-72.16497039794922,134.13076782226562,-5.32569694519043,1.0427870750427246,8.726844787597656,493.434095621109
D4:22:CD:00:05:6E,-16.7392520904541,-40.740535736083984,165.8173065185547,-17.979000091552734,1.4103481769561768,-0.5251340866088867,493.434095621109
D4:22:CD:00:05:5E,134.3158721923828,-64.8994140625,40.15984344482422,-0.630974292755127,-3.5814828872680664,11.048627853393555,493.434095621109
D4:22:CD:00:05:5D,-174.3082275390625,-60.99800109863281,-106.63002014160156,0.46213436126708984,2.9194016456604004,2.2147436141967773,493.4636130332947
D4:22:CD:00:05:6B,-74.06707763671875,-21.834123611450195,-102.30398559570312,4.131230354309082,-1.7169692516326904,23.04977798461914,493.4636130332947
D4:22:CD:00:49:AA,154.596923828125,-75.41654205322266,122.54869079589844,0.5979547500610352,2.6073341369628906,12.111495971679688,493.4636130332947
D4:22:CD:00:05:6E,-11.06081485748291,-51.91503143310547,165.1529998779297,-14.614982604980469,4.133976936340332,2.1405324935913086,493.4636130332947
D4:22:CD:00:05:5E,134.190185546875,-55.099647521972656,42.95954132080078,6.004213333129883,9.005411148071289,14.670387268066406,493.4636130332947
D4:22:CD:00:05:5D,-175.5281524658203,-60.199737548828125,-105.9120101928711,0.8263477087020874,2.6976451873779297,1.864436149597168,493.494202375412
D4:22:CD:00:05:6B,-69.35350036621094,-4.1486334800720215,-99.57125854492188,4.9644269943237305,-8.39808464050293,19.301326751708984,493.494202375412
D4:22:CD:00:49:AA,159.93861389160156,-77.0897445678711,116.1912612915039,1.332118272781372,-0.3996456265449524,5.432065963745117,493.494202375412
D4:22:CD:00:05:6E,-17.55728530883789,-63.11193084716797,173.31256103515625,-8.138933181762695,2.679314613342285,5.373055458068848,493.494202375412
D4:22:CD:00:05:5E,143.9191436767578,-63.0046501159668,42.45225524902344,11.993095397949219,12.275114059448242,4.618980407714844,493.494202375412
D4:22:CD:00:05:5D,-176.1875762939453,-60.970970153808594,-104.69804382324219,0.38848406076431274,1.0577600002288818,0.771662712097168,493.52420258522034
D4:22:CD:00:05:6B,-59.276405334472656,14.21606159210205,-95.03823852539062,4.288809776306152,-13.02859878540039,12.834163665771484,493.52420258522034
D4:22:CD:00:49:AA,163.2530975341797,-78.17272186279297,112.3524169921875,-1.5901386737823486,-1.071061611175537,3.170201301574707,493.52420258522034
D4:22:CD:00:05:6E,-33.769287109375,-69.83949279785156,-166.07388305664062,-7.234011650085449,-0.1561276912689209,5.120123863220215,493.52420258522034
D4:22:CD:00:05:5E,158.95101928710938,-70.85197448730469,28.02778434753418,1.2255606651306152,-5.402224540710449,1.5378103256225586,493.52420258522034
D4:22:CD:00:05:5D,-175.61300659179688,-62.5991096496582,-103.833251953125,-0.3392101526260376,0.5263674259185791,0.25144386291503906,493.5542447566986
D4:22:CD:00:05:6B,-43.825016021728516,29.24671745300293,-88.2254409790039,0.40749502182006836,-14.292686462402344,1.973383903503418,493.5542447566986
D4:22:CD:00:49:AA,167.1360321044922,-80.10520935058594,109.4512939453125,0.5140359401702881,0.2862944006919861,0.8779964447021484,493.5542447566986
D4:22:CD:00:05:6E,-55.35044479370117,-70.48628997802734,-138.60838317871094,-6.358184814453125,-4.448128700256348,3.083664894104004,493.5542447566986
D4:22:CD:00:05:5E,168.22601318359375,-76.74501037597656,19.729581832885742,4.150030136108398,10.22555160522461,-2.443556308746338,493.5542447566986
D4:22:CD:00:05:5D,-173.8546600341797,-64.82766723632812,-104.39849090576172,-1.1440129280090332,1.1305949687957764,0.4892444610595703,493.5842430591583
D4:22:CD:00:05:6B,-26.76620101928711,39.01089859008789,-80.77694702148438,-4.313983917236328,-9.042118072509766,-3.568300724029541,493.5842430591583
D4:22:CD:00:49:AA,174.7489776611328,-82.31185913085938,103.45765686035156,2.10245943069458,0.8593685626983643,-0.4245290756225586,493.5842430591583
D4:22:CD:00:05:6E,-67.77519226074219,-66.06573486328125,-120.50691223144531,-5.380597114562988,-6.654191017150879,1.0018463134765625,493.5842430591583
D4:22:CD:00:05:5E,-155.93870544433594,-85.5577621459961,-9.57498836517334,-1.2189970016479492,6.195962905883789,-2.749129295349121,493.5842430591583
D4:22:CD:00:05:5D,-171.7874755859375,-67.571044921875,-106.13984680175781,-0.8870983123779297,1.283982276916504,0.27637672424316406,493.64426732063293
D4:22:CD:00:05:6B,-13.748495101928711,44.424007415771484,-74.46810913085938,-5.942885398864746,-1.818347454071045,-5.579256057739258,493.64426732063293
D4:22:CD:00:49:AA,-171.80764770507812,-84.12377166748047,90.80110931396484,2.1805858612060547,1.0531527996063232,-1.9769206047058105,493.64426732063293
D4:22:CD:00:05:6E,-69.02867889404297,-60.18751907348633,-111.23606872558594,-4.457038879394531,-7.577716827392578,-0.3912382125854492,493.64426732063293
D4:22:CD:00:05:5E,-35.40309143066406,-82.58802032470703,-126.25225067138672,-3.13388729095459,3.016286849975586,-2.8177742958068848,493.64426732063293
D4:22:CD:00:05:5D,-169.74891662597656,-70.5411148071289,-108.7919692993164,-0.504327654838562,0.6724354028701782,-0.09917545318603516,493.673796415329
D4:22:CD:00:05:6B,-8.384554862976074,47.915443420410156,-70.66556549072266,-5.058228492736816,-0.7935295104980469,-5.996097564697266,493.673796415329
D4:22:CD:00:49:AA,-150.4689483642578,-84.96884155273438,69.35358428955078,-1.0897324085235596,0.8082699775695801,-3.3456130027770996,493.673796415329
D4:22:CD:00:05:6E,-63.042606353759766,-55.18326187133789,-105.99362182617188,-2.403273582458496,-7.94362735748291,-3.0910797119140625,493.673796415329
D4:22:CD:00:05:5E,-19.03409194946289,-71.9195327758789,-141.29295349121094,-5.280424118041992,-0.7669615745544434,-2.7334542274475098,493.673796415329
D4:22:CD:00:05:5D,-168.0177001953125,-73.45283508300781,-111.57451629638672,0.9264017343521118,-0.7635769844055176,-0.38703155517578125,493.7037980556488
D4:22:CD:00:05:6B,-7.822988033294678,51.03672409057617,-70.84587860107422,-7.354135513305664,0.08746194839477539,-9.01681900024414,493.7037980556488
D4:22:CD:00:49:AA,-126.4619369506836,-84.69988250732422,45.63100814819336,-2.2901196479797363,0.43485963344573975,-4.1430559158325195,493.7037980556488
D4:22:CD:00:05:6E,-52.84451675415039,-51.89015579223633,-102.94193267822266,-0.8592227697372437,-7.937441825866699,-5.325803756713867,493.7037980556488
D4:22:CD:00:05:5E,-16.851709365844727,-60.965457916259766,-146.5259552001953,-8.537467956542969,-2.164065361022949,-2.119626522064209,493.7037980556488
D4:22:CD:00:05:5D,-167.0382537841797,-76.10369873046875,-113.3199462890625,1.1944217681884766,-1.1297674179077148,-0.5030918121337891,493.7339427471161
D4:22:CD:00:05:6B,-7.012979507446289,53.792945861816406,-76.84761047363281,-7.564983367919922,-0.3271443843841553,-10.19080924987793,493.7339427471161
D4:22:CD:00:49:AA,-112.95686340332031,-83.8028335571289,32.9488410949707,-1.38677978515625,0.06542012095451355,-5.427901268005371,493.7339427471161
D4:22:CD:00:05:6E,-41.11272430419922,-49.99927520751953,-101.47456359863281,0.2876212000846863,-8.78358268737793,-6.797462463378906,493.7339427471161
D4:22:CD:00:05:5E,-18.04911994934082,-50.59494400024414,-150.30897521972656,-10.8721923828125,-6.031163215637207,-4.800407409667969,493.7339427471161
D4:22:CD:00:05:5D,-168.04721069335938,-78.16223907470703,-112.5737075805664,0.5011975765228271,-1.8726279735565186,-1.133284568786621,493.7644543647766
D4:22:CD:00:05:6B,-7.2458600997924805,55.981571197509766,-89.79589080810547,1.0901641845703125,2.412296772003174,-10.032793045043945,493.7644543647766
D4:22:CD:00:49:AA,-107.73108673095703,-83.04957580566406,28.465078353881836,-0.9599974155426025,-0.7759044170379639,-5.970649719238281,493.7644543647766
D4:22:CD:00:05:6E,-31.151229858398438,-48.757728576660156,-100.80803680419922,2.1920223236083984,-8.843793869018555,-8.230894088745117,493.7644543647766
D4:22:CD:00:05:5E,-22.750577926635742,-42.3772087097168,-153.5718231201172,-13.49334716796875,-12.528112411499023,-9.570648193359375,493.7644543647766
D4:22:CD:00:05:5D,-172.8798828125,-78.97991943359375,-108.40425872802734,-0.8286304473876953,-2.591263771057129,-1.6043376922607422,493.7944540977478
D4:22:CD:00:05:6B,-15.760034561157227,55.593658447265625,-110.30554962158203,3.0414562225341797,-0.2654672861099243,-13.276052474975586,493.7944540977478
D4:22:CD:00:49:AA,-108.609619140625,-82.72516632080078,28.91274070739746,-0.09827372431755066,-1.2880642414093018,-4.985608100891113,493.7944540977478
D4:22:CD:00:05:6E,-24.778417587280273,-47.720252990722656,-100.1063003540039,3.4825563430786133,-7.8438825607299805,-8.660760879516602,493.7944540977478
D4:22:CD:00:05:5E,-31.048049926757812,-38.00648498535156,-156.40415954589844,-16.471588134765625,-9.298408508300781,-18.64423370361328,493.7944540977478
D4:22:CD:00:05:5D,178.95423889160156,-78.1245346069336,-100.4428482055664,0.5622128248214722,-2.3835577964782715,-1.272313117980957,493.8244516849518
D4:22:CD:00:05:6B,-29.587594985961914,51.64016342163086,-135.53604125976562,-2.9981541633605957,-5.535552024841309,-22.338714599609375,493.8244516849518
D4:22:CD:00:49:AA,-116.39871978759766,-82.68659973144531,34.53023147583008,1.3473436832427979,-2.72222900390625,-3.7896671295166016,493.8244516849518
D4:22:CD:00:05:6E,-21.158771514892578,-46.835670471191406,-98.87468719482422,4.240386962890625,-6.110198020935059,-8.289255142211914,493.8244516849518
D4:22:CD:00:05:5E,-40.01000213623047,-38.278263092041016,-157.63638305664062,-13.71030044555664,-2.2602601051330566,-19.728595733642578,493.8244516849518
D4:22:CD:00:05:5D,171.07632446289062,-75.7002182006836,-92.40278625488281,0.8589166402816772,-2.458080291748047,0.469757080078125,493.8539831638336
D4:22:CD:00:05:6B,-49.79696273803711,43.008766174316406,-153.6464385986328,-3.8176722526550293,5.082343101501465,-31.496116638183594,493.8539831638336
D4:22:CD:00:49:AA,-124.63894653320312,-82.73552703857422,39.95745849609375,0.06285877525806427,-3.49611234664917,-1.9694581031799316,493.8539831638336
D4:22:CD:00:05:6E,-18.665302276611328,-45.217010498046875,-96.95126342773438,4.550025939941406,-5.310981750488281,-8.34345817565918,493.8539831638336
D4:22:CD:00:05:5E,-47.54214859008789,-42.15438461303711,-155.52488708496094,-10.622417449951172,-3.4998960494995117,-19.579204559326172,493.8539831638336
D4:22:CD:00:05:5D,165.5651397705078,-72.73055267333984,-86.7035903930664,-0.6296082735061646,2.5578513145446777,-1.2701520919799805,493.88399291038513
D4:22:CD:00:05:6B,-69.29237365722656,40.0147590637207,-154.60804748535156,-9.055532455444336,0.5651893615722656,4.800860404968262,493.88399291038513
D4:22:CD:00:49:AA,-127.86656951904297,-82.3770751953125,42.13621520996094,-7.345168113708496,-1.4485852718353271,2.0197582244873047,493.88399291038513
D4:22:CD:00:05:6E,-17.586040496826172,-43.79078674316406,-94.08101654052734,5.2210693359375,-6.554401397705078,-8.662670135498047,493.88399291038513
D4:22:CD:00:05:5E,-58.79704284667969,-46.498680114746094,-148.44107055664062,-7.064048767089844,-12.986824035644531,-3.8647327423095703,493.88399291038513
D4:22:CD:00:05:5D,161.28054809570312,-71.05142974853516,-81.7823257446289,-1.6717629432678223,3.229341983795166,3.464900016784668,493.9440565109253
D4:22:CD:00:05:6B,-59.81279373168945,44.7164306640625,-147.79373168945312,-10.808927536010742,8.056386947631836,-0.9508991241455078,493.9440565109253
D4:22:CD:00:49:AA,-123.1170883178711,-82.21419525146484,37.86328887939453,-6.899806022644043,0.25611811876296997,5.542332649230957,493.9440565109253
D4:22:CD:00:05:6E,-20.24319076538086,-44.39765548706055,-90.24856567382812,7.677590370178223,-11.865915298461914,-5.835679054260254,493.9440565109253
D4:22:CD:00:05:5E,-62.08989715576172,-50.23579406738281,-143.94459533691406,-3.227327823638916,-14.837320327758789,-5.099188804626465,493.9440565109253
D4:22:CD:00:05:5D,155.27394104003906,-70.83148956298828,-75.93772888183594,0.11677277088165283,3.0394649505615234,1.8059406280517578,493.9752662181854
D4:22:CD:00:05:6B,-37.61846923828125,53.380645751953125,-128.0134735107422,-13.741500854492188,-3.8316922187805176,-20.856021881103516,493.9752662181854
D4:22:CD:00:49:AA,-123.96681213378906,-81.84053039550781,38.215118408203125,5.289867401123047,-1.9520788192749023,4.283061981201172,493.9752662181854
D4:22:CD:00:05:6E,-30.679216384887695,-47.388702392578125,-85.53404998779297,8.347734451293945,-14.893424987792969,2.5565357208251953,493.9752662181854
D4:22:CD:00:05:5E,-67.4537353515625,-52.79119873046875,-137.9335479736328,-10.00351333618164,-3.770895004272461,20.509296417236328,493.9752662181854
D4:22:CD:00:05:5D,146.82545471191406,-71.79219055175781,-68.16211700439453,-0.3061385154724121,2.5092697143554688,1.9602231979370117,494.00443172454834
D4:22:CD:00:05:6B,-9.98282241821289,54.76831817626953,-95.25119018554688,-9.636259078979492,-0.9799718856811523,-11.260936737060547,494.00443172454834
D4:22:CD:00:49:AA,-129.87094116210938,-80.6949462890625,42.40526580810547,5.1870222091674805,-0.6893250942230225,4.500718116760254,494.00443172454834
D4:22:CD:00:05:6E,-49.6897087097168,-51.87263870239258,-79.83780670166016,5.909791946411133,-10.451255798339844,2.2551345825195312,494.00443172454834
D4:22:CD:00:05:5E,-77.73155975341797,-55.808624267578125,-132.14199829101562,-5.503639221191406,6.3455657958984375,1.417943000793457,494.00443172454834
D4:22:CD:00:05:5D,134.63677978515625,-73.9555435180664,-57.12926483154297,0.23901671171188354,2.663961410522461,2.7932968139648438,494.0344388484955
D4:22:CD:00:05:6B,8.203856468200684,44.23455810546875,-69.28021240234375,-4.999521255493164,1.8771705627441406,-4.601837158203125,494.0344388484955
D4:22:CD:00:49:AA,-133.39527893066406,-79.39696502685547,44.18568420410156,3.5492849349975586,2.842895984649658,0.0039520263671875,494.0344388484955
D4:22:CD:00:05:6E,-72.42034149169922,-56.44017791748047,-73.68289184570312,-0.06983238458633423,0.5712577104568481,3.678317070007324,494.0344388484955
D4:22:CD:00:05:5E,-77.62996673583984,-58.39621353149414,-132.52313232421875,-9.243122100830078,-8.092870712280273,-0.7629337310791016,494.0344388484955
D4:22:CD:00:05:5D,114.83834838867188,-76.87642669677734,-39.49679183959961,4.866669654846191,2.0662155151367188,4.227231979370117,494.06409788131714
D4:22:CD:00:05:6B,14.734268188476562,28.816383361816406,-52.97956466674805,-2.3918752670288086,-3.822409152984619,-3.031332015991211,494.06409788131714
D4:22:CD:00:49:AA,-138.02146911621094,-78.15300750732422,47.2563591003418,5.962238311767578,0.638096809387207,-1.8045072555541992,494.06409788131714
D4:22:CD:00:05:6E,-84.98715209960938,-60.062278747558594,-70.14989471435547,2.646912097930908,8.936382293701172,7.418743133544922,494.06409788131714
D4:22:CD:00:05:5E,-76.6666259765625,-60.402442932128906,-134.0773468017578,-6.347121238708496,-2.858234405517578,-2.358944892883301,494.06409788131714
D4:22:CD:00:05:5D,80.4339599609375,-80.22356414794922,-15.101359367370605,7.0758771896362305,15.090095520019531,-3.037813186645508,494.09417271614075
D4:22:CD:00:05:6B,16.60724639892578,13.842567443847656,-39.818180084228516,7.82655143737793,-1.9550354480743408,1.6498737335205078,494.09417271614075
D4:22:CD:00:49:AA,-143.79493713378906,-76.89923858642578,51.453556060791016,3.5770187377929688,-1.5477440357208252,2.642592430114746,494.09417271614075
D4:22:CD:00:05:6E,-84.33781433105469,-59.759639739990234,-73.0091552734375,-2.314110279083252,3.681344985961914,2.7510499954223633,494.09417271614075
D4:22:CD:00:05:5E,-77.29800415039062,-61.748497009277344,-135.5688018798828,-5.623409271240234,-2.4340696334838867,-1.8506522178649902,494.09417271614075
D4:22:CD:00:05:5D,90.80229949951172,-83.5992660522461,-44.569889068603516,26.03491973876953,19.424869537353516,-1.144632339477539,494.12462091445923
D4:22:CD:00:05:6B,7.80958890914917,0.9251670837402344,-29.17521095275879,8.347675323486328,15.404119491577148,0.3874378204345703,494.12462091445923
D4:22:CD:00:49:AA,-144.18992614746094,-77.04751586914062,50.98873519897461,2.9414830207824707,2.368234634399414,0.3698101043701172,494.12462091445923
D4:22:CD:00:05:6E,-84.51036071777344,-58.43072509765625,-75.15421295166016,-1.883345365524292,-2.169431686401367,3.3493900299072266,494.12462091445923
D4:22:CD:00:05:5E,-75.63754272460938,-62.66025924682617,-138.1370391845703,-5.7916975021362305,-3.1013388633728027,-1.7103071212768555,494.12462091445923
D4:22:CD:00:05:5D,146.364990234375,-75.02713775634766,-107.99302673339844,14.596813201904297,4.742897987365723,9.68873405456543,494.1540985107422
D4:22:CD:00:05:6B,-13.664111137390137,-10.872126579284668,-22.127079010009766,1.8575851917266846,0.4940524697303772,-8.038932800292969,494.1540985107422
D4:22:CD:00:49:AA,-145.5810546875,-76.8884506225586,51.64253234863281,7.6317949295043945,2.2364044189453125,-2.1109018325805664,494.1540985107422
D4:22:CD:00:05:6E,-78.95262145996094,-58.827171325683594,-77.35405731201172,-0.7699105739593506,-5.756407737731934,-0.761897087097168,494.1540985107422
D4:22:CD:00:05:5E,-73.15907287597656,-63.31258773803711,-141.2860870361328,-5.241242408752441,-3.1919093132019043,-2.519360065460205,494.1540985107422
D4:22:CD:00:05:5D,157.1919403076172,-60.10707092285156,-122.14815521240234,3.661489486694336,-0.44178831577301025,3.7730188369750977,494.18655157089233
D4:22:CD:00:05:6B,-32.4782829284668,-21.109413146972656,-18.931121826171875,1.3098187446594238,-5.77237606048584,1.326639175415039,494.18655157089233
D4:22:CD:00:49:AA,-151.36618041992188,-76.42353820800781,56.15153503417969,6.235044479370117,1.071615219116211,-1.1791677474975586,494.18655157089233
D4:22:CD:00:05:6E,-73.93696594238281,-59.76785659790039,-79.6909408569336,-3.554175853729248,-6.9147186279296875,-4.641091346740723,494.18655157089233
D4:22:CD:00:05:5E,-71.6384048461914,-63.7210693359375,-143.16258239746094,-4.288445472717285,-3.658447265625,-2.9151711463928223,494.18655157089233
D4:22:CD:00:05:5D,161.27874755859375,-45.864707946777344,-127.3521957397461,-3.7215771675109863,-4.491883277893066,-4.502645492553711,494.24456095695496
D4:22:CD:00:05:6B,-39.8590202331543,-29.43529510498047,-20.71866226196289,-1.5401403903961182,-9.410329818725586,8.403932571411133,494.24456095695496
D4:22:CD:00:49:AA,-156.89117431640625,-76.84637451171875,60.050376892089844,1.9233520030975342,1.2307522296905518,-0.6463823318481445,494.24456095695496
D4:22:CD:00:05:6E,-70.20629119873047,-60.61415100097656,-81.5016860961914,-3.6479272842407227,-6.614069938659668,-5.584280967712402,494.24456095695496
D4:22:CD:00:05:5E,-71.87396240234375,-63.97477722167969,-142.80911254882812,-4.115467071533203,-3.614851951599121,-2.700070858001709,494.24456095695496
D4:22:CD:00:05:5D,163.3367156982422,-35.13765335083008,-130.32691955566406,-5.3984270095825195,-4.009519577026367,-8.660449981689453,494.2740852832794
D4:22:CD:00:05:6B,-31.60133171081543,-36.53937911987305,-24.645376205444336,-4.731536865234375,-10.475645065307617,7.403810501098633,494.2740852832794
D4:22:CD:00:49:AA,-159.92019653320312,-77.83543395996094,61.520530700683594,0.5780630111694336,0.9001399278640747,-3.904707908630371,494.2740852832794
D4:22:CD:00:05:6E,-66.67025756835938,-61.614322662353516,-82.67495727539062,-2.5131826400756836,-5.122800827026367,-6.590435981750488,494.2740852832794
D4:22:CD:00:05:5E,-74.27943420410156,-64.13397216796875,-139.6429901123047,-3.844721794128418,-4.145323753356934,-2.867682933807373,494.2740852832794
D4:22:CD:00:05:5D,164.3590087890625,-28.81429100036621,-132.40536499023438,-3.422123432159424,-3.915092945098877,-8.861560821533203,494.30416202545166
D4:22:CD:00:05:6B,-17.228294372558594,-45.05281448364258,-32.731895446777344,9.842645645141602,-1.5147571563720703,4.789736747741699,494.30416202545166
D4:22:CD:00:49:AA,-160.69622802734375,-78.75179290771484,61.26956558227539,-0.1347200870513916,-0.1548299789428711,-5.258370399475098,494.30416202545166
D4:22:CD:00:05:6E,-64.1270980834961,-63.06824493408203,-83.35980224609375,-0.5617787837982178,-5.533730506896973,-7.210410118103027,494.30416202545166
D4:22:CD:00:05:5E,-79.9759292602539,-63.89675521850586,-132.8218536376953,-4.1945695877075195,-4.533608436584473,-3.766284465789795,494.30416202545166
D4:22:CD:00:05:5D,164.94515991210938,-26.124614715576172,-132.9881134033203,-6.927827835083008,-4.633943557739258,-7.501535415649414,494.3344464302063
D4:22:CD:00:05:6B,-7.591991901397705,-52.953617095947266,-43.53736877441406,12.027206420898438,-3.7135210037231445,19.241928100585938,494.3344464302063
D4:22:CD:00:49:AA,-158.44549560546875,-79.80069732666016,58.60126876831055,1.319770336151123,-1.0528459548950195,-4.501547813415527,494.3344464302063
D4:22:CD:00:05:6E,-62.45197296142578,-64.90106964111328,-84.65440368652344,0.293346107006073,-5.656526565551758,-6.317971229553223,494.3344464302063
D4:22:CD:00:05:5E,-87.2630386352539,-62.98203659057617,-124.12213134765625,-5.071338653564453,-2.925332546234131,-2.136931896209717,494.3344464302063
D4:22:CD:00:05:5D,165.43309020996094,-27.0142879486084,-131.11428833007812,-11.390779495239258,-7.5434370040893555,-13.9539794921875,494.36396884918213
D4:22:CD:00:05:6B,-3.332476854324341,-55.86598587036133,-50.57599639892578,4.818704605102539,-5.804065704345703,14.792465209960938,494.36396884918213
D4:22:CD:00:49:AA,-154.25372314453125,-80.86451721191406,53.69266891479492,1.7571115493774414,-0.19250565767288208,-3.0033483505249023,494.36396884918213
D4:22:CD:00:05:6E,-60.13465881347656,-67.06568145751953,-87.31118774414062,1.4533801078796387,-4.829550743103027,-5.104973793029785,494.36396884918213
D4:22:CD:00:05:5E,-93.03897094726562,-61.708465576171875,-116.92793273925781,-6.5404253005981445,-2.902097225189209,-2.978734016418457,494.36396884918213
D4:22:CD:00:05:5D,168.66586303710938,-30.466411590576172,-128.8788299560547,-2.569627285003662,-0.5366443395614624,10.808265686035156,494.39397406578064
D4:22:CD:00:05:6B,-5.546051502227783,-54.117088317871094,-46.496864318847656,7.499181747436523,-3.5401649475097656,5.729613304138184,494.39397406578064
D4:22:CD:00:49:AA,-144.7369384765625,-81.66694641113281,43.521453857421875,-0.6123858690261841,3.2516889572143555,-1.045924186706543,494.39397406578064
D4:22:CD:00:05:6E,-53.07460021972656,-69.66879272460938,-93.41722869873047,2.8869872093200684,-2.39870023727417,-2.1162052154541016,494.39397406578064
D4:22:CD:00:05:5E,-99.62715148925781,-60.345848083496094,-110.11256408691406,-5.369147300720215,-1.3098747730255127,-0.40429210662841797,494.39397406578064
D4:22:CD:00:05:5D,171.2646026611328,-31.454681396484375,-127.3961181640625,-12.193368911743164,-13.05990982055664,-10.615350723266602,494.4243381023407
D4:22:CD:00:05:6B,-8.145025253295898,-49.72991180419922,-37.479373931884766,12.94230842590332,-5.308102607727051,0.7181434631347656,494.4243381023407
D4:22:CD:00:49:AA,-140.5176544189453,-80.00810241699219,39.11516189575195,0.6892949342727661,1.5629310607910156,3.2200727462768555,494.4243381023407
D4:22:CD:00:05:6E,-26.48121452331543,-72.71319580078125,-109.52691650390625,1.1520590782165527,0.4803959131240845,4.92408561706543,494.4243381023407
D4:22:CD:00:05:5E,-104.6378173828125,-59.896724700927734,-104.79608154296875,-6.076169967651367,-2.5066561698913574,-0.7188329696655273,494.4243381023407
D4:22:CD:00:05:5D,171.18658447265625,-32.617977142333984,-127.1805419921875,-12.09149169921875,-14.745014190673828,5.728977203369141,494.4544026851654
D4:22:CD:00:05:6B,-12.601728439331055,-45.08826446533203,-30.49599838256836,11.620174407958984,-3.2573447227478027,-1.2439517974853516,494.4544026851654
D4:22:CD:00:49:AA,-145.8086700439453,-78.11922454833984,44.1172981262207,4.908719062805176,-2.4050040245056152,9.32818603515625,494.4544026851654
D4:22:CD:00:05:6E,40.2595329284668,-71.24140930175781,-147.5188751220703,0.6821242570877075,-16.77004623413086,9.282411575317383,494.4544026851654
D4:22:CD:00:05:5E,-108.04183959960938,-60.196861267089844,-100.15595245361328,-7.3630218505859375,-2.995694160461426,-1.6251964569091797,494.4544026851654
D4:22:CD:00:05:5D,169.7401885986328,-30.842092514038086,-126.58661651611328,-11.021141052246094,-13.94856071472168,10.234247207641602,494.48440384864807
D4:22:CD:00:05:6B,-20.873140335083008,-40.94524383544922,-27.593881607055664,7.606287956237793,-2.8699288368225098,-1.7412357330322266,494.48440384864807
D4:22:CD:00:49:AA,-145.48648071289062,-77.94425201416016,43.52683639526367,1.7498152256011963,1.4235105514526367,6.074313163757324,494.48440384864807
D4:22:CD:00:05:6E,89.7912368774414,-60.66303634643555,-170.69468688964844,29.85538101196289,-15.893299102783203,27.29098892211914,494.48440384864807
D4:22:CD:00:05:5E,-109.01522064208984,-60.63956069946289,-98.25252532958984,-7.306179046630859,-2.9611940383911133,-1.2092275619506836,494.48440384864807
D4:22:CD:00:05:5D,167.59677124023438,-26.628154754638672,-126.00886535644531,-10.874937057495117,-16.839622497558594,9.28399658203125,494.54474806785583
D4:22:CD:00:05:6B,-34.07448196411133,-38.559791564941406,-29.19783592224121,6.7050018310546875,-4.0382795333862305,-6.404775619506836,494.54474806785583
D4:22:CD:00:49:AA,-147.62603759765625,-77.94393157958984,45.899662017822266,1.1488735675811768,1.8129396438598633,4.56716251373291,494.54474806785583
D4:22:CD:00:05:6E,99.02002716064453,-45.828792572021484,174.46539306640625,13.956100463867188,-12.663736343383789,28.474491119384766,494.54474806785583
D4:22:CD:00:05:5E,-107.42366790771484,-61.59558868408203,-101.15910339355469,-6.163508415222168,-2.1062841415405273,-0.37381935119628906,494.54474806785583
D4:22:CD:00:05:5D,165.8812255859375,-23.213764190673828,-125.37462615966797,-8.235244750976562,-10.83804702758789,0.33463478088378906,494.5745003223419
D4:22:CD:00:05:6B,-52.77345657348633,-39.52861022949219,-34.346900939941406,2.9375076293945312,-7.828801155090332,-4.634725570678711,494.5745003223419
D4:22:CD:00:49:AA,-152.0129852294922,-77.93595886230469,51.125152587890625,3.292834758758545,1.7676222324371338,3.6915359497070312,494.5745003223419
D4:22:CD:00:05:6E,98.43265533447266,-28.62287712097168,162.97134399414062,3.8349342346191406,-7.015724182128906,20.351646423339844,494.5745003223419
D4:22:CD:00:05:5E,-103.10147094726562,-63.39194107055664,-106.61455535888672,-5.94521427154541,-1.869596004486084,-0.23804759979248047,494.5745003223419
D4:22:CD:00:05:5D,165.60211181640625,-22.525304794311523,-126.19963073730469,-5.181694984436035,-3.4589099884033203,-2.96274995803833,494.6045067310333
D4:22:CD:00:05:6B,-65.67378234863281,-44.09148025512695,-43.162113189697266,-5.047512054443359,-4.571102142333984,7.086292266845703,494.6045067310333
D4:22:CD:00:49:AA,-157.6419219970703,-78.3784408569336,58.25582504272461,2.9610209465026855,2.127145767211914,2.085226058959961,494.6045067310333
D4:22:CD:00:05:6E,90.16259002685547,-10.175755500793457,153.6590576171875,-7.917710304260254,-3.9868693351745605,10.692680358886719,494.6045067310333
D4:22:CD:00:05:5E,-95.09619140625,-65.4586181640625,-115.43496704101562,-6.072107315063477,-2.316016674041748,-1.2645835876464844,494.6045067310333
D4:22:CD:00:05:5D,165.1637420654297,-24.636316299438477,-127.83843994140625,-6.39027214050293,-2.927286148071289,-8.517333984375,494.6346652507782
D4:22:CD:00:05:6B,-68.72720336914062,-51.239471435546875,-54.99883270263672,-2.516976833343506,-2.998353958129883,4.1172590255737305,494.6346652507782
D4:22:CD:00:49:AA,-163.52206420898438,-78.63836669921875,65.77545928955078,0.8433979749679565,1.0547518730163574,-0.8803491592407227,494.6346652507782
D4:22:CD:00:05:6E,78.39295959472656,6.590366363525391,145.023681640625,-13.590133666992188,-2.1091361045837402,-1.6526737213134766,494.6346652507782
D4:22:CD:00:05:5E,-84.3765869140625,-66.63825988769531,-126.7605972290039,-5.738486289978027,-3.966580390930176,-3.035275459289551,494.6346652507782
D4:22:CD:00:05:5D,162.85597229003906,-30.821020126342773,-129.5249481201172,-9.763992309570312,0.4433748126029968,-8.652351379394531,494.6642804145813
D4:22:CD:00:05:6B,-67.23472595214844,-59.49269104003906,-70.4197006225586,-0.21280181407928467,-3.5359764099121094,4.968625068664551,494.6642804145813
D4:22:CD:00:49:AA,-168.2324981689453,-78.60692596435547,72.13406372070312,0.5605034828186035,0.7909724712371826,-4.4216108322143555,494.6642804145813
D4:22:CD:00:05:6E,64.21089935302734,19.28324317932129,136.5064239501953,-10.84670639038086,-5.083189964294434,-10.000905990600586,494.6642804145813
D4:22:CD:00:05:5E,-74.38136291503906,-66.59356689453125,-137.5152587890625,-4.811971664428711,-5.000383377075195,-3.727667808532715,494.6642804145813
D4:22:CD:00:05:5D,158.48825073242188,-40.679725646972656,-130.34628295898438,-10.354854583740234,-2.1591367721557617,-9.404586791992188,494.69440388679504
D4:22:CD:00:05:6B,-62.526065826416016,-66.45484161376953,-91.08968353271484,-3.4708967208862305,-3.5447821617126465,1.9150657653808594,494.69440388679504
D4:22:CD:00:49:AA,-172.9193878173828,-78.44988250732422,77.98146057128906,2.900956630706787,0.7239106893539429,-5.427814483642578,494.69440388679504
D4:22:CD:00:05:6E,51.47053146362305,27.321699142456055,129.45457458496094,4.621487617492676,-1.4342894554138184,-12.995712280273438,494.69440388679504
D4:22:CD:00:05:5E,-66.81956481933594,-65.7629165649414,-145.9212188720703,-3.5832886695861816,-3.108823299407959,-2.8639278411865234,494.69440388679504
D4:22:CD:00:05:5D,154.2570037841797,-53.92582702636719,-128.9462890625,-9.057897567749023,-4.027112007141113,-3.8526339530944824,494.72454714775085
D4:22:CD:00:05:6B,-55.89981460571289,-70.58415222167969,-114.58988189697266,-5.35599422454834,3.327788829803467,-0.322509765625,494.72454714775085
D4:22:CD:00:49:AA,-176.9679718017578,-78.69136047363281,82.06753540039062,3.9109487533569336,-0.056651584804058075,-5.282077789306641,494.72454714775085
D4:22:CD:00:05:6E,44.65970230102539,31.346174240112305,127.52778625488281,7.024306297302246,-1.8809406757354736,-7.235569000244141,494.72454714775085
D4:22:CD:00:05:5E,-61.89911651611328,-64.6847915649414,-151.36886596679688,-4.118746757507324,-3.7135353088378906,-2.7498183250427246,494.72454714775085
D4:22:CD:00:05:5D,149.43466186523438,-69.93910217285156,-123.2255630493164,-2.430636405944824,-6.2784576416015625,7.243196487426758,494.7550585269928
D4:22:CD:00:05:6B,-45.46104431152344,-72.34964752197266,-137.084716796875,-1.8706936836242676,6.441607475280762,-2.1797194480895996,494.7550585269928
D4:22:CD:00:49:AA,-179.47283935546875,-79.0584945678711,84.21046447753906,3.49969482421875,-0.6040686368942261,-4.942622184753418,494.7550585269928
D4:22:CD:00:05:6E,39.51408004760742,32.778507232666016,133.50355529785156,-0.729761004447937,-4.7367448806762695,-10.661569595336914,494.7550585269928
D4:22:CD:00:05:5E,-60.58234405517578,-63.70867156982422,-153.4860382080078,-3.3485617637634277,-5.263129234313965,-3.8220272064208984,494.7550585269928
D4:22:CD:00:05:5D,115.23914337158203,-86.00968170166016,-82.6022720336914,5.040386199951172,-6.566606521606445,19.901412963867188,494.78405594825745
D4:22:CD:00:05:6B,-31.244361877441406,-72.77177429199219,-156.68238830566406,0.3385028839111328,6.117134094238281,-1.7843036651611328,494.78405594825745
D4:22:CD:00:49:AA,179.6907958984375,-79.1893539428711,85.49678802490234,2.425077438354492,-0.5586062669754028,-1.5432863235473633,494.78405594825745
D4:22:CD:00:05:6E,33.624385833740234,33.170738220214844,147.3496856689453,-8.539047241210938,-2.1325488090515137,-16.728145599365234,494.78405594825745
D4:22:CD:00:05:5E,-61.43128204345703,-62.79645919799805,-152.63265991210938,-4.0938568115234375,-4.715959548950195,-2.89420747756958,494.78405594825745
D4:22:CD:00:05:5D,4.494912147521973,-78.67118072509766,40.1502799987793,19.270870208740234,8.926248550415039,2.6439523696899414,494.84424209594727
D4:22:CD:00:05:6B,-14.014595031738281,-72.57664489746094,-174.20687866210938,-1.7515032291412354,5.598968505859375,-0.26981067657470703,494.84424209594727
D4:22:CD:00:49:AA,-175.65684509277344,-79.53976440429688,83.0125961303711,0.6602466106414795,-2.205387592315674,0.35643577575683594,494.84424209594727
D4:22:CD:00:05:6E,28.2003173828125,34.91205978393555,166.06167602539062,-25.539554595947266,-4.607666969299316,-22.978500366210938,494.84424209594727
D4:22:CD:00:05:5E,-63.65708541870117,-62.028263092041016,-150.3989715576172,-5.574175834655762,-2.886284828186035,-1.8553895950317383,494.84424209594727
D4:22:CD:00:05:5D,5.941496849060059,-74.42462921142578,42.39817810058594,14.128952026367188,12.666847229003906,-18.13452911376953,494.87415647506714
D4:22:CD:00:05:6B,4.227537155151367,-71.99209594726562,169.44749450683594,-2.07442569732666,6.045783042907715,-0.8512725830078125,494.87415647506714
D4:22:CD:00:49:AA,-169.8590545654297,-78.81340026855469,78.82264709472656,8.015235900878906,-1.9318015575408936,0.25000476837158203,494.87415647506714
D4:22:CD:00:05:6E,18.62063980102539,39.43185043334961,178.6417999267578,-0.22611191868782043,-1.2361116409301758,-19.617183685302734,494.87415647506714
D4:22:CD:00:05:5E,-65.32398223876953,-60.63570022583008,-148.64422607421875,-5.66677188873291,-3.745037078857422,-2.282081127166748,494.87415647506714
D4:22:CD:00:05:5D,19.246318817138672,-77.11510467529297,33.894840240478516,9.877166748046875,7.798440933227539,-7.587553024291992,494.90421533584595
D4:22:CD:00:05:6B,18.191736221313477,-71.22970581054688,157.2355499267578,-1.5612266063690186,4.836114883422852,-2.174854278564453,494.90421533584595
D4:22:CD:00:49:AA,-172.09326171875,-78.78428649902344,79.49628448486328,5.797457695007324,0.1140260249376297,0.7542695999145508,494.90421533584595
D4:22:CD:00:05:6E,14.350773811340332,40.15873718261719,175.34059143066406,2.5490455627441406,11.3291015625,-2.1309008598327637,494.90421533584595
D4:22:CD:00:05:5E,-65.3655014038086,-58.537872314453125,-147.67135620117188,-5.732491493225098,-3.88057279586792,-2.282113552093506,494.90421533584595
D4:22:CD:00:05:5D,55.65753936767578,-79.97956085205078,5.291202545166016,7.604901313781738,8.019065856933594,-3.5172324180603027,494.93422532081604
D4:22:CD:00:05:6B,23.859220504760742,-71.44218444824219,152.25233459472656,-0.34893298149108887,3.9078269004821777,-0.6204509735107422,494.93422532081604
D4:22:CD:00:49:AA,-171.1585235595703,-79.3504638671875,78.78126525878906,-0.46811163425445557,0.6515692472457886,-0.9950599670410156,494.93422532081604
D4:22:CD:00:05:6E,25.32720947265625,40.801658630371094,168.54965209960938,2.4567246437072754,-0.12746626138687134,-12.348848342895508,494.93422532081604
D4:22:CD:00:05:5E,-65.4176025390625,-56.07341384887695,-146.9359588623047,-5.240314483642578,-3.400827407836914,-1.9452142715454102,494.93422532081604
D4:22:CD:00:05:5D,102.0835189819336,-79.96246337890625,-34.30263137817383,-0.3406645655632019,-1.4384589195251465,1.5646800994873047,494.96476578712463
D4:22:CD:00:05:6B,24.675987243652344,-72.71472930908203,153.19891357421875,1.0035645961761475,5.155413627624512,-1.2787370681762695,494.96476578712463
D4:22:CD:00:49:AA,-168.184814453125,-79.68218231201172,77.9405746459961,0.50135338306427,-0.9413007497787476,-2.3371682167053223,494.96476578712463
D4:22:CD:00:05:6E,30.533470153808594,40.73706817626953,159.43707275390625,-3.2861766815185547,-11.561166763305664,-8.620817184448242,494.96476578712463
D4:22:CD:00:05:5E,-65.21595001220703,-53.31229782104492,-146.00375366210938,-4.423954963684082,-3.593428611755371,-0.7918415069580078,494.96476578712463
D4:22:CD:00:05:5D,129.44422912597656,-78.33151245117188,-63.61909484863281,9.022680282592773,-2.1558923721313477,0.14233684539794922,494.99413990974426
D4:22:CD:00:05:6B,25.5163631439209,-74.52621459960938,158.0453643798828,0.8513798713684082,5.720165252685547,-1.2429189682006836,494.99413990974426
D4:22:CD:00:49:AA,-167.17861938476562,-79.46320343017578,79.09321594238281,3.036317825317383,-2.055622100830078,-1.5729284286499023,494.99413990974426
D4:22:CD:00:05:6E,25.847328186035156,38.88262939453125,145.26217651367188,-12.216642379760742,-2.857914924621582,-10.805744171142578,494.99413990974426
D4:22:CD:00:05:5E,-64.21702575683594,-50.26072692871094,-144.91407775878906,-5.47525691986084,-5.233124732971191,1.0122194290161133,494.99413990974426
D4:22:CD:00:05:5D,149.181396484375,-74.56724548339844,-81.65953826904297,-3.8657755851745605,-4.501117706298828,6.0185136795043945,495.02522015571594
D4:22:CD:00:05:6B,24.95564079284668,-76.67384338378906,167.56329345703125,-1.2247345447540283,2.8121705055236816,1.6615638732910156,495.02522015571594
D4:22:CD:00:49:AA,-169.1134490966797,-78.75878143310547,83.24747467041016,0.5006697177886963,-1.3168671131134033,0.4817543029785156,495.02522015571594
D4:22:CD:00:05:6E,23.93198013305664,35.97138595581055,128.46351623535156,-8.764562606811523,-0.12645360827445984,-10.533527374267578,495.02522015571594
D4:22:CD:00:05:5E,-61.1032829284668,-47.146141052246094,-144.28526306152344,-6.128801345825195,-7.846753120422363,2.349170684814453,495.02522015571594
D4:22:CD:00:05:5D,160.2193603515625,-69.48509216308594,-85.98091888427734,-2.1845860481262207,3.6980204582214355,-1.8662424087524414,495.05691838264465
D4:22:CD:00:05:6B,22.353946685791016,-78.81657409667969,179.0997772216797,-2.466188907623291,-3.3080625534057617,3.8964357376098633,495.05691838264465
D4:22:CD:00:49:AA,-173.7470245361328,-77.53196716308594,90.87544250488281,-5.202342987060547,1.3366918563842773,4.210395812988281,495.05691838264465
D4:22:CD:00:05:6E,25.574373245239258,31.77203941345215,112.78659057617188,-4.826910018920898,-6.082271575927734,-6.472323417663574,495.05691838264465
D4:22:CD:00:05:5E,-56.6577262878418,-44.02375411987305,-144.8394012451172,-7.713190078735352,-8.271099090576172,-4.167017936706543,495.05691838264465
D4:22:CD:00:05:5D,168.57032775878906,-65.97468566894531,-89.30126953125,-1.9469144344329834,0.18881568312644958,2.5870046615600586,495.0842275619507
D4:22:CD:00:05:6B,21.864398956298828,-80.81861877441406,-174.09991455078125,-1.8824291229248047,-3.906932830810547,3.051863670349121,495.0842275619507
D4:22:CD:00:49:AA,-176.54348754882812,-76.03423309326172,97.91988372802734,-4.53816032409668,-0.18600702285766602,1.2041845321655273,495.0842275619507
D4:22:CD:00:05:6E,24.306852340698242,25.137670516967773,99.52786254882812,-2.9100794792175293,-5.473959922790527,-4.975027084350586,495.0842275619507
D4:22:CD:00:05:5E,-55.11959457397461,-43.32453918457031,-141.0389404296875,-27.892078399658203,1.3110783100128174,-18.645904541015625,495.0842275619507
D4:22:CD:00:05:5D,174.3723602294922,-63.58391189575195,-93.71664428710938,-1.943265676498413,-0.10472139716148376,0.9399900436401367,495.1442449092865
D4:22:CD:00:05:6B,27.780216217041016,-82.2445068359375,-175.3620147705078,-2.151453971862793,-4.335089683532715,1.090275764465332,495.1442449092865
D4:22:CD:00:49:AA,-175.93101501464844,-74.56464385986328,101.07908630371094,0.8138593435287476,1.6708588600158691,2.408353805541992,495.1442449092865
D4:22:CD:00:05:6E,28.33267593383789,15.949397087097168,88.57486724853516,18.326580047607422,-3.6460189819335938,-6.164612770080566,495.1442449092865
D4:22:CD:00:05:5E,-60.33977127075195,-45.91203308105469,-130.72695922851562,-25.028671264648438,-5.968497276306152,-13.633150100708008,495.1442449092865
D4:22:CD:00:05:5D,179.8672637939453,-61.941871643066406,-97.95293426513672,-0.5974009037017822,0.752094030380249,1.2668590545654297,495.17438864707947
D4:22:CD:00:05:6B,38.40977096557617,-82.7842788696289,177.49777221679688,-3.8681979179382324,-6.210465431213379,0.9709911346435547,495.17438864707947
D4:22:CD:00:49:AA,-176.42816162109375,-73.83403015136719,102.3660659790039,1.9544522762298584,1.969695806503296,4.332267761230469,495.17438864707947
D4:22:CD:00:05:6E,51.84537887573242,6.8196492195129395,81.14832305908203,20.830997467041016,-3.983501434326172,-13.263042449951172,495.17438864707947
D4:22:CD:00:05:5E,-66.82325744628906,-50.12287139892578,-116.39806365966797,-14.636690139770508,-9.053138732910156,-7.403532981872559,495.17438864707947
D4:22:CD:00:05:5D,-176.45233154296875,-61.20547103881836,-100.68892669677734,0.3628404140472412,0.38385194540023804,1.216552734375,495.20454931259155
D4:22:CD:00:05:6B,47.869873046875,-83.04241180419922,170.11697387695312,-4.237357139587402,-7.365485191345215,2.0528669357299805,495.20454931259155
D4:22:CD:00:49:AA,179.353759765625,-74.15872192382812,106.85093688964844,-4.766500473022461,1.3258039951324463,2.363062858581543,495.20454931259155
D4:22:CD:00:05:6E,86.0477523803711,-2.463322162628174,80.78052520751953,-4.512494087219238,4.592201232910156,-11.363636016845703,495.20454931259155
D4:22:CD:00:05:5E,-74.88622283935547,-54.104095458984375,-99.8984375,-7.443819999694824,-8.995019912719727,-8.197355270385742,495.20454931259155
D4:22:CD:00:05:5D,-173.8761444091797,-61.30686950683594,-102.20735168457031,-0.7415820360183716,-0.003010272514075041,0.8604660034179688,495.23455286026
D4:22:CD:00:05:6B,56.12736892700195,-83.3168716430664,162.28067016601562,-3.3428421020507812,-5.566673278808594,2.02777099609375,495.23455286026
D4:22:CD:00:49:AA,174.9098663330078,-75.0584716796875,112.2793960571289,-6.159071922302246,0.8441873788833618,2.0271339416503906,495.23455286026
D4:22:CD:00:05:6E,107.62555694580078,-14.220532417297363,82.7207260131836,-8.837549209594727,-6.032692909240723,21.21197509765625,495.23455286026
D4:22:CD:00:05:5E,-88.2784423828125,-57.52116775512695,-81.21390533447266,-1.6590735912322998,-8.22566032409668,-9.029369354248047,495.23455286026
D4:22:CD:00:05:5D,-171.53419494628906,-61.90311813354492,-103.83128356933594,-1.8665578365325928,-0.12781253457069397,0.5267248153686523,495.2642328739166
D4:22:CD:00:05:6B,62.50202178955078,-83.42591857910156,155.775390625,-3.3791632652282715,-2.0574259757995605,0.5084552764892578,495.2642328739166
D4:22:CD:00:49:AA,170.96365356445312,-76.31019592285156,117.33988189697266,-1.9937984943389893,0.602302074432373,-1.0238962173461914,495.2642328739166
D4:22:CD:00:05:6E,107.6656723022461,-26.495594024658203,82.2723388671875,1.2467765808105469,-8.606075286865234,6.6594085693359375,495.2642328739166
D4:22:CD:00:05:5E,-104.1390609741211,-60.44612121582031,-62.326663970947266,1.7226817607879639,-3.984340190887451,-7.128093719482422,495.2642328739166
D4:22:CD:00:05:5D,-168.8881378173828,-62.72291946411133,-106.2584457397461,-1.7730131149291992,-0.3751879334449768,0.12594223022460938,495.2936828136444
D4:22:CD:00:05:6B,63.32270431518555,-83.79767608642578,154.75601196289062,-2.6950793266296387,-0.16010117530822754,-0.7612190246582031,495.2936828136444
D4:22:CD:00:49:AA,163.48590087890625,-77.434326171875,126.38184356689453,1.4053459167480469,0.9159252643585205,-2.4955930709838867,495.2936828136444
D4:22:CD:00:05:6E,112.53807067871094,-39.251304626464844,78.93716430664062,4.612072944641113,-0.11133851110935211,2.6108274459838867,495.2936828136444
D4:22:CD:00:05:5E,-120.46329498291016,-62.98067092895508,-44.8983154296875,2.0856165885925293,-3.986344337463379,-8.164834976196289,495.2936828136444
D4:22:CD:00:05:5D,-165.75711059570312,-63.5261344909668,-109.46564483642578,-2.0546164512634277,-0.8298581838607788,-0.04804420471191406,495.3242349624634
D4:22:CD:00:05:6B,50.860984802246094,-84.70069122314453,166.2525634765625,-1.359102725982666,0.9045580625534058,-2.0572619438171387,495.3242349624634
D4:22:CD:00:49:AA,150.68775939941406,-77.38397979736328,139.86180114746094,1.4267361164093018,1.4044678211212158,-3.438143253326416,495.3242349624634
D4:22:CD:00:05:6E,121.91024780273438,-53.91445541381836,72.3849868774414,6.065539360046387,-3.471463680267334,11.801664352416992,495.3242349624634
D4:22:CD:00:05:5E,-139.2686767578125,-65.20170593261719,-27.24675178527832,-6.806455612182617,-8.402975082397461,-1.9144034385681152,495.3242349624634
D4:22:CD:00:05:5D,-162.38314819335938,-64.33180236816406,-113.69793701171875,-0.6814018487930298,-2.1421523094177246,-0.38092041015625,495.35477924346924
D4:22:CD:00:05:6B,16.37841796875,-85.05430603027344,-161.23956298828125,-2.2221426963806152,1.4142529964447021,-2.7378487586975098,495.35477924346924
D4:22:CD:00:49:AA,137.74302673339844,-76.35908508300781,151.03184509277344,0.09750697016716003,-0.3341239094734192,-4.384533882141113,495.35477924346924
D4:22:CD:00:05:6E,129.53805541992188,-70.7059097290039,56.80953598022461,4.456939697265625,-4.353989601135254,17.925045013427734,495.35477924346924
D4:22:CD:00:05:5E,-159.25296020507812,-68.45999908447266,-10.298615455627441,15.009773254394531,-0.7285588979721069,-2.8412246704101562,495.35477924346924
D4:22:CD:00:05:5D,-160.7979278564453,-65.09282684326172,-117.95496368408203,-1.6268620491027832,-1.9377946853637695,-0.9529733657836914,495.3837866783142
D4:22:CD:00:05:6B,-24.03592872619629,-82.65960693359375,-122.16831970214844,-3.183917999267578,4.19576358795166,-3.0892882347106934,495.3837866783142
D4:22:CD:00:49:AA,130.25311279296875,-74.8763198852539,156.1795654296875,-0.17900726199150085,-0.257135272026062,-6.43424129486084,495.3837866783142
D4:22:CD:00:05:6E,154.25804138183594,-81.40856170654297,16.292613983154297,3.695584774017334,-6.045177459716797,16.859905242919922,495.3837866783142
D4:22:CD:00:05:5E,-167.867919921875,-75.61676788330078,4.181550979614258,-6.021218299865723,13.912445068359375,3.7503576278686523,495.3837866783142
D4:22:CD:00:05:5D,-162.9544677734375,-64.17643737792969,-116.71573638916016,-1.7160985469818115,-1.8877496719360352,0.17923259735107422,495.44434094429016
D4:22:CD:00:05:6B,-45.5122184753418,-76.01295471191406,-101.07298278808594,-0.44108712673187256,4.118173599243164,-0.9002437591552734,495.44434094429016
D4:22:CD:00:49:AA,127.21121978759766,-73.3080062866211,157.18002319335938,-2.015317916870117,-0.6491655111312866,-3.4319682121276855,495.44434094429016
D4:22:CD:00:05:6E,151.25938415527344,-77.21659088134766,7.596472263336182,12.40890884399414,2.8618297576904297,-5.874457359313965,495.44434094429016
D4:22:CD:00:05:5E,-162.3641815185547,-78.98820495605469,3.9878408908843994,7.444422721862793,3.154933452606201,9.819955825805664,495.44434094429016
D4:22:CD:00:05:5D,-166.70022583007812,-61.94841766357422,-112.4059829711914,0.11108772456645966,0.34119778871536255,-4.8052520751953125,495.4748692512512
D4:22:CD:00:05:6B,-56.3370246887207,-65.49695587158203,-92.31079864501953,-1.3756732940673828,2.9480018615722656,2.7236948013305664,495.4748692512512
D4:22:CD:00:49:AA,124.33106994628906,-72.09874725341797,158.81686401367188,-5.519349098205566,-0.42579931020736694,-3.647883415222168,495.4748692512512
D4:22:CD:00:05:6E,151.6757354736328,-73.93035888671875,9.005413055419922,12.351402282714844,3.592491626739502,-3.4043970108032227,495.4748692512512
D4:22:CD:00:05:5E,-172.58963012695312,-81.600341796875,7.493189811706543,6.409897804260254,3.1388440132141113,12.026214599609375,495.4748692512512
D4:22:CD:00:05:5D,-168.77737426757812,-59.57514953613281,-108.33025360107422,1.215076208114624,-3.434932231903076,3.0047454833984375,495.50419068336487
D4:22:CD:00:05:6B,-63.10905838012695,-52.83627700805664,-88.39495086669922,1.5583117008209229,6.187630653381348,7.105777740478516,495.50419068336487
D4:22:CD:00:49:AA,122.93653869628906,-70.30394744873047,159.17111206054688,3.3301758766174316,1.389650821685791,0.5528049468994141,495.50419068336487
D4:22:CD:00:05:6E,155.19825744628906,-76.38032531738281,8.677886962890625,3.0093140602111816,5.329106330871582,-0.2794961929321289,495.50419068336487
D4:22:CD:00:05:5E,174.7616729736328,-84.04773712158203,19.079099655151367,-4.268858909606934,20.281726837158203,14.623620986938477,495.50419068336487
D4:22:CD:00:05:5D,-171.1009979248047,-56.701805114746094,-103.65602111816406,-0.09474724531173706,0.20242786407470703,-3.323568344116211,495.53429222106934
D4:22:CD:00:05:6B,-65.1158447265625,-38.858577728271484,-86.38189697265625,2.2000041007995605,10.753087997436523,13.94135856628418,495.53429222106934
D4:22:CD:00:49:AA,121.94025421142578,-69.6946792602539,159.36691284179688,-0.8729333877563477,0.2157246470451355,4.914942741394043,495.53429222106934
D4:22:CD:00:05:6E,159.42787170410156,-78.3724594116211,4.983572959899902,4.000378608703613,6.8948822021484375,6.6472320556640625,495.53429222106934
D4:22:CD:00:05:5E,-175.5789337158203,-81.71940612792969,9.634976387023926,3.296517848968506,-3.4567484855651855,11.31149673461914,495.53429222106934
