Device,EulerX,EulerY,EulerZ,FreeAccX,FreeAccY,FreeAccZ,Timestamp
D4:22:CD:00:05:5D,-178.86671447753906,-59.50282669067383,-130.52720642089844,-6.885687828063965,0.6185570955276489,0.5363454818725586,2449.5320785045624
D4:22:CD:00:05:6B,-51.09275436401367,-43.85063171386719,-136.274169921875,6.325927734375,-2.459817409515381,-0.6132125854492188,2449.5320785045624
D4:22:CD:00:49:AA,150.8441619873047,-71.02545166015625,141.1588592529297,-0.9503378868103027,1.0734758377075195,-5.03997802734375,2449.5320785045624
D4:22:CD:00:05:6E,119.11553955078125,-67.41606140136719,21.430545806884766,4.283719062805176,-8.362415313720703,4.9073486328125,2449.5320785045624
D4:22:CD:00:05:5E,158.46437072753906,-55.0441780090332,103.53087615966797,6.786558151245117,7.657712936401367,6.933696746826172,2449.5320785045624
D4:22:CD:00:05:6B,-48.4416618347168,-37.58808517456055,-142.78994750976562,-0.35669374465942383,2.272352695465088,5.19896125793457,2449.5356130599976
D4:22:CD:00:49:AA,142.62184143066406,-72.02549743652344,150.0231170654297,-0.9860483407974243,2.097568988800049,2.465001106262207,2449.5356130599976
D4:22:CD:00:05:6E,107.79963684082031,-69.1585693359375,24.82505989074707,8.069446563720703,2.984314441680908,5.794682502746582,2449.5356130599976
D4:22:CD:00:05:5E,164.67445373535156,-53.057003021240234,100.71686553955078,8.938787460327148,8.332712173461914,11.75507926940918,2449.5356130599976
D4:22:CD:00:05:5D,-174.3993682861328,-64.58929443359375,-115.35224914550781,-2.1718597412109375,-0.650277853012085,-0.8781375885009766,2449.5377101898193
D4:22:CD:00:49:AA,136.14276123046875,-72.6330795288086,157.9216766357422,-1.7288765907287598,0.10886824131011963,5.649030685424805,2449.5377101898193
D4:22:CD:00:05:6E,96.43331146240234,-69.84074401855469,31.33762550354004,11.355449676513672,6.521937370300293,10.570659637451172,2449.5377101898193
D4:22:CD:00:05:5E,175.81991577148438,-50.36819076538086,99.09170532226562,3.7814340591430664,14.62138557434082,15.748788833618164,2449.5377101898193
D4:22:CD:00:05:5D,178.69361877441406,-64.764404296875,-108.76406860351562,-4.581162452697754,0.7725239992141724,-0.4756965637207031,2449.5397086143494
D4:22:CD:00:05:6B,-28.287946701049805,-19.210468292236328,-80.3157958984375,5.150661468505859,1.4054572582244873,-3.7341036796569824,2449.5397086143494
D4:22:CD:00:49:AA,133.62100219726562,-72.92855072021484,162.75106811523438,-3.1767687797546387,-2.675159454345703,8.146076202392578,2449.5397086143494
D4:22:CD:00:05:6E,98.34967803955078,-66.99251556396484,32.64988708496094,3.3386125564575195,9.26469612121582,14.504711151123047,2449.5397086143494
D4:22:CD:00:05:5D,162.58644104003906,-62.00007247924805,-91.88432312011719,0.4643070101737976,-0.8891499042510986,-0.5767650604248047,2449.6147084236145
D4:22:CD:00:05:6B,-25.16143226623535,-12.3565034866333,-82.52306365966797,2.909210681915283,1.3290715217590332,-1.1227350234985352,2449.6147084236145
D4:22:CD:00:05:6E,-57.47184753417969,-34.60405731201172,-148.03756713867188,-17.880603790283203,-4.150659561157227,-3.4701433181762695,2449.6147084236145
D4:22:CD:00:05:5E,158.672119140625,-75.97409057617188,-15.470152854919434,-7.231754302978516,-13.19918441772461,16.945995330810547,2449.6147084236145
D4:22:CD:00:05:5D,160.3341064453125,-59.09830856323242,-86.24303436279297,5.537384986877441,2.4028735160827637,-0.011264801025390625,2449.645239830017
D4:22:CD:00:05:6B,-24.523067474365234,2.968728542327881,-81.11206817626953,1.4571552276611328,1.1215705871582031,6.058478355407715,2449.645239830017
D4:22:CD:00:49:AA,28.412466049194336,-86.1080093383789,-106.68113708496094,3.93021821975708,-2.849914073944092,-1.2800884246826172,2449.645239830017
D4:22:CD:00:05:6E,-43.51512145996094,-65.65129089355469,-147.9652099609375,-16.14299774169922,-4.063372611999512,2.7074832916259766,2449.645239830017
D4:22:CD:00:05:5E,114.74613952636719,-65.50675964355469,27.723920822143555,-2.420250415802002,2.9957780838012695,22.204044342041016,2449.645239830017
D4:22:CD:00:05:5D,164.8525390625,-57.1218376159668,-87.77706146240234,3.020658016204834,0.8331626653671265,0.7449283599853516,2449.6752393245697
D4:22:CD:00:05:6B,-19.897233963012695,18.48978614807129,-76.21299743652344,2.162257194519043,0.603935956954956,15.612510681152344,2449.6752393245697
D4:22:CD:00:49:AA,99.15724182128906,-83.6390609741211,-176.44482421875,1.5989725589752197,-3.9250259399414062,4.591862678527832,2449.6752393245697
D4:22:CD:00:05:6E,-47.97092056274414,-85.17696380615234,-126.62273406982422,-11.0770263671875,-11.568775177001953,6.309070587158203,2449.6752393245697
D4:22:CD:00:05:5E,124.95637512207031,-54.9260368347168,18.579744338989258,3.836702346801758,10.145843505859375,18.81296157836914,2449.6752393245697
D4:22:CD:00:05:5D,169.39041137695312,-56.13072204589844,-90.244140625,0.3307790160179138,0.29371345043182373,-0.10370826721191406,2449.7052388191223
D4:22:CD:00:05:6B,-6.822913646697998,31.22848892211914,-66.87083435058594,0.5288453102111816,-7.393342018127441,17.222694396972656,2449.7052388191223
D4:22:CD:00:49:AA,139.6604461669922,-76.7435531616211,146.26507568359375,1.1599559783935547,-4.622724533081055,5.438309669494629,2449.7052388191223
D4:22:CD:00:05:6E,161.86141967773438,-83.4679946899414,33.40348434448242,2.0250725746154785,-8.322893142700195,8.17120361328125,2449.7052388191223
D4:22:CD:00:05:5E,145.12037658691406,-52.73626708984375,1.2306818962097168,4.320964813232422,9.853181838989258,5.736050605773926,2449.7052388191223
D4:22:CD:00:05:5D,173.27487182617188,-55.86173629760742,-92.38679504394531,-1.2023239135742188,1.6116433143615723,1.5394134521484375,2449.735252380371
D4:22:CD:00:05:6B,13.062887191772461,37.86280059814453,-52.018035888671875,-8.222234725952148,-13.046424865722656,13.153316497802734,2449.735252380371
D4:22:CD:00:49:AA,151.9203643798828,-71.03392791748047,135.6729736328125,0.4359320402145386,-1.0399861335754395,-0.44649410247802734,2449.735252380371
D4:22:CD:00:05:6E,160.7738800048828,-81.30719757080078,40.23517990112305,3.2957959175109863,-7.341357231140137,3.9622230529785156,2449.735252380371
D4:22:CD:00:05:5E,160.09507751464844,-52.14067077636719,-10.57367992401123,3.489503860473633,9.052068710327148,-6.062600135803223,2449.735252380371
D4:22:CD:00:05:5D,175.63421630859375,-56.497066497802734,-94.04988861083984,-0.009718567132949829,2.293313980102539,2.503082275390625,2449.7648918628693
D4:22:CD:00:05:6B,33.938941955566406,39.91449737548828,-38.1710319519043,-15.093276977539062,-15.31551742553711,6.374887466430664,2449.7648918628693
D4:22:CD:00:49:AA,158.05873107910156,-67.43075561523438,129.4192657470703,-3.090160846710205,-0.06915177404880524,6.294471740722656,2449.7648918628693
D4:22:CD:00:05:6E,-169.01324462890625,-83.41936492919922,18.392169952392578,6.672486305236816,-10.215991973876953,0.43478870391845703,2449.7648918628693
D4:22:CD:00:05:5E,168.84156799316406,-55.135929107666016,-18.285003662109375,4.391965866088867,7.320773124694824,-11.281341552734375,2449.7648918628693
D4:22:CD:00:05:5D,176.83065795898438,-58.6381721496582,-94.98300170898438,0.9450340270996094,2.0334010124206543,3.196969985961914,2449.794890642166
D4:22:CD:00:05:6B,47.83432388305664,40.3575325012207,-30.747989654541016,-14.625347137451172,-11.256244659423828,-1.6390361785888672,2449.794890642166
D4:22:CD:00:49:AA,166.83509826660156,-66.31168365478516,123.8941421508789,-5.1199140548706055,0.9461284875869751,8.526601791381836,2449.794890642166
D4:22:CD:00:05:6E,-101.15391540527344,-83.1243667602539,-37.83147048950195,10.064445495605469,-9.369699478149414,-4.003887176513672,2449.794890642166
D4:22:CD:00:05:5E,176.9314422607422,-63.15672302246094,-25.855518341064453,7.6579790115356445,4.420829772949219,-13.525917053222656,2449.794890642166
D4:22:CD:00:05:5D,177.0618896484375,-62.885963439941406,-94.20783996582031,-1.2889289855957031,1.6225309371948242,4.047238349914551,2449.854433298111
D4:22:CD:00:05:6B,49.63133239746094,40.773834228515625,-28.718706130981445,-8.411972045898438,-1.9368526935577393,-2.921173572540283,2449.854433298111
D4:22:CD:00:49:AA,177.0074462890625,-67.67489624023438,117.16927337646484,-1.8400814533233643,3.8685622215270996,6.578762054443359,2449.854433298111
D4:22:CD:00:05:6E,-55.9698371887207,-77.99800872802734,-69.73342895507812,8.963956832885742,-8.65794563293457,-8.301908493041992,2449.854433298111
D4:22:CD:00:05:5E,-167.95895385742188,-75.07328796386719,-39.73222351074219,5.165474891662598,-3.1579771041870117,-15.12045669555664,2449.854433298111
D4:22:CD:00:05:5D,175.6572265625,-68.86383819580078,-90.91645050048828,0.8445593118667603,-6.223780632019043,8.609590530395508,2449.885425567627
D4:22:CD:00:05:6B,40.21049118041992,42.91533660888672,-31.858781814575195,3.120164394378662,4.12531852722168,-5.158766746520996,2449.885425567627
D4:22:CD:00:49:AA,-172.75897216796875,-68.71417999267578,110.20268249511719,0.27563613653182983,3.0972628593444824,5.05348014831543,2449.885425567627
D4:22:CD:00:05:6E,-29.948453903198242,-73.48070526123047,-80.3579330444336,6.511008262634277,-5.511625289916992,-12.972066879272461,2449.885425567627
D4:22:CD:00:05:5E,-97.33744812011719,-85.7317123413086,-112.05481719970703,4.581936836242676,-4.017547607421875,-12.837173461914062,2449.885425567627
D4:22:CD:00:05:5D,171.05264282226562,-75.41038513183594,-90.57461547851562,1.242173194885254,0.27459871768951416,-1.4758596420288086,2449.9154336452484
D4:22:CD:00:05:6B,31.23556137084961,48.77717590332031,-42.510536193847656,3.279365062713623,-0.7823349237442017,-9.024883270263672,2449.9154336452484
D4:22:CD:00:49:AA,-162.79759216308594,-68.81163024902344,103.56942749023438,-2.6513137817382812,1.5458953380584717,-0.8737525939941406,2449.9154336452484
D4:22:CD:00:05:6E,-13.078993797302246,-71.07987976074219,-85.30619812011719,10.867366790771484,-2.6396045684814453,-13.995210647583008,2449.9154336452484
D4:22:CD:00:05:5E,-13.681325912475586,-75.21049499511719,160.84274291992188,-0.5291751623153687,-1.0241272449493408,-9.462858200073242,2449.9154336452484
D4:22:CD:00:05:5D,167.67144775390625,-75.70550537109375,-90.07615661621094,7.232381820678711,8.971960067749023,-6.023495674133301,2449.944976091385
D4:22:CD:00:05:6B,23.667648315429688,55.11481857299805,-63.59589767456055,3.5090532302856445,7.45927619934082,-10.90936279296875,2449.944976091385
D4:22:CD:00:49:AA,-153.9267120361328,-67.99728393554688,97.86058807373047,-0.09849779307842255,0.7865532636642456,-5.788996696472168,2449.944976091385
D4:22:CD:00:05:6E,-6.8137407302856445,-71.26492309570312,-90.86058807373047,5.710409164428711,-0.43665486574172974,-14.926546096801758,2449.944976091385
D4:22:CD:00:05:5E,-5.942759990692139,-61.911861419677734,147.94757080078125,-9.335416793823242,7.032286643981934,-12.021049499511719,2449.944976091385
D4:22:CD:00:05:5D,167.43772888183594,-73.00425720214844,-85.60247039794922,3.199709892272949,-3.6743221282958984,-8.154232025146484,2449.9749834537506
D4:22:CD:00:05:6B,6.618636131286621,55.44087600708008,-92.7993392944336,4.853883743286133,4.188329696655273,-13.029146194458008,2449.9749834537506
D4:22:CD:00:49:AA,-150.2714080810547,-67.25523376464844,95.08672332763672,4.028037071228027,2.566187858581543,-8.00152587890625,2449.9749834537506
D4:22:CD:00:05:6E,-2.560638904571533,-73.44149017333984,-97.93270111083984,4.381078720092773,-0.31419986486434937,-13.074254989624023,2449.9749834537506
D4:22:CD:00:05:5E,-6.617465972900391,-52.55604553222656,142.55535888671875,-19.19301986694336,14.749032974243164,-17.13195037841797,2449.9749834537506
D4:22:CD:00:05:5D,172.05035400390625,-73.28485107421875,-85.7812728881836,5.26292610168457,-4.845939636230469,-10.548177719116211,2450.004983186722
D4:22:CD:00:05:6B,-10.802543640136719,47.3593635559082,-118.88742065429688,-6.226007461547852,-5.525189399719238,-19.634052276611328,2450.004983186722
D4:22:CD:00:49:AA,-148.04234313964844,-67.73635864257812,91.50923919677734,1.7130215167999268,-0.36478954553604126,-9.897705078125,2450.004983186722
D4:22:CD:00:05:6E,3.582077741622925,-76.62337493896484,-108.09945678710938,5.171420097351074,0.47163647413253784,-10.366975784301758,2450.004983186722
D4:22:CD:00:05:5E,-12.609960556030273,-49.87773513793945,142.05369567871094,-16.569393157958984,20.199752807617188,-17.847713470458984,2450.004983186722
D4:22:CD:00:05:5D,177.97096252441406,-74.59171295166016,-89.39492797851562,-17.628101348876953,15.216712951660156,0.7232351303100586,2450.03399848938
D4:22:CD:00:05:6B,-14.211140632629395,34.884422302246094,-137.4129638671875,-29.467987060546875,-11.053718566894531,-24.32553482055664,2450.03399848938
D4:22:CD:00:49:AA,-143.6372833251953,-69.39218139648438,88.01921081542969,-1.5146734714508057,-0.9554482698440552,-7.6450042724609375,2450.03399848938
D4:22:CD:00:05:6E,13.183266639709473,-79.2451400756836,-121.98362731933594,5.795836448669434,0.3869595527648926,-6.396069526672363,2450.03399848938
D4:22:CD:00:05:5E,-18.945571899414062,-52.357723236083984,145.8829803466797,-16.52654266357422,12.557937622070312,-14.712839126586914,2450.03399848938
D4:22:CD:00:05:5D,175.3995819091797,-73.48487091064453,-91.32815551757812,-1.5276093482971191,-7.055987358093262,-2.1075220108032227,2450.0645277500153
D4:22:CD:00:05:6B,-5.6493377685546875,31.445457458496094,-141.71286010742188,21.49545669555664,-10.766101837158203,-30.319564819335938,2450.0645277500153
D4:22:CD:00:49:AA,-139.90243530273438,-70.88412475585938,85.3201675415039,-1.2943556308746338,1.4431712627410889,-6.056458473205566,2450.0645277500153
D4:22:CD:00:05:6E,13.51485538482666,-81.13282012939453,-125.44605255126953,4.530763626098633,-0.1427215039730072,-2.8908848762512207,2450.0645277500153
D4:22:CD:00:05:5E,-29.811338424682617,-58.54320526123047,152.63230895996094,-16.89089584350586,7.804113388061523,-7.493389129638672,2450.0645277500153
D4:22:CD:00:05:5D,173.7670135498047,-71.91151428222656,-84.471435546875,-1.4701430797576904,-4.803554534912109,5.18243408203125,2450.094527721405
D4:22:CD:00:05:6B,-23.439537048339844,35.82675552368164,-122.21216583251953,-16.467594146728516,4.259839057922363,-0.5776348114013672,2450.094527721405
D4:22:CD:00:49:AA,-134.05062866210938,-72.67725372314453,79.25074005126953,0.5332376956939697,2.375296115875244,-3.203616142272949,2450.094527721405
D4:22:CD:00:05:6E,-21.094520568847656,-83.15221405029297,-90.51232147216797,4.411033630371094,2.5153679847717285,1.682969093322754,2450.094527721405
D4:22:CD:00:05:5E,-47.611881256103516,-64.75616455078125,163.17367553710938,-19.33176040649414,14.603641510009766,-1.6600065231323242,2450.094527721405
D4:22:CD:00:05:5D,170.71263122558594,-70.13274383544922,-76.3790054321289,0.6827819347381592,-4.269989013671875,6.527490615844727,2450.1550595760345
D4:22:CD:00:05:6B,-14.4072904586792,40.09980392456055,-100.14789581298828,-14.998964309692383,-18.80132293701172,-16.682666778564453,2450.1550595760345
D4:22:CD:00:49:AA,-127.84025573730469,-74.39872741699219,71.6439437866211,-1.9634730815887451,3.24570369720459,0.009083747863769531,2450.1550595760345
D4:22:CD:00:05:6E,-68.37000274658203,-80.23575592041016,-37.56953811645508,7.590124130249023,3.437500476837158,2.519526481628418,2450.1550595760345
D4:22:CD:00:05:5E,-54.129234313964844,-66.66370391845703,166.22923278808594,-5.224702835083008,-20.664112091064453,4.879590034484863,2450.1550595760345
D4:22:CD:00:05:5D,165.07858276367188,-67.45094299316406,-70.60345458984375,-2.390519618988037,-4.830559730529785,6.494657516479492,2450.1851847171783
D4:22:CD:00:05:6B,0.569522500038147,39.50883483886719,-78.42005157470703,-2.4189696311950684,-16.258441925048828,-9.402959823608398,2450.1851847171783
D4:22:CD:00:49:AA,-133.59112548828125,-74.87809753417969,74.38796997070312,0.25811898708343506,1.1053190231323242,5.049742698669434,2450.1851847171783
D4:22:CD:00:05:6E,-90.06959533691406,-74.4755859375,-13.036831855773926,15.660905838012695,0.8999804258346558,-1.0225591659545898,2450.1851847171783
D4:22:CD:00:05:5E,-53.215415954589844,-68.41678619384766,162.4812469482422,-6.079319953918457,1.4547383785247803,10.272253036499023,2450.1851847171783
D4:22:CD:00:05:5D,158.78421020507812,-63.35407638549805,-65.73474884033203,2.993305206298828,-10.000322341918945,8.41057014465332,2450.215184688568
D4:22:CD:00:05:6B,12.104440689086914,35.79900360107422,-64.22737884521484,-0.3094829320907593,-4.443611145019531,-2.4131689071655273,2450.215184688568
D4:22:CD:00:49:AA,-143.04061889648438,-75.3996810913086,79.45503997802734,-0.8234171867370605,-2.5706310272216797,4.880664825439453,2450.215184688568
D4:22:CD:00:05:6E,-117.6472396850586,-71.20648193359375,1.4229083061218262,10.133792877197266,-5.685540199279785,-2.472362995147705,2450.215184688568
D4:22:CD:00:05:5E,-54.348793029785156,-70.63329315185547,161.88291931152344,-2.346662998199463,0.8984591960906982,5.326092720031738,2450.215184688568
D4:22:CD:00:05:5D,153.29437255859375,-59.424503326416016,-63.32282638549805,1.4678339958190918,-5.173426628112793,7.8777008056640625,2450.24489235878
D4:22:CD:00:05:6B,15.933855056762695,30.287996292114258,-54.70466613769531,1.3450586795806885,-0.3916555643081665,1.7266921997070312,2450.24489235878
D4:22:CD:00:49:AA,-152.64170837402344,-75.99600219726562,84.2970199584961,-0.04671342670917511,-3.2301549911499023,-1.7990713119506836,2450.24489235878
D4:22:CD:00:05:6E,-154.8432159423828,-70.3271255493164,17.345218658447266,-5.287088394165039,-1.374068260192871,3.8331069946289062,2450.24489235878
D4:22:CD:00:05:5E,-64.43836975097656,-73.25366973876953,171.7747039794922,-4.662954330444336,0.4935644268989563,-2.537470817565918,2450.24489235878
D4:22:CD:00:05:5D,147.23500061035156,-58.100624084472656,-63.48981857299805,8.848472595214844,6.709362030029297,-4.2209272384643555,2450.2748997211456
D4:22:CD:00:05:6B,12.404614448547363,24.11578941345215,-48.16610336303711,-1.458993911743164,4.319684028625488,2.7883691787719727,2450.2748997211456
D4:22:CD:00:49:AA,-159.5814971923828,-75.73310089111328,85.98430633544922,0.5194146633148193,-2.9904675483703613,-4.910961151123047,2450.2748997211456
D4:22:CD:00:05:6E,-175.8568572998047,-70.09514617919922,22.7193660736084,-4.234339714050293,6.731073379516602,4.349346160888672,2450.2748997211456
D4:22:CD:00:05:5E,-72.69384002685547,-75.04338836669922,-177.6726531982422,-5.9937238693237305,5.798886299133301,-3.735835552215576,2450.2748997211456
D4:22:CD:00:05:5D,146.1045684814453,-57.04085159301758,-66.56046295166016,8.148614883422852,17.554100036621094,0.7840852737426758,2450.3049001693726
D4:22:CD:00:05:6B,3.331439733505249,17.814231872558594,-44.28518295288086,3.554107666015625,16.035091400146484,-0.49105167388916016,2450.3049001693726
D4:22:CD:00:49:AA,-163.3921356201172,-74.05785369873047,85.10478973388672,2.003593921661377,-2.1414833068847656,-2.433953285217285,2450.3049001693726
D4:22:CD:00:05:6E,-172.578857421875,-72.8038101196289,21.409835815429688,-3.3099608421325684,9.495071411132812,3.1152029037475586,2450.3049001693726
D4:22:CD:00:05:5E,-82.64502716064453,-75.7718505859375,-167.42807006835938,-6.029241561889648,2.632004737854004,-0.21661090850830078,2450.3049001693726
D4:22:CD:00:05:5D,147.24212646484375,-53.16876983642578,-73.16770935058594,3.6019296646118164,16.961002349853516,0.4729957580566406,2450.33491396904
D4:22:CD:00:05:6B,-13.256230354309082,10.300834655761719,-40.70498275756836,-3.3395113945007324,9.513359069824219,-1.1272001266479492,2450.33491396904
D4:22:CD:00:49:AA,-162.96896362304688,-72.70732879638672,84.12239837646484,-0.8626385927200317,-1.3557915687561035,5.170654296875,2450.33491396904
D4:22:CD:00:05:6E,-157.16990661621094,-76.72038269042969,21.829254150390625,0.2808637022972107,-9.503787994384766,2.5034656524658203,2450.33491396904
D4:22:CD:00:05:5E,-89.02580261230469,-76.10648345947266,-161.04774475097656,-5.036652565002441,4.072675704956055,-0.24740123748779297,2450.33491396904
D4:22:CD:00:05:5D,149.98753356933594,-46.61882781982422,-81.52811431884766,2.8889002799987793,10.196239471435547,-3.719620704650879,2450.364551305771
D4:22:CD:00:05:6B,-24.813074111938477,1.945724606513977,-36.28584671020508,-5.300058364868164,0.1610555648803711,3.5490074157714844,2450.364551305771
D4:22:CD:00:49:AA,-159.243896484375,-73.17350769042969,83.26814270019531,-1.0877845287322998,4.809211730957031,-1.0404205322265625,2450.364551305771
D4:22:CD:00:05:6E,-157.13011169433594,-79.6335220336914,28.511178970336914,6.798539161682129,-6.783046722412109,4.645474433898926,2450.364551305771
D4:22:CD:00:05:5E,-89.66106414794922,-76.83879089355469,-160.32044982910156,-4.307140350341797,3.7190804481506348,0.09706974029541016,2450.364551305771
D4:22:CD:00:05:5D,153.89129638671875,-38.715248107910156,-89.7035140991211,1.9329547882080078,5.525897026062012,-8.387691497802734,2450.395545721054
D4:22:CD:00:05:6B,-33.89262390136719,-6.8657636642456055,-31.338626861572266,-2.492610454559326,7.420714378356934,-3.7009572982788086,2450.395545721054
D4:22:CD:00:49:AA,-161.8854522705078,-73.57074737548828,85.47197723388672,7.937565803527832,5.531606674194336,-0.8717031478881836,2450.395545721054
D4:22:CD:00:05:6E,-168.8057861328125,-81.5351791381836,41.64045333862305,7.255945205688477,-2.6217494010925293,5.330460548400879,2450.395545721054
D4:22:CD:00:05:5E,-84.6777114868164,-77.95682525634766,-164.48715209960938,-5.0120849609375,2.434569835662842,-1.0445528030395508,2450.395545721054
D4:22:CD:00:05:5D,159.50001525878906,-30.917606353759766,-96.76541900634766,-0.20939743518829346,2.825760841369629,-9.60951042175293,2450.424566745758
D4:22:CD:00:05:6B,-47.86540603637695,-17.18716812133789,-24.973255157470703,-4.068324089050293,0.43116509914398193,3.1211204528808594,2450.424566745758
D4:22:CD:00:49:AA,-163.853271484375,-73.27989959716797,84.60905456542969,5.547234535217285,1.8258237838745117,6.219184875488281,2450.424566745758
D4:22:CD:00:05:6E,170.2144775390625,-82.80424499511719,63.99306869506836,6.371284484863281,0.8448944091796875,1.531325340270996,2450.424566745758
D4:22:CD:00:05:5E,-80.87176513671875,-78.63858032226562,-167.47337341308594,-5.1780548095703125,0.8677990436553955,-2.259550094604492,2450.424566745758
D4:22:CD:00:05:5D,165.58026123046875,-24.737003326416016,-102.53244018554688,-1.047537088394165,1.8821742534637451,-9.796167373657227,2450.485095500946
D4:22:CD:00:05:6B,-56.91020202636719,-30.424846649169922,-18.099937438964844,1.7133605480194092,-3.5047287940979004,6.928569793701172,2450.485095500946
D4:22:CD:00:49:AA,-163.7572021484375,-73.43653869628906,84.088623046875,-0.08296890556812286,1.1279311180114746,5.099148750305176,2450.485095500946
D4:22:CD:00:05:6E,133.80491638183594,-82.49956512451172,101.30950927734375,4.819272994995117,3.902667999267578,-1.05743408203125,2450.485095500946
D4:22:CD:00:05:5E,-83.40499877929688,-78.57695770263672,-163.69021606445312,-5.88332462310791,-1.5071442127227783,-2.8033394813537598,2450.485095500946
D4:22:CD:00:05:5D,172.14443969726562,-21.195920944213867,-107.47300720214844,-1.886052131652832,1.333115816116333,-8.071065902709961,2450.5150952339172
D4:22:CD:00:05:6B,-57.706260681152344,-48.61784744262695,-11.924315452575684,11.396673202514648,-2.9589061737060547,11.892702102661133,2450.5150952339172
D4:22:CD:00:49:AA,-163.1710205078125,-73.73573303222656,83.63253784179688,1.1192295551300049,1.3052709102630615,0.7140226364135742,2450.5150952339172
D4:22:CD:00:05:6E,102.4194564819336,-77.83782196044922,136.0062255859375,2.366842269897461,5.851059913635254,-0.845707893371582,2450.5150952339172
D4:22:CD:00:05:5E,-92.56185150146484,-78.10643768310547,-153.41094970703125,-4.412326812744141,0.9656628370285034,-2.9242501258850098,2450.5150952339172
D4:22:CD:00:05:5D,174.5189208984375,-21.89044189453125,-112.77534484863281,-7.5307722091674805,0.8596214056015015,-4.817811012268066,2450.5447533130646
D4:22:CD:00:05:6B,-47.12250518798828,-67.71204376220703,-12.25217056274414,10.628719329833984,4.166693687438965,33.73065948486328,2450.5447533130646
D4:22:CD:00:49:AA,-162.05499267578125,-74.10663604736328,82.66735076904297,2.245046615600586,0.7436060905456543,-2.037466049194336,2450.5447533130646
D4:22:CD:00:05:6E,90.81110382080078,-67.30844116210938,153.9819793701172,7.278693199157715,-2.206529140472412,1.4236040115356445,2450.5447533130646
D4:22:CD:00:05:5E,-103.103515625,-77.16210174560547,-141.96310424804688,-5.01164436340332,2.280635356903076,-2.8116507530212402,2450.5447533130646
D4:22:CD:00:05:5D,168.84237670898438,-26.657499313354492,-117.66204833984375,-9.994743347167969,-6.967790603637695,-8.103708267211914,2450.574760913849
D4:22:CD:00:05:6B,-15.7830171585083,-75.05825805664062,-31.29796600341797,6.355926513671875,1.3403692245483398,10.321413040161133,2450.574760913849
D4:22:CD:00:49:AA,-163.84033203125,-74.14737701416016,84.3668441772461,1.583456039428711,1.1993961334228516,-4.48832893371582,2450.574760913849
D4:22:CD:00:05:6E,85.25371551513672,-53.07645797729492,162.17300415039062,5.474241256713867,1.8875443935394287,0.5514469146728516,2450.574760913849
D4:22:CD:00:05:5E,-111.83242797851562,-75.72286224365234,-132.8725128173828,-6.85163688659668,2.1858201026916504,-1.951289176940918,2450.574760913849
D4:22:CD:00:05:5D,164.3718719482422,-29.140432357788086,-119.41206359863281,-2.5354514122009277,-2.9651284217834473,35.160369873046875,2450.6047608852386
D4:22:CD:00:05:6B,-4.831635475158691,-73.48548889160156,-31.84796714782715,10.369644165039062,4.224265098571777,-1.0041723251342773,2450.6047608852386
D4:22:CD:00:49:AA,-167.35171508789062,-74.27477264404297,87.8674545288086,-0.017631929367780685,0.8616526126861572,-5.023961067199707,2450.6047608852386
D4:22:CD:00:05:6E,83.18343353271484,-39.37813949584961,167.77621459960938,8.174945831298828,5.207581520080566,-5.477007865905762,2450.6047608852386
D4:22:CD:00:05:5E,-116.94046020507812,-74.66240692138672,-127.74759674072266,-5.333928108215332,3.1855955123901367,-0.48561668395996094,2450.6047608852386
D4:22:CD:00:05:5D,165.6659393310547,-29.393423080444336,-116.94878387451172,-10.193078994750977,-17.403640747070312,7.5250396728515625,2450.6347754001617
D4:22:CD:00:05:6B,-9.88996696472168,-68.42416381835938,-22.501802444458008,8.676046371459961,2.5271291732788086,2.9425201416015625,2450.6347754001617
D4:22:CD:00:49:AA,-168.69703674316406,-76.00546264648438,89.46475219726562,2.445890426635742,0.44414180517196655,-3.44136381149292,2450.6347754001617
D4:22:CD:00:05:6E,80.95288848876953,-28.30803680419922,172.254150390625,16.019485473632812,2.8535218238830566,3.712085723876953,2450.6347754001617
D4:22:CD:00:05:5E,-119.36611938476562,-74.48079681396484,-125.38670349121094,-4.956597328186035,3.460908889770508,-0.2542581558227539,2450.6347754001617
D4:22:CD:00:05:5D,166.743408203125,-25.474384307861328,-112.33851623535156,-14.712104797363281,-12.07545280456543,13.609725952148438,2450.665305376053
D4:22:CD:00:05:6B,-18.914562225341797,-61.02347183227539,-19.209566116333008,9.871713638305664,-0.7930722236633301,7.856475830078125,2450.665305376053
D4:22:CD:00:49:AA,-167.96238708496094,-76.55770111083984,88.41618347167969,3.730940818786621,0.7368217706680298,-0.7218389511108398,2450.665305376053
D4:22:CD:00:05:6E,76.13817596435547,-17.290977478027344,175.41351318359375,15.435802459716797,5.645610809326172,17.345684051513672,2450.665305376053
D4:22:CD:00:05:5E,-118.91978454589844,-75.69673919677734,-125.60966491699219,-5.2738142013549805,3.8812203407287598,0.46245384216308594,2450.665305376053
D4:22:CD:00:05:5D,165.8611297607422,-18.328317642211914,-107.67826080322266,-6.659262657165527,-17.09823226928711,13.114013671875,2450.694305419922
D4:22:CD:00:05:6B,-26.010705947875977,-53.254085540771484,-23.708477020263672,7.273805618286133,-10.088556289672852,5.581555366516113,2450.694305419922
D4:22:CD:00:49:AA,-170.83470153808594,-76.08826446533203,89.29065704345703,0.2137087881565094,-4.012334823608398,5.480945587158203,2450.694305419922
D4:22:CD:00:05:6E,74.40489959716797,-3.0206243991851807,177.36892700195312,7.528156280517578,6.020010948181152,19.019405364990234,2450.694305419922
D4:22:CD:00:05:5E,-112.17317199707031,-77.66272735595703,-132.6449737548828,-7.273266792297363,3.8629555702209473,-0.4568319320678711,2450.694305419922
D4:22:CD:00:05:5D,163.80690002441406,-10.88168716430664,-105.64826202392578,-3.4442052841186523,-13.347297668457031,5.568652153015137,2450.725314617157
D4:22:CD:00:05:6B,-26.63417625427246,-46.51860046386719,-31.947301864624023,3.621771812438965,-13.647289276123047,3.7234115600585938,2450.725314617157
D4:22:CD:00:49:AA,-173.68528747558594,-76.20682525634766,90.81129455566406,-4.345090866088867,-0.5011053085327148,5.545328140258789,2450.725314617157
D4:22:CD:00:05:6E,70.57640075683594,11.286063194274902,177.60281372070312,0.21263337135314941,2.4338388442993164,13.629573822021484,2450.725314617157
D4:22:CD:00:05:5E,-94.12512969970703,-78.91770935058594,-152.29249572753906,-7.785464286804199,3.836947441101074,-0.5014028549194336,2450.725314617157
D4:22:CD:00:05:5D,162.58663940429688,-5.978278636932373,-106.46519470214844,-2.62740421295166,-6.795712471008301,-2.798227310180664,2450.7848575115204
D4:22:CD:00:05:6B,-27.059894561767578,-42.17140197753906,-39.757713317871094,2.7846856117248535,-9.50390625,-0.6297512054443359,2450.7848575115204
D4:22:CD:00:49:AA,-174.5846405029297,-75.70521545410156,91.96859741210938,0.670691728591919,3.593909740447998,8.24936294555664,2450.7848575115204
D4:22:CD:00:05:6E,64.8524169921875,22.274362564086914,176.2639617919922,-1.6477899551391602,-0.6685020923614502,5.7185468673706055,2450.7848575115204
D4:22:CD:00:05:5E,-63.767669677734375,-77.87684631347656,175.55825805664062,-6.04457950592041,2.3056492805480957,5.413675308227539,2450.7848575115204
D4:22:CD:00:05:5D,162.0985107421875,-5.619062900543213,-108.89969635009766,-2.454789638519287,-1.4695014953613281,-9.231159210205078,2450.81485748291
D4:22:CD:00:05:6B,-30.267337799072266,-41.08434295654297,-46.56637191772461,-2.8096961975097656,-8.601879119873047,0.1940755844116211,2450.81485748291
D4:22:CD:00:49:AA,-178.37249755859375,-74.56916046142578,95.70685577392578,5.592470169067383,3.455806255340576,8.712181091308594,2450.81485748291
D4:22:CD:00:05:6E,62.3311882019043,28.87635612487793,174.35899353027344,4.440642356872559,0.9592417478561401,-5.307583808898926,2450.81485748291
D4:22:CD:00:05:5E,-28.599536895751953,-71.69999694824219,143.9121856689453,-2.0368947982788086,11.551408767700195,-2.6549582481384277,2450.81485748291
D4:22:CD:00:05:5D,161.80776977539062,-10.64144515991211,-111.15519714355469,-4.407962799072266,0.5252608060836792,-15.62432861328125,2450.84441614151
D4:22:CD:00:05:6B,-32.247100830078125,-42.93193054199219,-52.81199264526367,-3.5981879234313965,-4.927764892578125,0.6230335235595703,2450.84441614151
D4:22:CD:00:49:AA,176.01031494140625,-73.9242935180664,99.54095458984375,4.092001914978027,2.921431541442871,7.343408584594727,2450.84441614151
D4:22:CD:00:05:6E,63.51754379272461,31.275924682617188,173.77017211914062,3.6596789360046387,-1.4629876613616943,-6.992732048034668,2450.84441614151
D4:22:CD:00:05:5E,-24.318729400634766,-70.46553039550781,140.79629516601562,-7.775204658508301,11.534688949584961,-9.645021438598633,2450.84441614151
D4:22:CD:00:05:5D,160.1301727294922,-20.50528335571289,-112.44474029541016,-5.497128486633301,-2.1946005821228027,-18.310810089111328,2450.874670267105
D4:22:CD:00:05:6B,-34.059974670410156,-46.04520034790039,-58.31498718261719,-3.585690975189209,-1.4398348331451416,-2.552016258239746,2450.874670267105
D4:22:CD:00:49:AA,169.02528381347656,-73.44483184814453,104.04180908203125,0.842746376991272,1.4583418369293213,3.0425338745117188,2450.874670267105
D4:22:CD:00:05:6E,62.219390869140625,30.184494018554688,176.1236572265625,2.4961609840393066,-0.24587741494178772,-9.711231231689453,2450.874670267105
D4:22:CD:00:05:5E,-32.461181640625,-73.2476577758789,149.96754455566406,-6.320672988891602,5.081888198852539,-11.138750076293945,2450.874670267105
D4:22:CD:00:05:5D,158.8323974609375,-33.58964157104492,-113.0752944946289,-5.806878089904785,-6.067205429077148,-16.20730972290039,2450.9046704769135
D4:22:CD:00:05:6B,-37.529048919677734,-49.15089797973633,-61.8058967590332,-4.814223289489746,0.7567707300186157,-5.977643966674805,2450.9046704769135
D4:22:CD:00:49:AA,161.0703887939453,-72.64210510253906,110.07587432861328,1.036365270614624,0.1453675627708435,-3.1667332649230957,2450.9046704769135
D4:22:CD:00:05:6E,61.77389907836914,25.44864273071289,-177.82337951660156,-0.0795765072107315,-2.864495277404785,-10.47012710571289,2450.9046704769135
D4:22:CD:00:05:5E,-46.97787857055664,-75.5461196899414,163.6259002685547,0.6632204055786133,-9.458003997802734,-7.615644454956055,2450.9046704769135
D4:22:CD:00:05:5D,158.22445678710938,-49.27862548828125,-113.3443374633789,-5.597597122192383,-6.517848014831543,-7.937175750732422,2450.9346845149994
D4:22:CD:00:05:6B,-41.86008834838867,-52.06679153442383,-62.35893630981445,-3.932921886444092,2.5282068252563477,-7.698027610778809,2450.9346845149994
D4:22:CD:00:49:AA,156.3723907470703,-71.47742462158203,113.140625,-0.19272097945213318,-0.17041844129562378,-8.769416809082031,2450.9346845149994
D4:22:CD:00:05:6E,60.2122917175293,17.378009796142578,-168.522216796875,-11.889551162719727,-8.021781921386719,-7.688936233520508,2450.9346845149994
D4:22:CD:00:05:5E,-55.887115478515625,-75.86644744873047,167.6925048828125,-5.537384986877441,3.8062615394592285,-9.26144027709961,2450.9346845149994
D4:22:CD:00:05:5D,157.7434844970703,-67.69062042236328,-113.57333374023438,-2.0015788078308105,-2.686476230621338,5.257208824157715,2450.965222597122
D4:22:CD:00:05:6B,-46.06452178955078,-54.95180130004883,-60.80731201171875,-2.0558176040649414,3.2645626068115234,-8.734872817993164,2450.965222597122
D4:22:CD:00:49:AA,157.77532958984375,-70.96221923828125,111.3530502319336,-2.4505391120910645,-0.07046429812908173,-10.242691040039062,2450.965222597122
D4:22:CD:00:05:6E,51.65934371948242,9.925987243652344,-157.57516479492188,-23.326820373535156,-24.885009765625,-4.88531494140625,2450.965222597122
D4:22:CD:00:05:5E,-75.22354125976562,-75.99922943115234,-179.00230407714844,-3.6421971321105957,-1.5187110900878906,-2.4457545280456543,2450.965222597122
D4:22:CD:00:05:5D,168.4434814453125,-87.91513061523438,-125.08214569091797,1.7715940475463867,-0.11236084997653961,20.286598205566406,2450.9952206611633
D4:22:CD:00:05:6B,-49.66812515258789,-57.86140823364258,-58.46783447265625,-1.6728384494781494,4.088433265686035,-7.807431221008301,2450.9952206611633
D4:22:CD:00:49:AA,159.50918579101562,-72.37620544433594,110.08672332763672,-0.15778446197509766,-0.37163734436035156,-8.296806335449219,2450.9952206611633
D4:22:CD:00:05:6E,46.644554138183594,10.964225769042969,-150.94143676757812,-2.151909351348877,-1.4797039031982422,-27.516460418701172,2450.9952206611633
D4:22:CD:00:05:5E,-91.47703552246094,-74.90992736816406,-166.56475830078125,-5.7005767822265625,1.11962890625,1.4196109771728516,2450.9952206611633
D4:22:CD:00:05:5D,-17.27189826965332,-73.5572509765625,64.08283996582031,9.108968734741211,22.01845932006836,22.826553344726562,2451.02449965477
D4:22:CD:00:05:6B,-50.363311767578125,-61.11186218261719,-56.5916748046875,-0.731562614440918,3.976808547973633,-6.105307579040527,2451.02449965477
D4:22:CD:00:49:AA,159.5572052001953,-74.58758544921875,109.4748306274414,3.051352024078369,1.3109323978424072,-9.484272003173828,2451.02449965477
D4:22:CD:00:05:6E,62.46501159667969,16.488248825073242,-154.98841857910156,1.5862674713134766,3.007478713989258,-10.83304214477539,2451.02449965477
D4:22:CD:00:05:5E,-98.5291519165039,-73.64227294921875,-161.54078674316406,-8.521293640136719,-0.1438162624835968,3.4441890716552734,2451.02449965477
D4:22:CD:00:05:5D,-6.231666088104248,-67.89746856689453,57.9059944152832,10.664579391479492,18.489093780517578,-25.835979461669922,2451.084856033325
D4:22:CD:00:05:6B,-56.3160400390625,-64.38294219970703,-56.13880157470703,8.202436447143555,3.5894627571105957,-5.55831241607666,2451.084856033325
D4:22:CD:00:49:AA,159.00392150878906,-75.79696655273438,109.16238403320312,1.7689859867095947,0.6550670862197876,-5.094547271728516,2451.084856033325
D4:22:CD:00:05:6E,76.0934829711914,26.132497787475586,-165.94390869140625,-2.4744009971618652,-8.263286590576172,-1.3037166595458984,2451.084856033325
D4:22:CD:00:05:5E,-94.87773132324219,-72.81631469726562,-163.75131225585938,-5.943391799926758,2.1409597396850586,6.833423614501953,2451.084856033325
D4:22:CD:00:05:5D,-0.8740639090538025,-72.84071350097656,52.476097106933594,11.781454086303711,20.66338348388672,-7.982769966125488,2451.1148552894592
D4:22:CD:00:05:6B,-55.30086135864258,-67.27043151855469,-61.2587776184082,-10.906911849975586,9.828336715698242,7.4989166259765625,2451.1148552894592
D4:22:CD:00:49:AA,162.21542358398438,-75.29408264160156,106.20879364013672,-1.7363545894622803,-4.482513427734375,2.595001220703125,2451.1148552894592
D4:22:CD:00:05:6E,74.29910278320312,34.54021453857422,176.88136291503906,-16.534313201904297,-10.511146545410156,-9.053102493286133,2451.1148552894592
D4:22:CD:00:05:5E,-85.40943145751953,-71.5395278930664,-170.20469665527344,-7.22299861907959,-0.1418060064315796,5.023414611816406,2451.1148552894592
D4:22:CD:00:05:5D,33.01304244995117,-81.30231475830078,20.43711280822754,7.353918075561523,9.932426452636719,9.876771926879883,2451.1449253559113
D4:22:CD:00:05:6B,-55.0373420715332,-71.11521911621094,-63.133514404296875,8.359640121459961,-5.7844953536987305,4.272304534912109,2451.1449253559113
D4:22:CD:00:49:AA,170.47486877441406,-74.4893798828125,99.50701141357422,5.927127838134766,-0.682026743888855,6.790008544921875,2451.1449253559113
D4:22:CD:00:05:6E,66.0422134399414,39.75235366821289,158.71969604492188,-9.262493133544922,-1.4136784076690674,-8.9405517578125,2451.1449253559113
D4:22:CD:00:05:5E,-73.38785552978516,-69.44181060791016,-177.18028259277344,-9.265941619873047,-7.252984046936035,4.926144599914551,2451.1449253559113
D4:22:CD:00:05:5D,112.58580780029297,-81.09505462646484,-53.049251556396484,10.025230407714844,0.3273535370826721,3.2107763290405273,2451.1749320030212
D4:22:CD:00:05:6B,-70.9503173828125,-72.56574249267578,-56.04320526123047,-4.154558181762695,12.242927551269531,17.63251495361328,2451.1749320030212
D4:22:CD:00:49:AA,174.6928253173828,-74.15422058105469,95.88526153564453,2.7280545234680176,3.0842270851135254,8.722616195678711,2451.1749320030212
D4:22:CD:00:05:6E,57.41554260253906,42.09715270996094,143.6831512451172,1.361070156097412,-0.2972258925437927,-6.455833435058594,2451.1749320030212
D4:22:CD:00:05:5E,-58.20283508300781,-67.12217712402344,177.72401428222656,-8.52419662475586,7.53962516784668,-2.0078272819519043,2451.1749320030212
D4:22:CD:00:05:5D,142.7126922607422,-75.28797149658203,-76.28938293457031,-8.66468620300293,-10.276008605957031,0.32154083251953125,2451.204932451248
D4:22:CD:00:05:6B,-73.08505249023438,-73.47309112548828,-49.435462951660156,2.3959598541259766,4.057995796203613,9.264978408813477,2451.204932451248
D4:22:CD:00:49:AA,178.74383544921875,-73.50265502929688,94.04366302490234,-0.1394807994365692,-0.6382441520690918,4.977733612060547,2451.204932451248
D4:22:CD:00:05:6E,54.64076614379883,41.89408493041992,132.7957763671875,8.570259094238281,-0.6623035669326782,-8.297967910766602,2451.204932451248
D4:22:CD:00:05:5E,-54.898197174072266,-67.17102813720703,-172.17323303222656,-25.35708999633789,17.40017318725586,-6.814897537231445,2451.204932451248
D4:22:CD:00:05:5D,149.33694458007812,-75.12696075439453,-84.00138854980469,-2.1723875999450684,-16.42993927001953,-8.942802429199219,2451.234947681427
D4:22:CD:00:05:6B,-74.01990509033203,-73.16874694824219,-41.04054260253906,3.620535373687744,-3.511857509613037,-1.7029571533203125,2451.234947681427
D4:22:CD:00:49:AA,-177.00833129882812,-72.94843292236328,94.6027603149414,1.6542859077453613,-3.3108859062194824,0.869694709777832,2451.234947681427
D4:22:CD:00:05:6E,58.74394989013672,40.47867965698242,125.897216796875,11.31978988647461,4.592912673950195,-3.858499526977539,2451.234947681427
D4:22:CD:00:05:5E,-67.38849639892578,-68.43389129638672,-149.92822265625,-17.648033142089844,7.329400062561035,-3.938319206237793,2451.234947681427
D4:22:CD:00:05:5D,161.16566467285156,-74.89283752441406,-94.78704833984375,-7.714361190795898,-0.5140162706375122,3.158930778503418,2451.2644827365875
D4:22:CD:00:05:6B,-79.53016662597656,-71.29428100585938,-32.60325241088867,1.4419772624969482,-3.9336791038513184,-8.304893493652344,2451.2644827365875
D4:22:CD:00:49:AA,-174.61338806152344,-71.59123992919922,97.58728790283203,1.212784767150879,0.20918861031532288,-5.725030899047852,2451.2644827365875
D4:22:CD:00:05:6E,70.54804992675781,38.53510284423828,124.66327667236328,21.035140991210938,2.9467225074768066,-4.6661481857299805,2451.2644827365875
D4:22:CD:00:05:5E,-90.49361419677734,-67.64009857177734,-121.67291259765625,-9.872119903564453,-0.5049394369125366,-9.192481994628906,2451.2644827365875
D4:22:CD:00:05:5D,169.95191955566406,-71.69438934326172,-100.1859130859375,0.7784544229507446,-7.28701114654541,3.7391843795776367,2451.2944824695587
D4:22:CD:00:05:6B,-86.13097381591797,-69.22595977783203,-25.086389541625977,-3.514920711517334,-3.2125844955444336,-8.10450553894043,2451.2944824695587
D4:22:CD:00:49:AA,-174.06961059570312,-70.10597229003906,101.26478576660156,-1.04826021194458,2.659669876098633,-10.568502426147461,2451.2944824695587
D4:22:CD:00:05:6E,87.90859985351562,33.62800979614258,126.6817855834961,6.537198066711426,-3.507718563079834,2.5510520935058594,2451.2944824695587
D4:22:CD:00:05:5E,-113.21719360351562,-64.72833251953125,-96.56807708740234,-4.702493667602539,-2.3272643089294434,-15.355766296386719,2451.2944824695587
D4:22:CD:00:05:5D,175.97869873046875,-67.90568542480469,-105.39684295654297,0.38816577196121216,1.9221456050872803,-0.8778162002563477,2451.3244965076447
D4:22:CD:00:05:6B,-85.12582397460938,-69.29845428466797,-23.74429702758789,-4.275265693664551,-3.3458356857299805,-2.437377452850342,2451.3244965076447
D4:22:CD:00:49:AA,-175.68792724609375,-69.79698181152344,104.41378784179688,2.1802282333374023,2.115774631500244,-4.188159942626953,2451.3244965076447
D4:22:CD:00:05:6E,94.91182708740234,27.699501037597656,125.09673309326172,2.7045516967773438,-1.0069084167480469,16.17699432373047,2451.3244965076447
D4:22:CD:00:05:5E,-131.92247009277344,-60.27266311645508,-77.78034973144531,-1.8909382820129395,0.4726099967956543,-17.20879364013672,2451.3244965076447
D4:22:CD:00:05:5D,179.53440856933594,-64.86518859863281,-109.58940887451172,1.3424057960510254,2.9362478256225586,-0.5233697891235352,2451.3850243091583
D4:22:CD:00:05:6B,-78.97409057617188,-70.6203842163086,-28.78028678894043,-4.026169776916504,-6.7387285232543945,-0.6280441284179688,2451.3850243091583
D4:22:CD:00:49:AA,-177.40676879882812,-68.73491668701172,105.722412109375,0.8878340721130371,-1.4244661331176758,0.11830520629882812,2451.3850243091583
D4:22:CD:00:05:6E,91.27320098876953,21.271493911743164,119.1229248046875,6.875809669494629,-3.7309908866882324,1.1687355041503906,2451.3850243091583
D4:22:CD:00:05:5E,-145.93043518066406,-55.9747200012207,-65.65939331054688,0.4248596429824829,2.556675910949707,-14.636018753051758,2451.3850243091583
D4:22:CD:00:05:5D,-177.62013244628906,-63.00681686401367,-111.5849380493164,2.7127561569213867,-1.2886643409729004,3.728496551513672,2451.415024995804
D4:22:CD:00:05:6B,-79.81536865234375,-71.1894760131836,-32.43927764892578,-0.6659508943557739,-3.618485450744629,3.7089576721191406,2451.415024995804
D4:22:CD:00:49:AA,178.53375244140625,-67.37525177001953,109.22237396240234,-6.512923240661621,1.5072681903839111,2.5994510650634766,2451.415024995804
D4:22:CD:00:05:6E,90.88519287109375,12.593585014343262,110.22867584228516,3.244333267211914,0.73497474193573,-6.7248125076293945,2451.415024995804
D4:22:CD:00:05:5E,-156.40826416015625,-53.54901123046875,-57.735836029052734,0.4249535799026489,2.146113395690918,-12.643278121948242,2451.415024995804
D4:22:CD:00:05:5D,-175.89137268066406,-62.41382598876953,-112.19854736328125,-0.7574634552001953,1.2508652210235596,1.7001152038574219,2451.444659471512
D4:22:CD:00:05:6B,-80.515869140625,-70.8043212890625,-37.56114196777344,-5.762591361999512,2.0663228034973145,7.490846633911133,2451.444659471512
D4:22:CD:00:49:AA,175.67225646972656,-66.4632568359375,112.13546752929688,-4.8403778076171875,1.6926493644714355,5.498170852661133,2451.444659471512
D4:22:CD:00:05:6E,97.26046752929688,1.1274363994598389,98.88365936279297,-2.1561646461486816,8.295919418334961,-6.195713996887207,2451.444659471512
D4:22:CD:00:05:5E,-165.9512176513672,-54.00101852416992,-52.08256530761719,-1.8676438331604004,1.600867748260498,-8.622886657714844,2451.444659471512
D4:22:CD:00:05:5D,-174.41403198242188,-62.70196533203125,-113.4297103881836,-0.644411563873291,1.1232850551605225,1.0424842834472656,2451.474667787552
D4:22:CD:00:05:6B,-77.25637817382812,-69.76641845703125,-44.113162994384766,-5.380992889404297,1.9619135856628418,4.469433784484863,2451.474667787552
D4:22:CD:00:49:AA,174.3410186767578,-66.30767822265625,114.27246856689453,-2.8001136779785156,1.2048168182373047,5.073132514953613,2451.474667787552
D4:22:CD:00:05:6E,107.08756256103516,-11.886078834533691,87.0862808227539,4.702537536621094,17.156803131103516,8.766885757446289,2451.474667787552
D4:22:CD:00:05:5E,-171.20016479492188,-60.23562240600586,-46.54346466064453,4.218685150146484,-0.07208876311779022,-3.5893425941467285,2451.474667787552
D4:22:CD:00:05:5D,-172.1988067626953,-63.99871063232422,-116.13309478759766,0.33365070819854736,0.2079010009765625,0.4183225631713867,2451.5046672821045
D4:22:CD:00:05:6B,-73.99659729003906,-67.79651641845703,-50.028533935546875,-3.2983264923095703,1.3982954025268555,0.1260700225830078,2451.5046672821045
D4:22:CD:00:49:AA,170.90293884277344,-66.43144226074219,117.50289916992188,-2.57949161529541,3.1857824325561523,4.514622688293457,2451.5046672821045
D4:22:CD:00:05:6E,105.06289672851562,-26.58514976501465,77.22017669677734,14.926359176635742,16.92596435546875,10.479133605957031,2451.5046672821045
D4:22:CD:00:05:5E,-171.27481079101562,-72.88002014160156,-37.89999771118164,1.9698295593261719,8.88682746887207,9.717613220214844,2451.5046672821045
D4:22:CD:00:05:5D,-170.98147583007812,-65.97859191894531,-119.18170928955078,0.532256007194519,-0.9535911083221436,-0.48749732971191406,2451.5346817970276
D4:22:CD:00:05:6B,-69.43509674072266,-64.96219635009766,-56.18479919433594,-2.0075573921203613,3.504889488220215,-0.8692827224731445,2451.5346817970276
D4:22:CD:00:49:AA,167.54315185546875,-66.92478942871094,119.74019622802734,-1.776444673538208,1.8377301692962646,1.3412160873413086,2451.5346817970276
D4:22:CD:00:05:6E,95.98253631591797,-38.85111618041992,70.46553802490234,8.994888305664062,13.683027267456055,8.742679595947266,2451.5346817970276
D4:22:CD:00:05:5E,175.1279296875,-81.67510986328125,-21.6578426361084,-10.94607162475586,-3.2083582878112793,20.531131744384766,2451.5346817970276
D4:22:CD:00:05:5D,-172.32366943359375,-66.55204010009766,-119.15705108642578,-0.04114270210266113,-1.4440922737121582,-0.5316505432128906,2451.5902111530304
D4:22:CD:00:05:6B,-64.39659118652344,-60.97773742675781,-63.21610641479492,0.7925841808319092,0.5871670246124268,-4.794921875,2451.5902111530304
D4:22:CD:00:49:AA,164.526123046875,-67.4940185546875,121.5292739868164,0.20378881692886353,0.5416569709777832,-0.5996513366699219,2451.5902111530304
D4:22:CD:00:05:6E,88.10977935791016,-44.06816101074219,66.9032974243164,6.691041946411133,6.274984359741211,-1.3193988800048828,2451.5902111530304
D4:22:CD:00:05:5E,140.08546447753906,-84.49504852294922,3.6561033725738525,1.7781636714935303,-8.804376602172852,9.222270965576172,2451.5902111530304
D4:22:CD:00:05:5D,-175.35134887695312,-65.5586929321289,-116.63792419433594,-0.6464961767196655,-1.801826000213623,0.12820911407470703,2451.595210790634
D4:22:CD:00:05:6B,-70.27066802978516,-54.004878997802734,-68.486572265625,-0.4869253635406494,-3.4283580780029297,-6.952755928039551,2451.595210790634
D4:22:CD:00:49:AA,161.16061401367188,-68.47601318359375,123.70037078857422,0.192503422498703,0.1751449704170227,-3.8910603523254395,2451.595210790634
D4:22:CD:00:05:6E,83.17996215820312,-43.38252639770508,65.7396469116211,6.89272403717041,8.166404724121094,-4.503814697265625,2451.595210790634
D4:22:CD:00:05:5E,97.92807006835938,-84.7137680053711,39.56144714355469,5.137920379638672,8.422422409057617,8.440851211547852,2451.595210790634
D4:22:CD:00:05:5D,-178.76454162597656,-63.254520416259766,-112.97844696044922,-1.2530913352966309,-1.4187839031219482,0.01596832275390625,2451.625225543976
D4:22:CD:00:05:6B,-86.4613265991211,-42.80805206298828,-72.89484405517578,-8.520784378051758,4.219456672668457,-0.7798700332641602,2451.625225543976
D4:22:CD:00:49:AA,156.888916015625,-70.47107696533203,126.82176208496094,-0.9082180261611938,-0.5783591270446777,-7.249307632446289,2451.625225543976
D4:22:CD:00:05:6E,81.74361419677734,-40.58734893798828,67.89681243896484,6.884751319885254,13.382755279541016,-1.7433385848999023,2451.625225543976
D4:22:CD:00:05:5E,115.52218627929688,-84.09597778320312,20.08013153076172,-5.7455854415893555,-8.55020523071289,5.172818183898926,2451.625225543976
