Device,EulerX,EulerY,EulerZ,FreeAccX,FreeAccY,FreeAccZ,Timestamp
D4:22:CD:00:05:5D,-179.0673828125,-56.53199005126953,-116.8706283569336,-0.9748121500015259,2.2110447883605957,3.165874481201172,1410.3197360038757
D4:22:CD:00:05:6B,-28.192338943481445,11.346345901489258,-31.583890914916992,-1.424614429473877,-3.189267158508301,11.1505126953125,1410.3197360038757
D4:22:CD:00:49:AA,144.98597717285156,-66.85139465332031,157.53713989257812,-2.997343063354492,-2.8916711807250977,6.156800270080566,1410.3197360038757
D4:22:CD:00:05:6E,70.52709197998047,5.253409385681152,25.001720428466797,1.5922431945800781,9.318840026855469,-6.042006492614746,1410.3197360038757
D4:22:CD:00:05:5E,-174.4852294921875,-59.61001205444336,-38.37605667114258,0.3986959457397461,2.7913765907287598,7.659383773803711,1410.3197360038757
D4:22:CD:00:05:6B,-11.477805137634277,18.08701515197754,-27.616016387939453,-3.4226975440979004,-5.685620307922363,3.1399621963500977,1410.3297414779663
D4:22:CD:00:49:AA,148.2954559326172,-67.9341812133789,156.81239318847656,-1.7064814567565918,-0.8119362592697144,2.324143409729004,1410.3297414779663
D4:22:CD:00:05:6E,78.08790588378906,7.1468024253845215,31.391860961914062,-1.158130407333374,6.451205253601074,-6.019381523132324,1410.3297414779663
D4:22:CD:00:05:5E,-168.9547119140625,-63.58254623413086,-44.88011169433594,11.229860305786133,13.398931503295898,5.888912200927734,1410.3297414779663
D4:22:CD:00:05:5D,-151.41078186035156,-74.56394958496094,-148.97142028808594,0.15732493996620178,1.0193562507629395,-0.9585666656494141,1410.3347342014313
D4:22:CD:00:05:6B,-2.110675096511841,23.812911987304688,-23.933168411254883,-3.451572895050049,-5.20319938659668,-4.100379943847656,1410.3347342014313
D4:22:CD:00:49:AA,153.78509521484375,-69.0693588256836,154.84701538085938,-1.9800937175750732,-0.6599617004394531,-0.6396951675415039,1410.3347342014313
D4:22:CD:00:05:6E,83.53080749511719,3.509415864944458,38.65969467163086,-5.98811149597168,3.9552664756774902,-9.880746841430664,1410.3347342014313
D4:22:CD:00:05:5E,-146.53570556640625,-68.96412658691406,-64.00361633300781,4.039785385131836,3.0011916160583496,1.1077184677124023,1410.3347342014313
D4:22:CD:00:05:5D,-152.08489990234375,-72.35112762451172,-147.49757385253906,-1.1024398803710938,3.3365631103515625,-0.3144874572753906,1410.3397390842438
D4:22:CD:00:05:6E,91.98712921142578,-5.236867427825928,45.46730041503906,-11.096475601196289,2.5479936599731445,-9.670036315917969,1410.3397390842438
D4:22:CD:00:05:5E,-116.06861877441406,-71.43045043945312,-93.19453430175781,0.15271621942520142,1.0569853782653809,-7.337645530700684,1410.3397390842438
D4:22:CD:00:05:5D,176.1732635498047,-52.091461181640625,-112.17792510986328,0.03983715921640396,2.099735736846924,2.6859827041625977,1410.3429505825043
D4:22:CD:00:05:6B,-53.57527160644531,-8.33094310760498,-18.83832359313965,13.074043273925781,11.39447021484375,30.413578033447266,1410.3429505825043
D4:22:CD:00:49:AA,144.5089874267578,-78.79878234863281,134.9351348876953,0.3811374306678772,-1.8682105541229248,7.17680549621582,1410.3429505825043
D4:22:CD:00:05:6E,96.17163848876953,-37.11034393310547,31.881155014038086,7.794400215148926,5.674670219421387,5.462306022644043,1410.3429505825043
D4:22:CD:00:05:5D,176.52610778808594,-53.134254455566406,-112.5536880493164,-1.7389838695526123,1.6156837940216064,2.0163002014160156,1410.3873629570007
D4:22:CD:00:05:6B,-42.725101470947266,-3.8311145305633545,-14.756939888000488,7.053478240966797,3.4869637489318848,20.0302734375,1410.3873629570007
D4:22:CD:00:49:AA,156.2180938720703,-76.53559875488281,124.95622253417969,-0.5663325786590576,-1.0050196647644043,8.536966323852539,1410.3873629570007
D4:22:CD:00:05:6E,95.98432922363281,-41.50699234008789,35.04435729980469,5.992823600769043,4.957907676696777,-5.966032028198242,1410.3873629570007
D4:22:CD:00:05:5E,156.16339111328125,-69.57231140136719,11.987642288208008,5.653985977172852,3.2129597663879395,4.0571184158325195,1410.3873629570007
D4:22:CD:00:05:5D,178.2064208984375,-55.73478698730469,-114.16153717041016,-0.5981440544128418,1.2543048858642578,2.1291427612304688,1410.41650223732
D4:22:CD:00:05:6B,-30.937763214111328,-0.9834145903587341,-13.389395713806152,-2.026730537414551,-6.939613342285156,12.641109466552734,1410.41650223732
D4:22:CD:00:49:AA,165.2964324951172,-76.5840835571289,118.50128173828125,-0.2087472379207611,2.0185694694519043,4.285429000854492,1410.41650223732
D4:22:CD:00:05:6E,100.238037109375,-53.77275466918945,43.2884407043457,-4.403934478759766,3.7042813301086426,-9.783599853515625,1410.41650223732
D4:22:CD:00:05:5E,148.17861938476562,-74.6036605834961,20.643497467041016,0.16125547885894775,10.57452392578125,3.605754852294922,1410.41650223732
D4:22:CD:00:05:5D,-178.91708374023438,-60.09988784790039,-116.33289337158203,-0.9849858283996582,1.996962547302246,3.5308713912963867,1410.4470844268799
D4:22:CD:00:05:6B,-16.499835968017578,5.455898284912109,-14.805553436279297,-1.2363920211791992,-16.060523986816406,1.0995569229125977,1410.4470844268799
D4:22:CD:00:49:AA,175.2754669189453,-77.03443145751953,111.64892578125,-2.320995807647705,2.551760673522949,-1.4793205261230469,1410.4470844268799
D4:22:CD:00:05:6E,108.62637329101562,-62.534759521484375,46.385066986083984,-10.183477401733398,0.012185143306851387,-12.742597579956055,1410.4470844268799
D4:22:CD:00:05:5E,-150.94439697265625,-82.22756958007812,-36.70852279663086,-1.5955231189727783,5.752384185791016,-1.7418231964111328,1410.4470844268799
D4:22:CD:00:05:5D,-178.464599609375,-66.65689849853516,-113.69649505615234,-9.352922439575195,1.7056281566619873,6.5479888916015625,1410.4773514270782
D4:22:CD:00:05:6B,-1.0472559928894043,16.974414825439453,-15.371552467346191,2.2189197540283203,-16.41748046875,-16.50393295288086,1410.4773514270782
D4:22:CD:00:49:AA,-171.60995483398438,-77.04978942871094,102.81019592285156,-5.898777008056641,-0.8746142387390137,-6.4099626541137695,1410.4773514270782
D4:22:CD:00:05:6E,121.92008209228516,-71.96234130859375,40.4940185546875,-8.87553596496582,1.906229019165039,-15.300971984863281,1410.4773514270782
D4:22:CD:00:05:5E,-94.7065200805664,-77.58472442626953,-93.1987533569336,0.8408479690551758,5.627372741699219,-7.691537857055664,1410.4773514270782
D4:22:CD:00:05:5D,173.75401306152344,-74.60794830322266,-102.34576416015625,-1.9042439460754395,-8.971002578735352,6.602876663208008,1410.5073597431183
D4:22:CD:00:05:6B,6.380025863647461,29.167804718017578,-13.955479621887207,0.9416359663009644,2.3300743103027344,-18.838794708251953,1410.5073597431183
D4:22:CD:00:49:AA,-157.50115966796875,-76.353759765625,91.69889068603516,1.23757004737854,0.0838882327079773,-9.608980178833008,1410.5073597431183
D4:22:CD:00:05:6E,171.34463500976562,-82.04379272460938,-2.0424530506134033,-5.951531410217285,-0.06041112542152405,-11.94218635559082,1410.5073597431183
D4:22:CD:00:05:5E,-74.66020965576172,-69.90087890625,-117.20214080810547,1.32108473777771,4.135005950927734,-9.198722839355469,1410.5073597431183
D4:22:CD:00:05:5D,162.33248901367188,-75.51605224609375,-79.04058837890625,4.769640922546387,5.811163902282715,-5.659903526306152,1410.5373616218567
D4:22:CD:00:05:6B,4.144496917724609,39.514530181884766,-12.33977222442627,-2.2256078720092773,-2.63582181930542,-15.836288452148438,1410.5373616218567
D4:22:CD:00:49:AA,-152.27862548828125,-76.20977783203125,87.87870788574219,7.539972305297852,0.07527491450309753,-10.229135513305664,1410.5373616218567
D4:22:CD:00:05:6E,-100.6885986328125,-76.08714294433594,-82.29374694824219,-2.549361228942871,-3.160020351409912,-7.359912872314453,1410.5373616218567
D4:22:CD:00:05:5E,-65.87384796142578,-61.78795623779297,-132.84767150878906,-2.145263195037842,4.7605133056640625,-9.89974594116211,1410.5373616218567
D4:22:CD:00:05:5D,161.3860626220703,-69.67217254638672,-67.62663269042969,6.4260406494140625,4.449446678161621,-5.488666534423828,1410.5669932365417
D4:22:CD:00:05:6B,1.3969814777374268,48.89388656616211,-13.196995735168457,-1.779442548751831,-3.840423107147217,-14.579900741577148,1410.5669932365417
D4:22:CD:00:49:AA,-152.69277954101562,-77.81383514404297,89.50260925292969,-0.13753879070281982,0.5403523445129395,-6.391543388366699,1410.5669932365417
D4:22:CD:00:05:6E,-74.34856414794922,-63.38337707519531,-98.08875274658203,-0.24961328506469727,-8.513916015625,-5.158856391906738,1410.5669932365417
D4:22:CD:00:05:5E,-62.062992095947266,-54.06855010986328,-144.4051513671875,-7.686200141906738,3.3465371131896973,-10.227411270141602,1410.5669932365417
D4:22:CD:00:05:5D,159.54336547851562,-66.23970794677734,-64.11469268798828,1.408250093460083,-10.4039306640625,-13.228416442871094,1410.5971562862396
D4:22:CD:00:05:6B,-4.3567352294921875,57.26993179321289,-22.157421112060547,2.4409255981445312,5.028624534606934,-10.411689758300781,1410.5971562862396
D4:22:CD:00:49:AA,-149.5548553466797,-80.45692443847656,87.22357940673828,-1.637476921081543,0.4322414994239807,-9.31794548034668,1410.5971562862396
D4:22:CD:00:05:6E,-58.010040283203125,-52.80568313598633,-100.43767547607422,1.7503180503845215,-8.104440689086914,-9.34608268737793,1410.5971562862396
D4:22:CD:00:05:5E,-63.02238845825195,-47.942588806152344,-151.9033660888672,-15.541955947875977,2.4557442665100098,-9.829351425170898,1410.5971562862396
D4:22:CD:00:05:5D,154.0871124267578,-68.36988067626953,-63.765689849853516,7.067627906799316,4.020140647888184,-9.567159652709961,1410.6869361400604
D4:22:CD:00:05:6B,-21.986190795898438,61.30530548095703,-49.88092803955078,-0.9523824453353882,3.1164937019348145,-11.364168167114258,1410.6869361400604
D4:22:CD:00:49:AA,-144.22732543945312,-81.95902252197266,82.366455078125,2.5667738914489746,0.6595577001571655,-7.32879638671875,1410.6869361400604
D4:22:CD:00:05:6E,-48.29305648803711,-45.154624938964844,-98.38998413085938,5.138184547424316,-10.488847732543945,-12.905811309814453,1410.6869361400604
D4:22:CD:00:05:5E,-66.9949951171875,-44.138946533203125,-154.5327606201172,-21.198780059814453,6.579972267150879,-12.663986206054688,1410.6869361400604
D4:22:CD:00:05:5D,154.11732482910156,-67.35639190673828,-65.46208953857422,1.544316291809082,-2.1509032249450684,-2.9330620765686035,1410.6919944286346
D4:22:CD:00:05:6B,-40.27336502075195,51.56688690185547,-85.63127136230469,-3.5218005180358887,-10.658500671386719,-24.881542205810547,1410.6919944286346
D4:22:CD:00:49:AA,-140.95848083496094,-83.78921508789062,78.12010192871094,1.96915602684021,1.567030668258667,-1.791642189025879,1410.6919944286346
D4:22:CD:00:05:6E,-49.263153076171875,-39.78488540649414,-95.16568756103516,3.5369033813476562,-8.735036849975586,-11.54345703125,1410.6919944286346
D4:22:CD:00:05:5E,-75.55867767333984,-44.096500396728516,-150.9097137451172,-21.569896697998047,8.117321014404297,-17.671390533447266,1410.6919944286346
D4:22:CD:00:05:5D,155.54104614257812,-65.49849700927734,-65.60669708251953,0.04525063931941986,-5.232475280761719,-1.031437873840332,1410.7172331809998
D4:22:CD:00:05:6B,-32.14512634277344,39.25067901611328,-103.80020904541016,-21.334552764892578,-4.433676719665527,-19.380706787109375,1410.7172331809998
D4:22:CD:00:49:AA,-144.26268005371094,-84.35076904296875,78.3061752319336,-0.17907455563545227,-0.8276691436767578,1.3391828536987305,1410.7172331809998
D4:22:CD:00:05:6E,-53.736572265625,-36.060726165771484,-92.07980346679688,4.147703170776367,-10.13448715209961,-7.456500053405762,1410.7172331809998
D4:22:CD:00:05:5E,-88.7843017578125,-46.822269439697266,-140.59246826171875,-24.285938262939453,9.731805801391602,-13.962850570678711,1410.7172331809998
D4:22:CD:00:05:5D,155.45095825195312,-63.42899703979492,-63.47575759887695,1.0662720203399658,-6.243300437927246,1.162942886352539,1410.7482352256775
D4:22:CD:00:05:6B,-24.276508331298828,37.93061065673828,-99.18438720703125,-5.545853614807129,6.536487579345703,-5.43018913269043,1410.7482352256775
D4:22:CD:00:49:AA,-148.79629516601562,-85.1497802734375,79.07012176513672,-5.268608093261719,-1.9670324325561523,4.968269348144531,1410.7482352256775
D4:22:CD:00:05:6E,-55.943748474121094,-33.39435958862305,-89.19367218017578,3.312303066253662,-14.008527755737305,-5.091207504272461,1410.7482352256775
D4:22:CD:00:05:5E,-105.17060852050781,-48.406978607177734,-126.37613677978516,0.478019118309021,-16.988746643066406,-0.7368488311767578,1410.7482352256775
D4:22:CD:00:05:5D,153.9018096923828,-61.51606369018555,-60.80680465698242,4.01280403137207,-1.5584197044372559,4.974543571472168,1410.776242017746
D4:22:CD:00:05:6B,-15.507597923278809,39.24808883666992,-85.59485626220703,-5.060419082641602,-12.292715072631836,-10.408599853515625,1410.776242017746
D4:22:CD:00:49:AA,-152.03794860839844,-86.0348892211914,78.85636138916016,-6.972084999084473,-2.786008358001709,5.947429656982422,1410.776242017746
D4:22:CD:00:05:6E,-57.24357604980469,-32.38078308105469,-85.34754180908203,7.683072090148926,-21.686630249023438,-3.8984837532043457,1410.776242017746
D4:22:CD:00:05:5E,-109.21810150146484,-50.9311637878418,-117.51172637939453,-3.1068572998046875,-32.63286590576172,-10.48104476928711,1410.776242017746
D4:22:CD:00:05:5D,149.1602783203125,-60.55229949951172,-56.895347595214844,0.22327646613121033,-1.7678635120391846,5.7014970779418945,1410.80681848526
D4:22:CD:00:05:6B,-7.716970443725586,37.08834457397461,-65.67390441894531,-4.08283805847168,-18.627578735351562,-17.17670440673828,1410.80681848526
D4:22:CD:00:49:AA,-153.0774383544922,-85.12818145751953,76.69920349121094,1.434899091720581,-1.9257593154907227,1.2786693572998047,1410.80681848526
D4:22:CD:00:05:6E,-62.714454650878906,-34.68292236328125,-82.29135131835938,11.074806213378906,-17.514442443847656,-7.017075538635254,1410.80681848526
D4:22:CD:00:05:5E,-122.35234832763672,-52.345272064208984,-108.10674285888672,3.2948455810546875,-5.848221778869629,11.881584167480469,1410.80681848526
D4:22:CD:00:05:5D,141.08660888671875,-59.84117126464844,-52.543067932128906,2.0688729286193848,-4.986789703369141,5.037761688232422,1410.837821006775
D4:22:CD:00:05:6B,-2.0651979446411133,31.69318389892578,-48.022029876708984,-7.09163761138916,-12.081069946289062,-1.397256851196289,1410.837821006775
D4:22:CD:00:49:AA,-153.94650268554688,-82.45906829833984,73.44910430908203,9.531225204467773,-1.5191340446472168,2.9627208709716797,1410.837821006775
D4:22:CD:00:05:6E,-76.39598083496094,-39.50598907470703,-79.32315063476562,0.5828151702880859,-13.018831253051758,-4.907849311828613,1410.837821006775
D4:22:CD:00:05:5E,-132.18756103515625,-53.136940002441406,-100.3126220703125,-1.0837242603302002,3.007749080657959,-1.8093738555908203,1410.837821006775
D4:22:CD:00:05:5D,132.85543823242188,-58.1910285949707,-50.3782958984375,7.781806945800781,-6.396304130554199,4.16811466217041,1410.8668217658997
D4:22:CD:00:05:6B,1.2396279573440552,24.399587631225586,-34.33127212524414,-7.193757057189941,1.2488644123077393,3.8186569213867188,1410.8668217658997
D4:22:CD:00:49:AA,-156.66806030273438,-79.88740539550781,69.6608657836914,11.133724212646484,-1.1935577392578125,0.35321521759033203,1410.8668217658997
D4:22:CD:00:05:6E,-93.67090606689453,-43.37666320800781,-74.2386474609375,-0.9782829284667969,-2.584038734436035,6.004395484924316,1410.8668217658997
D4:22:CD:00:05:5E,-136.3800048828125,-54.1793098449707,-95.46676635742188,-3.3449220657348633,-6.659479141235352,1.6594905853271484,1410.8668217658997
D4:22:CD:00:05:5D,126.1431884765625,-57.56902313232422,-52.08149337768555,11.174383163452148,-0.24055469036102295,4.620002746582031,1410.8970642089844
D4:22:CD:00:05:6B,-2.7388932704925537,16.57341957092285,-21.791032791137695,-9.654129028320312,3.8308048248291016,4.400705337524414,1410.8970642089844
D4:22:CD:00:49:AA,-161.6459503173828,-78.47730255126953,68.29407501220703,-1.2911863327026367,-0.5435656309127808,0.4921083450317383,1410.8970642089844
D4:22:CD:00:05:6E,-92.70903778076172,-43.95321273803711,-73.47301483154297,8.837173461914062,7.415416717529297,8.386079788208008,1410.8970642089844
D4:22:CD:00:05:5E,-139.3929901123047,-54.371421813964844,-92.07440948486328,-4.592959403991699,-5.089996337890625,-2.3672919273376465,1410.8970642089844
D4:22:CD:00:05:5D,123.75608825683594,-57.58575439453125,-61.17313003540039,19.925575256347656,13.775382995605469,2.627748489379883,1410.957249879837
D4:22:CD:00:05:6B,-10.838330268859863,9.361294746398926,-9.101418495178223,-4.533136367797852,17.231395721435547,0.01970672607421875,1410.957249879837
D4:22:CD:00:49:AA,-162.830078125,-78.2477798461914,68.62786102294922,-7.276235580444336,4.923159599304199,3.9327926635742188,1410.957249879837
D4:22:CD:00:05:6E,-84.11540222167969,-41.96004867553711,-76.31974792480469,-3.6667985916137695,-11.575511932373047,-5.287363052368164,1410.957249879837
D4:22:CD:00:05:5E,-141.7557830810547,-54.41377258300781,-90.07093811035156,-3.281247138977051,-3.264155864715576,-0.05187702178955078,1410.957249879837
D4:22:CD:00:05:5D,132.80828857421875,-52.978736877441406,-77.29425811767578,14.384294509887695,10.845270156860352,3.379709243774414,1410.9869890213013
D4:22:CD:00:05:6B,-34.34504318237305,2.775346279144287,2.0026540756225586,-8.737895965576172,10.474796295166016,-13.114662170410156,1410.9869890213013
D4:22:CD:00:49:AA,-157.99166870117188,-78.92184448242188,64.94795227050781,3.7233057022094727,1.2569115161895752,1.1603593826293945,1410.9869890213013
D4:22:CD:00:05:6E,-84.91838073730469,-40.28964614868164,-78.68257904052734,-4.893125534057617,-13.197826385498047,-5.212249755859375,1410.9869890213013
D4:22:CD:00:05:5E,-143.195068359375,-55.05031967163086,-88.5461196899414,-1.9917080402374268,-3.1434574127197266,0.19778919219970703,1410.9869890213013
D4:22:CD:00:05:5D,141.80126953125,-46.1255989074707,-93.71768951416016,7.156499862670898,2.3547654151916504,-0.8580408096313477,1411.0169944763184
D4:22:CD:00:05:6B,-56.77146530151367,-4.872925758361816,10.577542304992676,2.113708972930908,-2.7287111282348633,6.575078964233398,1411.0169944763184
D4:22:CD:00:49:AA,-154.39210510253906,-79.438232421875,62.67913818359375,8.550695419311523,0.3224947452545166,0.3525257110595703,1411.0169944763184
D4:22:CD:00:05:6E,-91.75067138671875,-39.541358947753906,-80.48721313476562,-4.640876770019531,-10.114080429077148,-3.749556064605713,1411.0169944763184
D4:22:CD:00:05:5E,-144.75376892089844,-56.18503952026367,-86.7112045288086,-1.7700867652893066,-3.0404133796691895,0.3939018249511719,1411.0169944763184
D4:22:CD:00:05:5D,148.1721649169922,-38.015655517578125,-107.1304702758789,1.1775178909301758,-1.9605917930603027,-4.768031120300293,1411.047483921051
D4:22:CD:00:05:6B,-66.8462905883789,-13.636589050292969,18.261350631713867,1.2649345397949219,0.8075886964797974,4.830517768859863,1411.047483921051
D4:22:CD:00:49:AA,-156.78131103515625,-79.85598754882812,65.4571762084961,3.426689624786377,0.4504331350326538,-1.1501293182373047,1411.047483921051
D4:22:CD:00:05:6E,-97.47232055664062,-39.801082611083984,-82.09142303466797,-0.43457144498825073,-7.203804016113281,-2.6867666244506836,1411.047483921051
D4:22:CD:00:05:5E,-145.68162536621094,-57.828575134277344,-84.71427917480469,-2.071809768676758,-3.5586533546447754,-0.48079872131347656,1411.047483921051
D4:22:CD:00:05:5D,153.3512420654297,-30.077550888061523,-116.9388198852539,-2.0783114433288574,-1.6505539417266846,-8.615230560302734,1411.0769414901733
D4:22:CD:00:05:6B,-74.01988220214844,-20.648651123046875,26.02996826171875,-0.2645382881164551,-0.5879275798797607,8.184120178222656,1411.0769414901733
D4:22:CD:00:49:AA,-157.9085693359375,-79.77880096435547,67.09390258789062,0.42146116495132446,0.18163177371025085,-2.1257705688476562,1411.0769414901733
D4:22:CD:00:05:6E,-96.80242156982422,-41.48337173461914,-84.30856323242188,0.3407370448112488,-5.992877006530762,-4.011223793029785,1411.0769414901733
D4:22:CD:00:05:5E,-145.93890380859375,-59.39024353027344,-82.9319839477539,-3.287956714630127,-4.586740493774414,-2.353198528289795,1411.0769414901733
D4:22:CD:00:05:5D,159.59085083007812,-23.7811279296875,-124.04902648925781,0.14008963108062744,-2.0629191398620605,-8.505231857299805,1411.1070609092712
D4:22:CD:00:05:6B,-72.75822448730469,-27.786128997802734,31.400463104248047,-1.58062744140625,0.235498309135437,3.316317558288574,1411.1070609092712
D4:22:CD:00:49:AA,-155.54405212402344,-79.1739501953125,66.46826934814453,1.0406460762023926,-0.8511584997177124,-4.4932661056518555,1411.1070609092712
D4:22:CD:00:05:6E,-90.3226318359375,-44.464942932128906,-87.21167755126953,0.015195416286587715,-5.804308891296387,-4.892394065856934,1411.1070609092712
D4:22:CD:00:05:5E,-146.01304626464844,-59.98843765258789,-81.63386535644531,-3.1042895317077637,-5.303518295288086,-3.519280433654785,1411.1070609092712
D4:22:CD:00:05:5D,165.80418395996094,-20.722463607788086,-129.7894744873047,-5.182121276855469,-1.803252935409546,-9.15560531616211,1411.137223482132
D4:22:CD:00:05:6B,-65.1917495727539,-37.949066162109375,33.90322494506836,3.7502336502075195,2.8359150886535645,-2.846656322479248,1411.137223482132
D4:22:CD:00:49:AA,-151.87730407714844,-78.6846923828125,64.83157348632812,2.9962892532348633,-2.060534954071045,-6.822261810302734,1411.137223482132
D4:22:CD:00:05:6E,-80.60883331298828,-48.35367965698242,-91.39492797851562,-0.8121678829193115,-5.46843147277832,-6.559459686279297,1411.137223482132
D4:22:CD:00:05:5E,-145.39486694335938,-59.06003189086914,-80.5440673828125,-0.7458701133728027,-6.2790679931640625,-2.672973155975342,1411.137223482132
D4:22:CD:00:05:5D,167.43572998046875,-21.877756118774414,-134.36422729492188,-12.054647445678711,-2.035983085632324,-13.907472610473633,1411.1672339439392
D4:22:CD:00:05:6B,-56.90365219116211,-51.8995361328125,33.90243148803711,8.979503631591797,6.676617622375488,3.99478816986084,1411.1672339439392
D4:22:CD:00:49:AA,-150.13259887695312,-78.18545532226562,63.948123931884766,4.923651695251465,0.1717883050441742,-7.093416213989258,1411.1672339439392
D4:22:CD:00:05:6E,-69.9914779663086,-52.742759704589844,-96.93680572509766,-1.3438968658447266,-5.025202751159668,-7.58742618560791,1411.1672339439392
D4:22:CD:00:05:5E,-145.58941650390625,-56.3392448425293,-79.68596649169922,-5.266070365905762,-3.992368698120117,-3.601400375366211,1411.1672339439392
D4:22:CD:00:05:5D,164.2296142578125,-26.270387649536133,-136.13851928710938,-9.988485336303711,5.975826263427734,4.3887176513671875,1411.1969408988953
D4:22:CD:00:05:6B,-40.93889236450195,-64.33108520507812,25.55953598022461,5.308819770812988,10.3179931640625,23.363224029541016,1411.1969408988953
D4:22:CD:00:49:AA,-150.0786895751953,-78.36493682861328,63.285030364990234,1.6123988628387451,1.8407831192016602,-2.6370668411254883,1411.1969408988953
D4:22:CD:00:05:6E,-58.36319351196289,-57.706233978271484,-103.46197509765625,-3.2531943321228027,-4.598210334777832,-7.768853187561035,1411.1969408988953
D4:22:CD:00:05:5E,-149.48365783691406,-51.664546966552734,-77.94593048095703,-5.208672523498535,-1.4960787296295166,-3.6237568855285645,1411.1969408988953
D4:22:CD:00:05:5D,164.33511352539062,-27.275310516357422,-134.62353515625,-9.515619277954102,-7.148609161376953,7.885562896728516,1411.2573642730713
D4:22:CD:00:05:6B,-31.28322982788086,-65.97602081298828,17.06916618347168,10.858638763427734,12.591791152954102,3.9274520874023438,1411.2573642730713
D4:22:CD:00:49:AA,-143.93565368652344,-78.91988372802734,57.09315490722656,-5.118803024291992,0.5834009647369385,2.647096633911133,1411.2573642730713
D4:22:CD:00:05:6E,-40.68170166015625,-65.88489532470703,-112.53682708740234,-2.850369453430176,-13.867053985595703,-6.270086288452148,1411.2573642730713
D4:22:CD:00:05:5E,-152.74208068847656,-46.963768005371094,-76.57678985595703,-4.214223861694336,-7.255971908569336,-0.17038345336914062,1411.2573642730713
D4:22:CD:00:05:5D,171.21600341796875,-29.09271240234375,-132.093994140625,-15.898324966430664,-13.611595153808594,0.3915901184082031,1411.2870109081268
D4:22:CD:00:05:6B,-52.760597229003906,-57.02507400512695,26.228878021240234,19.293434143066406,3.673884868621826,8.18248176574707,1411.2870109081268
D4:22:CD:00:49:AA,-137.32310485839844,-79.41749572753906,51.722904205322266,-2.5386128425598145,0.9307334423065186,9.221193313598633,1411.2870109081268
D4:22:CD:00:05:6E,1.8112441301345825,-75.03938293457031,-143.2235565185547,-0.5234295129776001,-19.199932098388672,6.371198654174805,1411.2870109081268
D4:22:CD:00:05:5E,-154.81271362304688,-44.295204162597656,-75.56842041015625,-2.9282498359680176,-1.759432077407837,0.8971757888793945,1411.2870109081268
D4:22:CD:00:05:5D,173.68247985839844,-29.606224060058594,-128.37217712402344,-18.086620330810547,-11.719053268432617,13.841615676879883,1411.3169257640839
D4:22:CD:00:05:6B,-64.46755981445312,-42.23625183105469,28.5035457611084,15.012420654296875,-0.6277189254760742,20.97152328491211,1411.3169257640839
D4:22:CD:00:49:AA,-134.9762420654297,-79.93659210205078,51.10277557373047,4.81641960144043,0.466818630695343,7.214422225952148,1411.3169257640839
D4:22:CD:00:05:6E,70.40106964111328,-73.6298599243164,157.8995819091797,8.745948791503906,-33.53742980957031,4.610866546630859,1411.3169257640839
D4:22:CD:00:05:5E,-156.70867919921875,-43.5513801574707,-75.01837158203125,-3.4021573066711426,-3.335461139678955,0.5215873718261719,1411.3169257640839
D4:22:CD:00:05:5D,172.80064392089844,-25.551218032836914,-125.07010650634766,-14.591344833374023,-16.730995178222656,14.157642364501953,1411.347107887268
D4:22:CD:00:05:6B,-61.06789016723633,-30.986949920654297,24.765262603759766,13.1385498046875,6.38671875,1.7510261535644531,1411.347107887268
D4:22:CD:00:49:AA,-138.29542541503906,-79.84754943847656,55.24515151977539,5.3819580078125,1.7694900035858154,6.190376281738281,1411.347107887268
D4:22:CD:00:05:6E,97.05126953125,-61.240234375,126.90866088867188,21.749202728271484,-29.967998504638672,19.20101547241211,1411.347107887268
D4:22:CD:00:05:5E,-157.6788330078125,-44.150875091552734,-75.50099182128906,-2.8616557121276855,-3.8957724571228027,1.4160537719726562,1411.347107887268
D4:22:CD:00:05:5D,171.70986938476562,-20.534252166748047,-123.7603759765625,-12.608936309814453,-14.338926315307617,3.732489585876465,1411.3766872882843
D4:22:CD:00:05:6B,-63.432376861572266,-24.495616912841797,20.46517562866211,4.8089141845703125,-1.740041732788086,-0.3322610855102539,1411.3766872882843
D4:22:CD:00:49:AA,-144.54042053222656,-79.62184143066406,61.24504852294922,4.503789901733398,1.2762906551361084,6.759172439575195,1411.3766872882843
D4:22:CD:00:05:6E,94.95625305175781,-43.94187927246094,111.2322769165039,11.187583923339844,-13.974201202392578,25.12639617919922,1411.3766872882843
D4:22:CD:00:05:5E,-158.3333282470703,-46.000362396240234,-76.44122314453125,-2.4374547004699707,-3.5774636268615723,1.4022350311279297,1411.3766872882843
D4:22:CD:00:05:5D,172.9810333251953,-18.256044387817383,-122.22351837158203,-9.89190673828125,-5.176905632019043,3.009672164916992,1411.4072794914246
D4:22:CD:00:05:6B,-64.89263153076172,-24.109539031982422,15.5066556930542,-0.08047574758529663,-2.1542935371398926,-0.8055667877197266,1411.4072794914246
D4:22:CD:00:49:AA,-154.27735900878906,-79.22801208496094,70.08477783203125,6.744351387023926,2.05881929397583,6.493930816650391,1411.4072794914246
D4:22:CD:00:05:6E,84.45209503173828,-27.305540084838867,99.769775390625,0.8563296794891357,4.062002182006836,7.754863739013672,1411.4072794914246
D4:22:CD:00:05:5E,-159.0487823486328,-49.4017333984375,-77.51148986816406,-3.469292163848877,-3.708707332611084,1.776606559753418,1411.4072794914246
D4:22:CD:00:05:5D,174.60214233398438,-17.116552352905273,-121.7349853515625,-0.10599230229854584,3.644587516784668,14.185514450073242,1411.4366643428802
D4:22:CD:00:05:6B,-66.4394302368164,-27.770593643188477,10.698534965515137,-0.38913363218307495,0.45016831159591675,0.16498088836669922,1411.4366643428802
D4:22:CD:00:49:AA,-163.41378784179688,-78.91624450683594,77.39143371582031,4.424920082092285,2.075660228729248,4.843235015869141,1411.4366643428802
D4:22:CD:00:05:6E,76.349853515625,-17.217803955078125,91.6437759399414,0.24181419610977173,-5.4287261962890625,-2.823763847351074,1411.4366643428802
D4:22:CD:00:05:5E,-158.93263244628906,-55.01505661010742,-79.1206283569336,-1.8150811195373535,-4.713649749755859,5.264225959777832,1411.4366643428802
D4:22:CD:00:05:5D,173.47164916992188,-17.0738582611084,-122.49313354492188,-3.141448974609375,5.522757530212402,2.3819961547851562,1411.4676005840302
D4:22:CD:00:05:6B,-70.04949188232422,-33.448814392089844,5.610325813293457,-1.6773123741149902,-0.3571840524673462,1.5979804992675781,1411.4676005840302
D4:22:CD:00:49:AA,-172.73167419433594,-77.82103729248047,84.79020690917969,0.9721554517745972,-0.14827916026115417,1.6313896179199219,1411.4676005840302
D4:22:CD:00:05:6E,68.25540161132812,-13.165742874145508,86.99059295654297,-9.244928359985352,-6.896767616271973,-4.738767623901367,1411.4676005840302
D4:22:CD:00:05:5E,-153.58055114746094,-63.892669677734375,-82.75116729736328,3.4919300079345703,-13.697378158569336,7.399648666381836,1411.4676005840302
D4:22:CD:00:05:5D,170.0914306640625,-18.63257598876953,-123.30533599853516,0.382477343082428,5.921978950500488,-3.3383383750915527,1411.4970104694366
D4:22:CD:00:05:6B,-72.74571228027344,-40.220577239990234,-0.43695583939552307,-2.545750617980957,0.25784552097320557,1.1240167617797852,1411.4970104694366
D4:22:CD:00:49:AA,-179.2952880859375,-76.2398452758789,90.357177734375,-0.844707727432251,-0.9340840578079224,-3.2983832359313965,1411.4970104694366
D4:22:CD:00:05:6E,59.366085052490234,-11.995705604553223,85.37437438964844,-11.10845947265625,-3.885988712310791,-10.69765853881836,1411.4970104694366
D4:22:CD:00:05:5E,-138.94235229492188,-70.94636535644531,-90.6043472290039,-3.0081024169921875,-0.570258617401123,-0.4066343307495117,1411.4970104694366
D4:22:CD:00:05:5D,166.29486083984375,-22.15349006652832,-123.88534545898438,-0.03004930540919304,3.191941261291504,-13.32244873046875,1411.5573737621307
D4:22:CD:00:05:6B,-74.72161102294922,-46.454681396484375,-8.098692893981934,-2.5087666511535645,2.499274730682373,-1.1468515396118164,1411.5573737621307
D4:22:CD:00:49:AA,177.44358825683594,-74.99332427978516,93.74412536621094,-0.6932007074356079,-0.6938979625701904,-7.191407203674316,1411.5573737621307
D4:22:CD:00:05:6E,48.22312545776367,-12.39195728302002,85.51439666748047,-6.183784484863281,-1.8768117427825928,-15.141389846801758,1411.5573737621307
D4:22:CD:00:05:5E,-125.36624145507812,-73.09624481201172,-100.47559356689453,-7.158064842224121,6.67960262298584,-4.958011627197266,1411.5573737621307
D4:22:CD:00:05:5D,162.8966064453125,-27.898279190063477,-123.7847900390625,-4.431056976318359,-0.2708461880683899,-20.477859497070312,1411.617119550705
D4:22:CD:00:05:6B,-76.45393371582031,-51.35266876220703,-18.146764755249023,-1.8738257884979248,3.150857925415039,-3.837803363800049,1411.617119550705
D4:22:CD:00:49:AA,177.2505340576172,-74.44139862060547,94.2851333618164,0.8456426858901978,0.24654126167297363,-9.445030212402344,1411.617119550705
D4:22:CD:00:05:6E,36.448726654052734,-14.327804565429688,87.26655578613281,0.8352879285812378,-1.3567934036254883,-13.538703918457031,1411.617119550705
D4:22:CD:00:05:5E,-121.34105682373047,-69.97599029541016,-102.45433807373047,-7.600244522094727,3.9842734336853027,-7.449567794799805,1411.617119550705
D4:22:CD:00:05:5D,159.92198181152344,-36.32876205444336,-122.79508209228516,-7.070178031921387,-2.733250617980957,-18.993831634521484,1411.6471207141876
D4:22:CD:00:05:6B,-75.25714874267578,-54.55301284790039,-30.702516555786133,-2.7020201683044434,2.439815044403076,-5.509943008422852,1411.6471207141876
D4:22:CD:00:49:AA,177.63656616210938,-74.62496185302734,93.53106689453125,2.1301379203796387,0.11283411085605621,-9.008129119873047,1411.6471207141876
D4:22:CD:00:05:6E,25.94364356994629,-16.26149559020996,91.81952667236328,4.843088150024414,-1.308100700378418,-8.76291275024414,1411.6471207141876
D4:22:CD:00:05:5E,-127.23198699951172,-64.65079498291016,-100.77771759033203,-0.3241634964942932,-3.066606044769287,-10.502866744995117,1411.6471207141876
D4:22:CD:00:05:5D,155.91929626464844,-48.09295654296875,-120.16471862792969,-6.35589599609375,-4.2857513427734375,-13.589944839477539,1411.654138326645
D4:22:CD:00:05:6B,-69.70199584960938,-55.70368957519531,-44.28676986694336,-4.162370681762695,2.9785752296447754,-6.304616928100586,1411.654138326645
D4:22:CD:00:49:AA,176.58291625976562,-75.47933197021484,93.2235336303711,1.878629207611084,0.3579792380332947,-8.646316528320312,1411.654138326645
D4:22:CD:00:05:6E,14.968276023864746,-16.593891143798828,99.64404296875,3.589677333831787,0.1993180513381958,-7.144894599914551,1411.654138326645
D4:22:CD:00:05:5E,-135.0823211669922,-60.73148727416992,-100.4184799194336,-2.1132020950317383,-12.212587356567383,-13.372949600219727,1411.654138326645
D4:22:CD:00:05:5D,150.28347778320312,-62.14134216308594,-114.10079956054688,-1.5038890838623047,-3.2628540992736816,-3.171783924102783,1411.6771249771118
D4:22:CD:00:05:6B,-60.7164192199707,-54.89166259765625,-56.22901153564453,-4.349205017089844,3.2618050575256348,-7.784882545471191,1411.6771249771118
D4:22:CD:00:49:AA,175.17337036132812,-76.41398620605469,92.56033325195312,1.631310224533081,0.6812191009521484,-8.787364959716797,1411.6771249771118
D4:22:CD:00:05:6E,2.606856107711792,-12.857797622680664,110.87694549560547,-1.7810640335083008,1.188154935836792,-6.747305870056152,1411.6771249771118
D4:22:CD:00:05:5E,-142.2164306640625,-58.282196044921875,-98.86077880859375,-5.9349164962768555,-4.561039924621582,-3.264066696166992,1411.6771249771118
D4:22:CD:00:05:5D,132.20089721679688,-76.57665252685547,-93.89979553222656,2.1153039932250977,-4.558968544006348,9.765256881713867,1411.7073719501495
D4:22:CD:00:05:6B,-52.235599517822266,-52.9951057434082,-64.5476303100586,-4.08201789855957,3.034208297729492,-8.701025009155273,1411.7073719501495
D4:22:CD:00:49:AA,174.577392578125,-77.09851837158203,91.04222869873047,-0.29937100410461426,-1.2257180213928223,-4.623237609863281,1411.7073719501495
D4:22:CD:00:05:6E,-10.136479377746582,-2.9955856800079346,123.53238677978516,-13.235553741455078,10.485939025878906,-4.659981727600098,1411.7073719501495
D4:22:CD:00:05:5E,-142.79342651367188,-55.76035690307617,-98.51777648925781,-2.201305389404297,-9.778371810913086,-5.88385009765625,1411.7073719501495
D4:22:CD:00:05:5D,66.06217956542969,-80.11196899414062,-19.69894790649414,20.626445770263672,11.493072509765625,14.303634643554688,1411.7374782562256
D4:22:CD:00:05:6B,-43.72450256347656,-51.36407470703125,-68.71737670898438,-8.354742050170898,3.696319580078125,-7.779680252075195,1411.7374782562256
D4:22:CD:00:49:AA,177.13438415527344,-77.68157196044922,88.75062561035156,0.17932069301605225,-3.6311068534851074,-2.659341335296631,1411.7374782562256
D4:22:CD:00:05:6E,-7.7394890785217285,12.720610618591309,132.97755432128906,-14.477737426757812,30.906261444091797,-12.559673309326172,1411.7374782562256
D4:22:CD:00:05:5E,-143.5045928955078,-53.09603500366211,-99.23810577392578,-0.8654743432998657,-7.66322135925293,6.769086837768555,1411.7374782562256
D4:22:CD:00:05:5D,61.42351531982422,-76.06198120117188,-6.681889057159424,24.572044372558594,26.767349243164062,-18.304149627685547,1411.7671558856964
D4:22:CD:00:05:6B,-34.91098403930664,-50.892059326171875,-68.99331665039062,-6.402865409851074,1.6035594940185547,-7.632943153381348,1411.7671558856964
D4:22:CD:00:49:AA,-177.86329650878906,-75.37926483154297,85.26192474365234,11.74183464050293,1.4317212104797363,5.895874977111816,1411.7671558856964
D4:22:CD:00:05:6E,36.52014923095703,22.68937873840332,132.0161895751953,16.71005630493164,-27.50640106201172,-24.630760192871094,1411.7671558856964
D4:22:CD:00:05:5E,-142.625,-51.157142639160156,-101.69817352294922,-1.234135627746582,-16.015254974365234,11.15418815612793,1411.7671558856964
D4:22:CD:00:05:5D,92.23928833007812,-76.26260375976562,-34.57744216918945,6.900972366333008,-11.276691436767578,8.61021614074707,1411.7972288131714
D4:22:CD:00:05:6B,-32.53034591674805,-52.45795440673828,-66.18167114257812,-8.429044723510742,-0.5233097076416016,-3.5108389854431152,1411.7972288131714
D4:22:CD:00:49:AA,-174.99095153808594,-71.45195007324219,80.74307250976562,8.426464080810547,-5.805706024169922,17.487525939941406,1411.7972288131714
D4:22:CD:00:05:6E,79.40505981445312,32.67355728149414,119.96752166748047,-24.769058227539062,-7.971397399902344,8.438533782958984,1411.7972288131714
D4:22:CD:00:05:5E,-136.3927764892578,-51.48273849487305,-106.89580535888672,0.47187650203704834,-11.171773910522461,5.826237678527832,1411.7972288131714
D4:22:CD:00:05:5D,109.344482421875,-77.3915023803711,-57.26371383666992,3.757693290710449,-24.666419982910156,6.515871047973633,1411.8570866584778
D4:22:CD:00:05:6B,-33.151695251464844,-57.39982604980469,-61.50144958496094,-9.40884017944336,-3.7927465438842773,8.624185562133789,1411.8570866584778
D4:22:CD:00:49:AA,-173.3870391845703,-71.02255249023438,79.83197021484375,-5.551518440246582,-2.1390271186828613,6.576545715332031,1411.8570866584778
D4:22:CD:00:05:6E,89.77256774902344,38.74604034423828,104.3511962890625,-10.780731201171875,5.535533905029297,-13.770505905151367,1411.8570866584778
D4:22:CD:00:05:5E,-127.95564270019531,-49.73476791381836,-112.33480072021484,-7.796418190002441,-15.04310417175293,2.461453437805176,1411.8570866584778
D4:22:CD:00:05:5D,123.25677490234375,-76.61107635498047,-69.6257095336914,-0.7037832736968994,-0.9997398853302002,1.9625463485717773,1411.8867163658142
D4:22:CD:00:05:6B,-35.67692565917969,-63.704063415527344,-52.34281921386719,-4.234776496887207,-3.4018754959106445,11.376594543457031,1411.8867163658142
D4:22:CD:00:49:AA,-174.5762939453125,-71.05086517333984,84.53657531738281,-7.3838348388671875,3.0043487548828125,-2.5360403060913086,1411.8867163658142
D4:22:CD:00:05:6E,73.4089584350586,38.15363693237305,88.46977233886719,-7.592293739318848,-7.2633867263793945,-7.53239631652832,1411.8867163658142
D4:22:CD:00:05:5E,-119.91996765136719,-47.592796325683594,-114.75970458984375,-25.560535430908203,6.834529876708984,-8.455106735229492,1411.8867163658142
D4:22:CD:00:05:5D,136.4693603515625,-76.0595703125,-77.19906616210938,-5.486856460571289,5.518451690673828,4.2705793380737305,1411.9178411960602
D4:22:CD:00:05:6B,-45.688880920410156,-67.59969329833984,-35.59410095214844,-0.16235101222991943,-3.3136649131774902,9.583967208862305,1411.9178411960602
D4:22:CD:00:49:AA,-175.09365844726562,-69.14932250976562,88.70508575439453,-4.517701148986816,3.953113555908203,-1.1391820907592773,1411.9178411960602
D4:22:CD:00:05:6E,68.47773742675781,31.969236373901367,76.07926177978516,-2.8446125984191895,-14.278289794921875,-0.05988597869873047,1411.9178411960602
D4:22:CD:00:05:5E,-119.00641632080078,-43.943458557128906,-111.07707977294922,-23.949737548828125,4.740555763244629,0.06425094604492188,1411.9178411960602
D4:22:CD:00:05:5D,144.7731475830078,-76.27454376220703,-85.34109497070312,-0.9201138019561768,-0.3848097324371338,1.4976577758789062,1411.9469332695007
D4:22:CD:00:05:6B,-56.54514694213867,-67.33224487304688,-19.073232650756836,3.506559371948242,-3.5640597343444824,6.145310401916504,1411.9469332695007
D4:22:CD:00:49:AA,-175.8103790283203,-68.4309310913086,90.67134094238281,1.4191932678222656,1.3693523406982422,3.8837976455688477,1411.9469332695007
D4:22:CD:00:05:6E,64.98896789550781,23.72704315185547,64.88735961914062,2.9347715377807617,-12.930177688598633,-4.035597801208496,1411.9469332695007
D4:22:CD:00:05:5E,-119.91641998291016,-39.083343505859375,-102.8940658569336,-19.630638122558594,-0.5973771810531616,-2.889842987060547,1411.9469332695007
D4:22:CD:00:05:5D,151.5614776611328,-76.97515869140625,-92.6864242553711,1.7077598571777344,0.8654946088790894,0.7052230834960938,1411.9772119522095
D4:22:CD:00:05:6B,-61.565940856933594,-65.37843322753906,-9.37036418914795,3.876286506652832,-1.1651761531829834,1.2185888290405273,1411.9772119522095
D4:22:CD:00:49:AA,179.86825561523438,-68.48056030273438,94.16912841796875,-2.5066795349121094,2.0329513549804688,1.3511466979980469,1411.9772119522095
D4:22:CD:00:05:6E,67.12198638916016,15.491193771362305,56.076351165771484,7.952140808105469,-12.345842361450195,-8.569387435913086,1411.9772119522095
D4:22:CD:00:05:5E,-125.50252532958984,-33.28473663330078,-92.59586334228516,-10.122032165527344,-3.328803539276123,-5.939421653747559,1411.9772119522095
D4:22:CD:00:05:5D,157.03140258789062,-78.02141571044922,-97.95046997070312,2.3790125846862793,0.7929551601409912,0.8507480621337891,1412.0071246623993
D4:22:CD:00:05:6B,-65.44218444824219,-63.8557243347168,-4.496833801269531,2.0736632347106934,-0.12372702360153198,-2.640212059020996,1412.0071246623993
D4:22:CD:00:49:AA,176.2119903564453,-68.19393157958984,97.81681823730469,-5.1261138916015625,1.8838825225830078,0.41742610931396484,1412.0071246623993
D4:22:CD:00:05:6E,73.62519073486328,8.563905715942383,50.68399429321289,15.498678207397461,-16.733360290527344,-7.802847862243652,1412.0071246623993
D4:22:CD:00:05:5E,-132.62753295898438,-28.128162384033203,-82.82671356201172,-2.199129581451416,-1.1762762069702148,-9.886188507080078,1412.0071246623993
D4:22:CD:00:05:5D,162.2893829345703,-79.39112091064453,-102.3209228515625,1.7914886474609375,0.743096113204956,0.42386817932128906,1412.0372159481049
D4:22:CD:00:05:6B,-69.33599090576172,-63.31220626831055,-1.9827691316604614,-2.072347640991211,-0.4406461715698242,-2.577897548675537,1412.0372159481049
D4:22:CD:00:49:AA,175.23280334472656,-68.2012939453125,98.6120834350586,-2.9946441650390625,0.7227270603179932,-1.075246810913086,1412.0372159481049
D4:22:CD:00:05:6E,83.2253189086914,1.3755496740341187,49.302608489990234,-4.779336929321289,-4.2901458740234375,-2.3974738121032715,1412.0372159481049
D4:22:CD:00:05:5E,-141.04981994628906,-24.45673370361328,-74.64103698730469,0.35046058893203735,2.1374001502990723,-11.219587326049805,1412.0372159481049
D4:22:CD:00:05:5D,168.21096801757812,-80.8153076171875,-107.55476379394531,-0.16895657777786255,0.6497666835784912,0.4265117645263672,1412.097320318222
D4:22:CD:00:05:6B,-70.88880157470703,-63.60546112060547,-1.1286838054656982,-0.8723876476287842,-0.5134921073913574,-3.7775020599365234,1412.097320318222
D4:22:CD:00:49:AA,174.3917999267578,-68.24815368652344,99.68208312988281,-0.7086211442947388,1.5805950164794922,-1.8468284606933594,1412.097320318222
D4:22:CD:00:05:6E,84.11164855957031,-6.351733684539795,47.060333251953125,-5.109947204589844,-5.8923234939575195,-0.6672039031982422,1412.097320318222
D4:22:CD:00:05:5E,-149.46200561523438,-23.229398727416992,-67.83000946044922,2.584789752960205,1.99540114402771,-9.562625885009766,1412.097320318222
D4:22:CD:00:05:5D,174.57359313964844,-81.94735717773438,-113.65776062011719,0.5451372861862183,-1.5124790668487549,-0.5881376266479492,1412.1044964790344
D4:22:CD:00:05:6B,-72.59358215332031,-64.05896759033203,-1.6922571659088135,-0.20587000250816345,-0.005633629858493805,-4.277782440185547,1412.1044964790344
D4:22:CD:00:49:AA,171.6715850830078,-68.64480590820312,102.41542053222656,0.44991981983184814,1.2613234519958496,-3.8523941040039062,1412.1044964790344
D4:22:CD:00:05:6E,90.82803344726562,-12.101582527160645,43.17400360107422,0.22474896907806396,-4.4842939376831055,-5.152749061584473,1412.1044964790344
D4:22:CD:00:05:5E,-155.1211700439453,-25.24930763244629,-61.65938186645508,5.729401588439941,-0.0589059442281723,-5.896042823791504,1412.1044964790344
D4:22:CD:00:05:5D,179.94842529296875,-82.334716796875,-118.55638885498047,-0.861224889755249,-2.767190933227539,-1.0710430145263672,1412.1572937965393
D4:22:CD:00:05:6B,-73.82710266113281,-64.26795959472656,-3.606816291809082,-2.420888900756836,-0.034728288650512695,-2.762449264526367,1412.1572937965393
D4:22:CD:00:49:AA,168.08126831054688,-69.10206604003906,104.65103912353516,1.4523706436157227,0.6945135593414307,-4.892336845397949,1412.1572937965393
D4:22:CD:00:05:6E,103.70364379882812,-16.366342544555664,37.43031311035156,-2.5209174156188965,0.661408543586731,-1.4487686157226562,1412.1572937965393
D4:22:CD:00:05:5E,-157.28158569335938,-29.686588287353516,-55.945682525634766,8.193639755249023,-2.0257673263549805,-0.20549392700195312,1412.1572937965393
D4:22:CD:00:05:5D,-179.97994995117188,-81.57797241210938,-118.36460876464844,0.4879341125488281,-4.240198135375977,-1.4751319885253906,1412.1870296001434
D4:22:CD:00:05:6B,-68.3509292602539,-63.67753219604492,-9.508743286132812,-3.0816335678100586,5.874296188354492,1.1509828567504883,1412.1870296001434
D4:22:CD:00:49:AA,163.2185516357422,-69.3063735961914,107.7579116821289,0.6691808700561523,-0.9427675008773804,-3.5394349098205566,1412.1870296001434
D4:22:CD:00:05:6E,114.48479461669922,-20.266517639160156,28.019746780395508,1.6184778213500977,-0.5975502729415894,-2.066878318786621,1412.1870296001434
D4:22:CD:00:05:5E,-156.96482849121094,-35.05085754394531,-51.836219787597656,13.713050842285156,-3.6313395500183105,-1.4607439041137695,1412.1870296001434
D4:22:CD:00:05:5D,177.09974670410156,-79.4978256225586,-113.78524017333984,2.61509370803833,-2.899503231048584,-1.4629487991333008,1412.2170610427856
D4:22:CD:00:05:6B,-61.03292465209961,-61.14552688598633,-18.872486114501953,-1.5375494956970215,5.417339324951172,-0.26714134216308594,1412.2170610427856
D4:22:CD:00:49:AA,154.61744689941406,-69.75540161132812,115.43804931640625,-1.2731187343597412,-0.5024173259735107,-5.841916084289551,1412.2170610427856
D4:22:CD:00:05:6E,123.05059814453125,-25.350826263427734,14.947688102722168,8.183465957641602,-1.274015188217163,-2.332277774810791,1412.2170610427856
D4:22:CD:00:05:5E,-152.22193908691406,-38.989505767822266,-50.217567443847656,-0.8268795013427734,2.5824122428894043,18.7646484375,1412.2170610427856
D4:22:CD:00:05:5D,172.2283477783203,-75.6297378540039,-104.99219512939453,0.9689750671386719,-1.0955836772918701,-1.8079395294189453,1412.2472858428955
D4:22:CD:00:05:6B,-52.31056213378906,-57.326202392578125,-28.22740936279297,-1.3246221542358398,1.7918815612792969,-2.699748992919922,1412.2472858428955
D4:22:CD:00:49:AA,144.3230743408203,-70.2812728881836,125.53998565673828,-1.994619369506836,0.9688912630081177,-3.4249253273010254,1412.2472858428955
D4:22:CD:00:05:6E,130.8527069091797,-32.40412902832031,-0.7849674820899963,15.970550537109375,-7.037502288818359,2.604705810546875,1412.2472858428955
D4:22:CD:00:05:5E,-156.48204040527344,-37.19776916503906,-49.77953338623047,7.207688331604004,-9.051191329956055,-5.667342185974121,1412.2472858428955
D4:22:CD:00:05:5D,169.4148406982422,-70.61890411376953,-96.43484497070312,1.6391847133636475,-1.7172024250030518,-1.7197074890136719,1412.2918057441711
D4:22:CD:00:05:6B,-44.4669189453125,-53.06880187988281,-35.954811096191406,3.64877986907959,2.7468419075012207,-5.93807315826416,1412.2918057441711
D4:22:CD:00:49:AA,133.9639129638672,-70.85755157470703,136.81349182128906,-1.9188897609710693,2.53090763092041,0.021280288696289062,1412.2918057441711
D4:22:CD:00:05:6E,132.30453491210938,-40.04955291748047,-16.037397384643555,16.337387084960938,-16.151081085205078,9.80868148803711,1412.2918057441711
D4:22:CD:00:05:5E,-158.9724884033203,-38.73634719848633,-50.922607421875,6.883505821228027,-17.490894317626953,2.4047622680664062,1412.2918057441711
D4:22:CD:00:05:5D,167.85421752929688,-65.92423248291016,-91.67279052734375,1.322575330734253,0.4144896864891052,-0.1793651580810547,1412.3080677986145
D4:22:CD:00:05:6B,-44.2801628112793,-47.03562545776367,-40.335487365722656,-3.5835623741149902,1.062286376953125,6.738729476928711,1412.3080677986145
D4:22:CD:00:49:AA,126.48334503173828,-71.03044128417969,144.7347869873047,0.4899296760559082,2.3598814010620117,2.7015552520751953,1412.3080677986145
D4:22:CD:00:05:6E,125.25023651123047,-46.525943756103516,-24.2386474609375,13.726858139038086,-9.126333236694336,7.055997848510742,1412.3080677986145
D4:22:CD:00:05:5E,-161.49481201171875,-38.51242446899414,-52.202571868896484,1.96305251121521,-19.024883270263672,4.259537696838379,1412.3080677986145
D4:22:CD:00:05:5D,166.992431640625,-61.25639343261719,-90.10565948486328,0.0860142707824707,-0.009048474952578545,0.9186153411865234,1412.3374922275543
D4:22:CD:00:05:6B,-45.577293395996094,-39.566078186035156,-42.90907287597656,-2.520125389099121,0.7568327188491821,11.561452865600586,1412.3374922275543
D4:22:CD:00:49:AA,125.362548828125,-71.16242980957031,145.87059020996094,-3.903763771057129,3.3817553520202637,10.404476165771484,1412.3374922275543
D4:22:CD:00:05:6E,120.12371063232422,-48.398170471191406,-24.03791618347168,21.81501007080078,-11.437854766845703,0.6267251968383789,1412.3374922275543
D4:22:CD:00:05:5E,-159.49073791503906,-36.12567901611328,-52.17471694946289,2.7575502395629883,-21.41012954711914,4.255997657775879,1412.3374922275543
