Device,EulerX,EulerY,EulerZ,FreeAccX,FreeAccY,FreeAccZ,Timestamp
D4:22:CD:00:05:5D,179.90322875976562,-47.65123748779297,-122.82450866699219,-0.4721241593360901,0.38258999586105347,1.6891536712646484,501.8283941745758
D4:22:CD:00:05:6B,-60.88861846923828,-29.824007034301758,-47.787052154541016,1.2836027145385742,12.87849235534668,20.400062561035156,501.8283941745758
D4:22:CD:00:49:AA,131.5625457763672,-71.41011810302734,148.61370849609375,-5.109128952026367,-0.1461367905139923,7.382833480834961,501.8283941745758
D4:22:CD:00:05:6E,97.73833465576172,-27.97158432006836,73.1740951538086,-0.8672728538513184,9.368730545043945,4.956836700439453,501.8283941745758
D4:22:CD:00:05:5E,-173.56558227539062,-32.724205017089844,19.30324363708496,6.5759382247924805,4.75467586517334,-0.2820415496826172,501.8283941745758
D4:22:CD:00:05:5D,-179.08006286621094,-46.30957794189453,-123.33170318603516,-1.8021647930145264,0.6957857608795166,1.1266813278198242,501.83939361572266
D4:22:CD:00:05:6B,-46.70411682128906,-16.415809631347656,-40.081809997558594,-0.5666369199752808,-0.022752076387405396,9.942237854003906,501.83939361572266
D4:22:CD:00:49:AA,137.7597198486328,-72.18862915039062,143.52720642089844,-6.9012603759765625,0.5261722803115845,6.917501449584961,501.83939361572266
D4:22:CD:00:05:6E,96.09213256835938,-36.288387298583984,80.13611602783203,-5.020766258239746,7.160526275634766,1.859196662902832,501.83939361572266
D4:22:CD:00:05:5E,-171.88534545898438,-39.09193420410156,19.07575798034668,4.766287803649902,3.5853981971740723,-1.1671380996704102,501.83939361572266
D4:22:CD:00:05:5D,-178.09254455566406,-45.8575439453125,-124.55866241455078,-0.8094733953475952,0.7639762163162231,2.0144224166870117,501.84848737716675
D4:22:CD:00:05:6B,-36.56292724609375,-8.10805606842041,-33.107383728027344,0.20316725969314575,-0.3325577974319458,5.207711219787598,501.84848737716675
D4:22:CD:00:49:AA,146.56951904296875,-73.04350280761719,138.1618194580078,-5.217198371887207,-0.601485013961792,8.189352035522461,501.84848737716675
D4:22:CD:00:05:6E,97.04459381103516,-47.64805221557617,87.76486206054688,-6.171669006347656,5.443901062011719,5.844080924987793,501.84848737716675
D4:22:CD:00:05:5E,-170.8392791748047,-49.417015075683594,19.69927406311035,4.114276885986328,3.405970573425293,-0.4198312759399414,501.84848737716675
D4:22:CD:00:49:AA,154.45167541503906,-74.03124237060547,134.76087951660156,-2.448211669921875,0.47328197956085205,6.579477310180664,501.8534197807312
D4:22:CD:00:05:6E,104.4728012084961,-60.193904876708984,96.14015197753906,-5.04390811920166,3.105538845062256,8.90688705444336,501.8534197807312
D4:22:CD:00:05:5E,-169.8874053955078,-62.64773941040039,22.011829376220703,0.7920132875442505,3.550233840942383,2.929387092590332,501.8534197807312
D4:22:CD:00:05:5D,176.84703063964844,-57.08209228515625,-65.12537384033203,-1.9785423278808594,0.9968065023422241,1.5954055786132812,501.85741996765137
D4:22:CD:00:05:6B,-66.66922760009766,-15.11650276184082,-69.77547454833984,3.4360098838806152,-3.522502899169922,27.91112518310547,501.85741996765137
D4:22:CD:00:49:AA,147.53627014160156,-81.15513610839844,137.9432373046875,-0.8513903617858887,-1.3013741970062256,11.890701293945312,501.85741996765137
D4:22:CD:00:05:6E,-125.96927642822266,-79.03691101074219,-102.08179473876953,1.1374092102050781,-3.1181564331054688,14.498573303222656,501.85741996765137
D4:22:CD:00:05:5D,178.12474060058594,-55.0957145690918,-65.53101348876953,-0.6178094148635864,2.225099563598633,2.6880664825439453,501.89400005340576
D4:22:CD:00:05:6B,-60.18661117553711,1.0363839864730835,-63.21653747558594,7.28421688079834,-11.362798690795898,21.858806610107422,501.89400005340576
D4:22:CD:00:49:AA,166.55899047851562,-80.95956420898438,118.12786102294922,0.17188593745231628,-0.5342453718185425,5.663715362548828,501.89400005340576
D4:22:CD:00:05:6E,-92.43270111083984,-76.74966430664062,-131.9510498046875,-6.7421722412109375,-4.3577070236206055,13.636798858642578,501.89400005340576
D4:22:CD:00:05:5E,-135.93301391601562,-75.8011474609375,-38.81892395019531,1.590465784072876,-5.232881546020508,3.168330192565918,501.89400005340576
D4:22:CD:00:05:5D,179.1161346435547,-55.13364791870117,-65.63617706298828,-0.6009290218353271,0.8245687484741211,1.6055488586425781,501.92442655563354
D4:22:CD:00:05:6B,-49.11812973022461,12.94245433807373,-50.36296081542969,1.5200695991516113,-17.121116638183594,9.832448959350586,501.92442655563354
D4:22:CD:00:49:AA,177.59129333496094,-79.84440612792969,107.53192901611328,-1.4909725189208984,-2.0328712463378906,6.763113021850586,501.92442655563354
D4:22:CD:00:05:6E,-89.55789947509766,-79.88036346435547,-130.38153076171875,-12.045476913452148,-4.668752670288086,8.576433181762695,501.92442655563354
D4:22:CD:00:05:5E,-155.74148559570312,-74.99640655517578,-24.364734649658203,-2.2926034927368164,0.2618867754936218,1.4180288314819336,501.92442655563354
D4:22:CD:00:05:5D,-179.04428100585938,-56.60657501220703,-66.91194152832031,-2.555908203125,0.2716352939605713,1.828700065612793,501.95475673675537
D4:22:CD:00:05:6B,-38.0467643737793,17.08348846435547,-34.12770080566406,-5.835762977600098,-12.785812377929688,-1.4722671508789062,501.95475673675537
D4:22:CD:00:49:AA,-169.1478729248047,-78.82786560058594,95.91185760498047,-0.9437673091888428,0.9317622184753418,3.657785415649414,501.95475673675537
D4:22:CD:00:05:6E,-123.18799591064453,-82.76701354980469,-91.47146606445312,-6.816937446594238,-6.020973205566406,5.241302490234375,501.95475673675537
D4:22:CD:00:05:5E,-157.17164611816406,-77.69148254394531,-24.39107322692871,-2.3171048164367676,4.187837600708008,-1.8118677139282227,501.95475673675537
D4:22:CD:00:05:5D,-176.17974853515625,-59.64759826660156,-69.73299407958984,-2.3781700134277344,1.3103752136230469,2.938791275024414,502.0145490169525
D4:22:CD:00:05:6B,-30.3968448638916,14.715673446655273,-20.333723068237305,-3.6416354179382324,-6.312318801879883,-10.466041564941406,502.0145490169525
D4:22:CD:00:49:AA,-161.6085662841797,-76.97572326660156,91.10556030273438,-0.2851408123970032,2.793663501739502,1.3108558654785156,502.0145490169525
D4:22:CD:00:05:6E,-140.70343017578125,-81.6037826538086,-63.16655349731445,-8.966615676879883,-6.258191108703613,1.6367521286010742,502.0145490169525
D4:22:CD:00:05:5E,-117.90573120117188,-82.93305969238281,-59.27642059326172,-1.5765964984893799,6.831820487976074,-5.102146148681641,502.0145490169525
D4:22:CD:00:05:5D,-171.80381774902344,-64.4360580444336,-74.82223510742188,-3.2999205589294434,-1.572519063949585,7.185758590698242,502.0442690849304
D4:22:CD:00:05:6B,-26.927825927734375,8.516571044921875,-12.235548973083496,1.8605279922485352,-1.3002848625183105,-8.138086318969727,502.0442690849304
D4:22:CD:00:49:AA,-160.057861328125,-75.8421859741211,92.30292510986328,-1.162726879119873,-1.3881747722625732,-2.277615547180176,502.0442690849304
D4:22:CD:00:05:6E,-142.72996520996094,-78.39734649658203,-49.846927642822266,-4.111832618713379,-9.339693069458008,-0.025429725646972656,502.0442690849304
D4:22:CD:00:05:5E,-42.18889236450195,-78.53414916992188,-130.0604705810547,-3.820155620574951,4.88082218170166,-1.798771858215332,502.0442690849304
D4:22:CD:00:05:5D,-167.7747039794922,-70.01434326171875,-81.98542785644531,-1.9497504234313965,-10.024991989135742,8.702901840209961,502.0743086338043
D4:22:CD:00:05:6B,-23.610342025756836,2.145235300064087,-11.556455612182617,7.736728668212891,-1.0596659183502197,-1.453080177307129,502.0743086338043
D4:22:CD:00:49:AA,-159.2978973388672,-74.59577178955078,93.6054458618164,-0.48241090774536133,-2.462502956390381,-4.342541694641113,502.0743086338043
D4:22:CD:00:05:6E,-138.43125915527344,-75.9312973022461,-41.765987396240234,-1.9746382236480713,-8.30952262878418,-4.26777458190918,502.0743086338043
D4:22:CD:00:05:5E,-25.566993713378906,-67.40677642822266,-146.4148712158203,-10.545368194580078,1.1189332008361816,-5.794778823852539,502.0743086338043
D4:22:CD:00:05:5D,-170.33255004882812,-75.86714935302734,-86.66688537597656,-0.8707835674285889,-4.321352958679199,-4.15168571472168,502.104599237442
D4:22:CD:00:05:6B,-16.852521896362305,-1.3029264211654663,-17.870431900024414,5.092103958129883,-2.0720596313476562,-4.426362991333008,502.104599237442
D4:22:CD:00:49:AA,-157.45635986328125,-73.86328125,92.7626953125,-0.2272179126739502,0.6957088708877563,-7.202932357788086,502.104599237442
D4:22:CD:00:05:6E,-138.0514678955078,-74.1878890991211,-32.9609260559082,1.397599220275879,-9.974334716796875,-6.53285026550293,502.104599237442
D4:22:CD:00:05:5E,-27.477188110351562,-60.627906799316406,-151.3080596923828,-14.991531372070312,-2.2886977195739746,-14.043109893798828,502.104599237442
D4:22:CD:00:05:5D,178.08291625976562,-78.61302185058594,-69.62486267089844,3.2847342491149902,3.514742374420166,-7.606201171875,502.1336214542389
D4:22:CD:00:05:6B,-7.288758754730225,-1.4218846559524536,-28.519628524780273,5.083910942077637,3.512211322784424,-6.736591339111328,502.1336214542389
D4:22:CD:00:49:AA,-149.8870849609375,-74.38253021240234,86.76780700683594,-2.033517837524414,1.5333592891693115,-9.832740783691406,502.1336214542389
D4:22:CD:00:05:6E,-147.3373260498047,-74.01983642578125,-21.142311096191406,3.393235206604004,-7.3584089279174805,-9.99470329284668,502.1336214542389
D4:22:CD:00:05:5E,-36.536048889160156,-57.6981315612793,-152.38177490234375,-14.123373031616211,2.248377799987793,-9.728717803955078,502.1336214542389
D4:22:CD:00:05:5D,153.35275268554688,-79.57972717285156,-38.52989959716797,3.2496323585510254,-1.9678752422332764,-6.355698585510254,502.1645073890686
D4:22:CD:00:05:6B,-0.49877095222473145,2.029554605484009,-41.32379913330078,5.803902626037598,2.984370708465576,-3.218410015106201,502.1645073890686
D4:22:CD:00:49:AA,-138.34617614746094,-75.66999816894531,78.16891479492188,0.8489960432052612,0.6618027687072754,-10.604598999023438,502.1645073890686
D4:22:CD:00:05:6E,-161.17396545410156,-74.812744140625,-6.363653659820557,1.9157307147979736,-2.600433826446533,-9.747823715209961,502.1645073890686
D4:22:CD:00:05:5E,-47.8056640625,-57.33705520629883,-148.86802673339844,-15.134906768798828,1.311955213546753,-16.18482208251953,502.1645073890686
D4:22:CD:00:05:5D,136.0601348876953,-78.89500427246094,-13.225149154663086,11.014022827148438,12.147195816040039,-12.443254470825195,502.1945068836212
D4:22:CD:00:05:6B,3.1347906589508057,9.071674346923828,-57.238746643066406,7.755852699279785,4.001888275146484,-6.260495185852051,502.1945068836212
D4:22:CD:00:49:AA,-128.86106872558594,-76.65681457519531,70.26860809326172,2.242105007171631,-0.5869797468185425,-7.597660064697266,502.1945068836212
D4:22:CD:00:05:6E,-175.83108520507812,-75.310546875,10.160062789916992,3.0978951454162598,-2.238582134246826,-9.214523315429688,502.1945068836212
D4:22:CD:00:05:5E,-55.971923828125,-59.19366455078125,-143.57281494140625,-12.36406135559082,-3.777561664581299,-12.409202575683594,502.1945068836212
D4:22:CD:00:05:5D,139.16650390625,-76.96446228027344,-8.460007667541504,-5.834014892578125,5.217588424682617,-1.9294672012329102,502.2240934371948
D4:22:CD:00:05:6B,2.6894607543945312,18.400766372680664,-78.60935974121094,-2.142758369445801,-9.806718826293945,-16.763511657714844,502.2240934371948
D4:22:CD:00:49:AA,-121.6038818359375,-77.14054107666016,63.14440155029297,1.2887396812438965,-1.2616140842437744,-4.176580429077148,502.2240934371948
D4:22:CD:00:05:6E,169.6053466796875,-75.05094909667969,26.748796463012695,3.3827381134033203,-3.2935361862182617,-7.418499946594238,502.2240934371948
D4:22:CD:00:05:5E,-67.72634887695312,-62.596614837646484,-134.7431182861328,-12.642881393432617,-5.159574508666992,-9.901205062866211,502.2240934371948
D4:22:CD:00:05:5D,137.8511962890625,-74.77019500732422,-11.896678924560547,4.431836128234863,-1.0994715690612793,-3.389434814453125,502.25529432296753
D4:22:CD:00:05:6B,-3.5488128662109375,26.102384567260742,-107.08162689208984,-11.163932800292969,-45.977256774902344,-31.928028106689453,502.25529432296753
D4:22:CD:00:49:AA,-122.2594985961914,-76.62674713134766,62.38847732543945,0.5507735013961792,-1.5896751880645752,-2.8312721252441406,502.25529432296753
D4:22:CD:00:05:6E,156.6231231689453,-74.08039855957031,40.564266204833984,4.026247978210449,-3.095824718475342,-3.635707378387451,502.25529432296753
D4:22:CD:00:05:5E,-90.5991439819336,-65.99449157714844,-117.85326385498047,-11.925487518310547,-2.308563232421875,-3.373636245727539,502.25529432296753
D4:22:CD:00:05:5D,139.20933532714844,-71.43402862548828,-14.594582557678223,3.7402377128601074,-3.7364654541015625,2.365285873413086,502.3141973018646
D4:22:CD:00:05:6B,-26.96518325805664,29.52897834777832,-120.59517669677734,10.680158615112305,23.41845703125,-20.925533294677734,502.3141973018646
D4:22:CD:00:49:AA,-125.78770446777344,-75.92211151123047,64.92218780517578,-4.817671775817871,-3.0146541595458984,1.5214366912841797,502.3141973018646
D4:22:CD:00:05:6E,146.36508178710938,-72.80877685546875,50.441139221191406,2.3468618392944336,0.8134040832519531,-0.6320104598999023,502.3141973018646
D4:22:CD:00:05:5E,-111.48140716552734,-67.6274185180664,-97.84198760986328,3.030513286590576,-16.718730926513672,-0.7658462524414062,502.3141973018646
D4:22:CD:00:05:5D,139.93116760253906,-67.82341766357422,-13.966236114501953,2.425478935241699,-0.23906275629997253,5.431622505187988,502.34421730041504
D4:22:CD:00:05:6B,-45.04591751098633,33.377384185791016,-107.80773162841797,-31.83913803100586,4.439970016479492,10.619285583496094,502.34421730041504
D4:22:CD:00:49:AA,-126.62397766113281,-75.92060852050781,65.53457641601562,-1.179771900177002,0.8950155973434448,8.922321319580078,502.34421730041504
D4:22:CD:00:05:6E,144.49578857421875,-70.99824523925781,51.95574188232422,4.341300010681152,0.36720889806747437,3.6676273345947266,502.34421730041504
D4:22:CD:00:05:5E,-125.63108825683594,-68.79385375976562,-81.29320526123047,1.9582114219665527,-15.902223587036133,3.0353965759277344,502.34421730041504
D4:22:CD:00:05:5D,137.5828399658203,-66.00956726074219,-10.006057739257812,-3.153437614440918,1.6082961559295654,4.045132637023926,502.374632358551
D4:22:CD:00:05:6B,-27.706336975097656,36.07063674926758,-90.97724914550781,-6.342491149902344,4.064910888671875,-21.273258209228516,502.374632358551
D4:22:CD:00:49:AA,-126.3046646118164,-75.79335021972656,64.25582122802734,-0.6736130714416504,-1.142012596130371,5.665428161621094,502.374632358551
D4:22:CD:00:05:6E,146.8807373046875,-69.64318084716797,44.520721435546875,10.549972534179688,-0.4025501608848572,4.6847028732299805,502.374632358551
D4:22:CD:00:05:5E,-138.84413146972656,-69.05941772460938,-67.87712097167969,7.537345886230469,0.15811580419540405,8.700132369995117,502.374632358551
D4:22:CD:00:05:5D,131.0072479248047,-66.23851013183594,-3.423779249191284,1.4857509136199951,1.6389098167419434,5.969905853271484,502.40463161468506
D4:22:CD:00:05:6B,-22.0592041015625,31.5860595703125,-69.1795654296875,-12.685407638549805,-4.574390411376953,-9.533058166503906,502.40463161468506
D4:22:CD:00:49:AA,-130.81488037109375,-74.52692413330078,67.3393783569336,6.222410202026367,1.0376286506652832,-0.10088920593261719,502.40463161468506
D4:22:CD:00:05:6E,145.5520782470703,-69.70895385742188,37.76616668701172,14.861019134521484,6.0079145431518555,3.242110252380371,502.40463161468506
D4:22:CD:00:05:5E,-150.8831024169922,-67.06143951416016,-59.8853645324707,0.05765749514102936,0.21918830275535583,0.09012985229492188,502.40463161468506
D4:22:CD:00:05:5D,119.9156265258789,-68.03665924072266,6.073720455169678,3.2832322120666504,0.8731027841567993,4.664859771728516,502.43462467193604
D4:22:CD:00:05:6B,-19.364952087402344,20.494741439819336,-51.98896789550781,-10.012201309204102,-7.550355911254883,-10.121753692626953,502.43462467193604
D4:22:CD:00:49:AA,-138.11964416503906,-72.27596282958984,70.53502655029297,10.806354522705078,0.46386831998825073,-0.46506309509277344,502.43462467193604
D4:22:CD:00:05:6E,139.7202606201172,-69.97367095947266,37.7486686706543,5.226186752319336,7.95443058013916,1.0164947509765625,502.43462467193604
D4:22:CD:00:05:5E,-158.55433654785156,-65.7760009765625,-54.89569854736328,-5.032285690307617,-7.656359672546387,-3.936408519744873,502.43462467193604
D4:22:CD:00:05:5D,103.81086730957031,-70.22398376464844,13.48563003540039,2.4235782623291016,11.55731201171875,-2.3582987785339355,502.4641411304474
D4:22:CD:00:05:6B,-16.362401962280273,6.658325672149658,-39.12267303466797,-3.266441822052002,4.500319480895996,-6.500658988952637,502.4641411304474
D4:22:CD:00:49:AA,-144.7581787109375,-71.44120788574219,71.30794525146484,3.662149429321289,-1.125420331954956,-2.5004820823669434,502.4641411304474
D4:22:CD:00:05:6E,134.5988006591797,-68.87064361572266,40.330909729003906,1.4468164443969727,3.4414520263671875,-1.691227912902832,502.4641411304474
D4:22:CD:00:05:5E,-160.50990295410156,-63.65361404418945,-53.65485382080078,2.7186717987060547,-1.3722622394561768,1.6236248016357422,502.4641411304474
D4:22:CD:00:05:5D,98.64376831054688,-70.99339294433594,2.942401647567749,-6.839478492736816,35.76210021972656,-0.8076381683349609,502.4945158958435
D4:22:CD:00:05:6B,-21.243289947509766,-7.046331405639648,-25.41584587097168,4.241427421569824,4.219243049621582,-5.556415557861328,502.4945158958435
D4:22:CD:00:49:AA,-148.87420654296875,-71.56889343261719,71.14836120605469,-3.5392088890075684,0.6182502508163452,-1.2161483764648438,502.4945158958435
D4:22:CD:00:05:6E,131.18296813964844,-67.6413345336914,43.97468566894531,-1.6359388828277588,5.121338844299316,-5.308684349060059,502.4945158958435
D4:22:CD:00:05:5E,-163.12657165527344,-60.7541389465332,-53.10460662841797,0.14963799715042114,-1.0668137073516846,0.9780006408691406,502.4945158958435
D4:22:CD:00:05:5D,117.63397216796875,-64.80342864990234,-28.00183868408203,9.797576904296875,24.250988006591797,8.28005599975586,502.52451038360596
D4:22:CD:00:05:6B,-31.427005767822266,-16.477354049682617,-10.795478820800781,2.042234420776367,4.939867973327637,9.876262664794922,502.52451038360596
D4:22:CD:00:49:AA,-150.85845947265625,-71.09320831298828,71.61017608642578,2.703382968902588,2.4263381958007812,-1.903317928314209,502.52451038360596
D4:22:CD:00:05:6E,130.73992919921875,-66.99890899658203,48.657291412353516,-6.261115074157715,4.009672164916992,-2.013144016265869,502.52451038360596
D4:22:CD:00:05:5E,-163.71380615234375,-58.50033950805664,-53.14368438720703,-1.1969413757324219,-2.579188823699951,-0.06115913391113281,502.52451038360596
D4:22:CD:00:05:5D,133.71446228027344,-51.892547607421875,-50.55224609375,8.20688247680664,6.708581924438477,5.007406234741211,502.55452489852905
D4:22:CD:00:05:6B,-37.54310607910156,-20.81875228881836,0.48379120230674744,-1.9239611625671387,3.1332855224609375,6.093426704406738,502.55452489852905
D4:22:CD:00:49:AA,-151.5292510986328,-70.89341735839844,71.1234130859375,6.493599891662598,3.108457088470459,0.9906883239746094,502.55452489852905
D4:22:CD:00:05:6E,129.75933837890625,-66.36756896972656,54.10391616821289,-5.70565128326416,1.882842779159546,-0.5228300094604492,502.55452489852905
D4:22:CD:00:05:5E,-164.04319763183594,-56.560672760009766,-53.522850036621094,-0.4548148512840271,-2.398768901824951,0.524144172668457,502.55452489852905
D4:22:CD:00:05:5D,143.14256286621094,-37.381587982177734,-64.34227752685547,5.062480926513672,-4.36198616027832,-2.2324013710021973,502.61414408683777
D4:22:CD:00:05:6B,-40.45413589477539,-21.95665168762207,7.535599231719971,-3.1149868965148926,5.997170448303223,4.798388481140137,502.61414408683777
D4:22:CD:00:49:AA,-151.77528381347656,-70.89111328125,70.41806030273438,0.8749614953994751,2.2907772064208984,-0.2406301498413086,502.61414408683777
D4:22:CD:00:05:6E,128.51205444335938,-65.21153259277344,59.20986557006836,-2.5383715629577637,-0.10719071328639984,-0.47242069244384766,502.61414408683777
D4:22:CD:00:05:5E,-163.5870361328125,-55.13664627075195,-53.64580154418945,0.5406126976013184,-1.2369177341461182,0.27031707763671875,502.61414408683777
D4:22:CD:00:05:5D,150.2467803955078,-24.02776527404785,-73.2994384765625,2.7834458351135254,-6.804989814758301,-9.131439208984375,502.644145488739
D4:22:CD:00:05:6B,-47.59782791137695,-21.89661979675293,11.319308280944824,-2.885439872741699,3.8528947830200195,-2.5496630668640137,502.644145488739
D4:22:CD:00:49:AA,-153.52880859375,-70.55745697021484,72.11583709716797,0.3146480917930603,1.5854275226593018,-1.019556999206543,502.644145488739
D4:22:CD:00:05:6E,127.50917053222656,-63.68182373046875,64.16716003417969,-0.4156044125556946,1.1143321990966797,0.23471832275390625,502.644145488739
D4:22:CD:00:05:5E,-163.30599975585938,-53.72010040283203,-53.90376663208008,-1.3980493545532227,-3.181793689727783,-0.16588878631591797,502.644145488739
D4:22:CD:00:05:5D,157.56137084960938,-13.785011291503906,-79.52202606201172,3.2022156715393066,-2.405956268310547,-7.2990217208862305,502.6736624240875
D4:22:CD:00:05:6B,-54.2796745300293,-23.45878028869629,14.031205177307129,-2.397324562072754,-0.1730557084083557,-1.5005626678466797,502.6736624240875
D4:22:CD:00:49:AA,-154.01226806640625,-70.1680679321289,73.35118103027344,2.96755313873291,1.4049897193908691,-2.9616799354553223,502.6736624240875
D4:22:CD:00:05:6E,127.4952392578125,-62.1037483215332,69.06761932373047,1.165849208831787,0.0736858993768692,-0.8999528884887695,502.6736624240875
D4:22:CD:00:05:5E,-162.65328979492188,-52.48542022705078,-54.35639190673828,-0.025380343198776245,-1.489614725112915,-0.22248363494873047,502.6736624240875
D4:22:CD:00:05:5D,161.0891876220703,-9.173249244689941,-85.05866241455078,-4.517545700073242,-10.163534164428711,-12.648445129394531,502.7041726112366
D4:22:CD:00:05:6B,-58.34854507446289,-29.236038208007812,16.329082489013672,0.5567008256912231,0.7197942733764648,-6.959107398986816,502.7041726112366
D4:22:CD:00:49:AA,-152.91067504882812,-68.98867797851562,73.205810546875,5.1563310623168945,1.6353673934936523,0.37630367279052734,502.7041726112366
D4:22:CD:00:05:6E,127.23295593261719,-60.6483154296875,73.32381439208984,3.9057464599609375,-0.43838340044021606,-1.7295989990234375,502.7041726112366
D4:22:CD:00:05:5E,-162.86849975585938,-50.56078338623047,-55.39638137817383,-0.9166021347045898,-2.544722557067871,-0.29619312286376953,502.7041726112366
D4:22:CD:00:05:5D,158.87490844726562,-11.706489562988281,-87.82403564453125,-9.791568756103516,-16.292449951171875,-20.52130889892578,502.7343864440918
D4:22:CD:00:05:6B,-64.0523910522461,-42.534263610839844,20.34332275390625,7.936837196350098,0.672931432723999,3.9551010131835938,502.7343864440918
D4:22:CD:00:49:AA,-151.57774353027344,-68.40762329101562,71.86556243896484,3.015110492706299,2.217891216278076,0.19390869140625,502.7343864440918
D4:22:CD:00:05:6E,124.78479766845703,-59.84584426879883,78.2104263305664,6.486330032348633,0.31794238090515137,0.21470069885253906,502.7343864440918
D4:22:CD:00:05:5E,-163.77879333496094,-48.63680648803711,-56.0301399230957,0.5278189182281494,-4.258282661437988,-0.06156444549560547,502.7343864440918
D4:22:CD:00:05:5D,157.39076232910156,-17.22730255126953,-88.15565490722656,-2.665863037109375,-2.180588722229004,35.64665985107422,502.7640075683594
D4:22:CD:00:05:6B,-65.69043731689453,-61.893585205078125,24.31104278564453,13.978830337524414,24.587223052978516,42.61936950683594,502.7640075683594
D4:22:CD:00:49:AA,-151.58619689941406,-68.09715270996094,71.64978790283203,-3.3490352630615234,2.2427148818969727,2.665294647216797,502.7640075683594
D4:22:CD:00:05:6E,117.12345886230469,-58.2646484375,85.80299377441406,9.45058822631836,-6.789531707763672,13.265678405761719,502.7640075683594
D4:22:CD:00:05:5E,-165.30255126953125,-47.69295120239258,-55.20537567138672,-0.44121253490448,-2.978363513946533,1.4458389282226562,502.7640075683594
D4:22:CD:00:05:5D,161.80809020996094,-19.1955509185791,-86.03972625732422,-8.832021713256836,-22.84717559814453,-2.106464385986328,502.7940089702606
D4:22:CD:00:05:6B,-53.91714096069336,-70.94303131103516,15.211885452270508,26.038936614990234,4.323630332946777,19.886585235595703,502.7940089702606
D4:22:CD:00:49:AA,-150.11715698242188,-69.44754791259766,70.45355987548828,0.33539503812789917,3.9412760734558105,8.676755905151367,502.7940089702606
D4:22:CD:00:05:6E,101.58313751220703,-51.3758430480957,96.55738067626953,13.421831130981445,4.592272758483887,26.142772674560547,502.7940089702606
D4:22:CD:00:05:5E,-167.7257080078125,-48.0392951965332,-52.68937301635742,-0.04589257389307022,-2.301568031311035,0.8739500045776367,502.7940089702606
D4:22:CD:00:05:5D,165.79750061035156,-20.569499969482422,-83.87788391113281,-5.999693870544434,-25.772518157958984,8.15164566040039,502.8240156173706
D4:22:CD:00:05:6B,-62.49274826049805,-60.52016830444336,18.8491153717041,17.011680603027344,-0.06825447082519531,27.556060791015625,502.8240156173706
D4:22:CD:00:49:AA,-151.36936950683594,-68.31808471679688,72.55438995361328,1.3050522804260254,-0.318589985370636,7.045209884643555,502.8240156173706
D4:22:CD:00:05:6E,94.2534408569336,-36.60234832763672,106.4316177368164,17.096874237060547,15.23837661743164,19.39324951171875,502.8240156173706
D4:22:CD:00:05:5E,-170.64520263671875,-49.23280715942383,-49.7580680847168,-2.538496971130371,-3.5419392585754395,0.32874202728271484,502.8240156173706
D4:22:CD:00:05:5D,165.11334228515625,-18.327787399291992,-81.99518585205078,-4.134238243103027,-30.341808319091797,10.852544784545898,502.8542625904083
D4:22:CD:00:05:6B,-65.8555908203125,-46.71455383300781,16.69046401977539,17.31918716430664,-3.6289353370666504,14.894062042236328,502.8542625904083
D4:22:CD:00:49:AA,-153.56175231933594,-68.27369689941406,75.02339935302734,5.223921775817871,2.7387137413024902,6.230051040649414,502.8542625904083
D4:22:CD:00:05:6E,98.44957733154297,-18.31485939025879,111.8744888305664,13.277276992797852,3.2208352088928223,20.88085174560547,502.8542625904083
D4:22:CD:00:05:5E,-173.1771240234375,-51.356468200683594,-47.64701843261719,-1.8996615409851074,-2.7719693183898926,1.5951528549194336,502.8542625904083
D4:22:CD:00:05:5D,163.75083923339844,-14.357810974121094,-79.01803588867188,4.8775787353515625,-14.388076782226562,7.611427307128906,502.91439509391785
D4:22:CD:00:05:6B,-70.41541290283203,-37.70661163330078,11.357403755187988,9.740682601928711,-8.707422256469727,-1.595210075378418,502.91439509391785
D4:22:CD:00:49:AA,-158.34559631347656,-69.2861557006836,78.4698257446289,5.463565826416016,3.9224486351013184,6.203086853027344,502.91439509391785
D4:22:CD:00:05:6E,100.34046936035156,1.017604947090149,114.33718872070312,11.74329948425293,9.118619918823242,14.72437858581543,502.91439509391785
D4:22:CD:00:05:5E,-175.91873168945312,-54.87418746948242,-45.99335861206055,-1.293492317199707,-1.8476471900939941,3.6478281021118164,502.91439509391785
D4:22:CD:00:05:5D,166.16635131835938,-11.174251556396484,-78.20533752441406,-1.162463665008545,-13.62254524230957,3.9145145416259766,502.9444773197174
D4:22:CD:00:05:6B,-75.72687530517578,-36.217315673828125,4.210178375244141,-4.369739532470703,-7.7775726318359375,-2.947112560272217,502.9444773197174
D4:22:CD:00:49:AA,-164.56419372558594,-70.24722290039062,82.05303192138672,6.736712455749512,2.257925510406494,4.348416328430176,502.9444773197174
D4:22:CD:00:05:6E,96.41544342041016,19.469316482543945,115.38775634765625,-1.2928619384765625,6.9821977615356445,2.499666213989258,502.9444773197174
D4:22:CD:00:05:5E,-178.4248809814453,-60.69060134887695,-43.65184783935547,1.8616399765014648,-5.147439956665039,7.660221099853516,502.9444773197174
D4:22:CD:00:05:5D,163.15579223632812,-11.742131233215332,-77.9538345336914,-0.1248965710401535,-3.840627670288086,-2.9723329544067383,502.9740643501282
D4:22:CD:00:05:6B,-78.48155975341797,-42.36207580566406,-4.335029125213623,-7.143889427185059,-1.591444492340088,-3.6477060317993164,502.9740643501282
D4:22:CD:00:49:AA,-170.7495880126953,-70.67129516601562,85.83289337158203,4.579459190368652,-0.16827383637428284,1.903146743774414,502.9740643501282
D4:22:CD:00:05:6E,88.81391906738281,34.97932434082031,114.35575103759766,-10.585836410522461,0.6156783103942871,-1.2348709106445312,502.9740643501282
D4:22:CD:00:05:5E,-173.1630859375,-70.82946014404297,-40.05706024169922,-0.524605393409729,2.8519515991210938,3.831348419189453,502.9740643501282
D4:22:CD:00:05:5D,161.06605529785156,-16.742591857910156,-77.53717803955078,0.33599746227264404,-0.3529524803161621,-12.606657028198242,503.00421380996704
D4:22:CD:00:05:6B,-79.27320098876953,-53.284488677978516,-14.453506469726562,-6.583561897277832,-0.49724578857421875,-3.6074395179748535,503.00421380996704
D4:22:CD:00:49:AA,-175.46202087402344,-71.11811065673828,89.08336639404297,-0.21399307250976562,-0.804124116897583,-1.8821640014648438,503.00421380996704
D4:22:CD:00:05:6E,80.87720489501953,48.04975128173828,113.68256378173828,-7.071634292602539,-7.6824235916137695,-18.347949981689453,503.00421380996704
D4:22:CD:00:05:5E,-168.59268188476562,-73.75109100341797,-40.74906921386719,-4.129743576049805,3.8833837509155273,-5.348992347717285,503.00421380996704
D4:22:CD:00:05:5D,159.63174438476562,-26.57424545288086,-76.93141174316406,-0.36752814054489136,-3.103848457336426,-18.092121124267578,503.0342435836792
D4:22:CD:00:05:6B,-75.61731719970703,-66.64469909667969,-26.56537437438965,-5.694211006164551,1.0614359378814697,-3.8201775550842285,503.0342435836792
D4:22:CD:00:49:AA,-178.26370239257812,-71.77645111083984,91.9993667602539,-3.4792394638061523,-2.88944149017334,-5.596355438232422,503.0342435836792
D4:22:CD:00:05:6E,78.79938507080078,58.639305114746094,114.74143981933594,-8.161535263061523,-6.373846054077148,-15.664741516113281,503.0342435836792
D4:22:CD:00:05:5E,-165.89236450195312,-70.9435806274414,-44.4967041015625,-6.385530471801758,2.2064452171325684,-5.242371559143066,503.0342435836792
D4:22:CD:00:05:5D,158.3079376220703,-40.88275909423828,-75.93839263916016,-0.5477890968322754,-6.792474746704102,-14.92496109008789,503.06390380859375
D4:22:CD:00:05:6B,-61.59318542480469,-78.91397094726562,-48.72836685180664,-4.220550537109375,2.2433066368103027,-4.42021369934082,503.06390380859375
D4:22:CD:00:49:AA,-179.16697692871094,-72.67229461669922,93.3169174194336,-0.0665128082036972,2.668149948120117,-12.120098114013672,503.06390380859375
D4:22:CD:00:05:6E,77.56380462646484,66.75833892822266,114.83183288574219,1.115828275680542,-4.185761451721191,-12.717819213867188,503.06390380859375
D4:22:CD:00:05:5E,-165.6369171142578,-67.24000549316406,-49.75172805786133,4.22023868560791,-5.999599456787109,-15.097860336303711,503.06390380859375
D4:22:CD:00:05:5D,155.56704711914062,-58.94679260253906,-74.55311584472656,-0.3787999153137207,-6.998199462890625,-2.5943522453308105,503.09383511543274
D4:22:CD:00:05:6B,-0.3768664598464966,-84.77554321289062,-119.87799072265625,-6.697422981262207,5.338399887084961,-5.941342353820801,503.09383511543274
D4:22:CD:00:49:AA,-179.9243621826172,-73.63238525390625,93.75399780273438,3.997990608215332,1.9736425876617432,-11.156900405883789,503.09383511543274
D4:22:CD:00:05:6E,78.45954132080078,70.90079498291016,115.33043670654297,2.8076233863830566,-2.562079429626465,-6.984366416931152,503.09383511543274
D4:22:CD:00:05:5E,-170.34994506835938,-66.97738647460938,-50.93992614746094,-13.475244522094727,5.405132293701172,1.4788217544555664,503.09383511543274
D4:22:CD:00:05:5D,147.72119140625,-79.40034484863281,-67.41915130615234,1.4012608528137207,-2.214664936065674,13.624122619628906,503.1248390674591
D4:22:CD:00:05:6B,54.552162170410156,-80.30474853515625,-179.67324829101562,-5.412371635437012,6.608421325683594,-9.23609733581543,503.1248390674591
D4:22:CD:00:49:AA,174.7668914794922,-74.93074798583984,96.73778533935547,3.999695301055908,0.3843221664428711,-8.684043884277344,503.1248390674591
D4:22:CD:00:05:6E,79.5786361694336,70.87690734863281,118.43572998046875,1.2358834743499756,0.9400453567504883,-3.6443729400634766,503.1248390674591
D4:22:CD:00:05:5E,-172.1496124267578,-66.43589782714844,-50.64617919921875,-3.052931308746338,-4.211267471313477,-4.063418388366699,503.1248390674591
D4:22:CD:00:05:5D,-5.738180160522461,-79.93856811523438,88.64837646484375,1.7082417011260986,19.958728790283203,19.752460479736328,503.15384340286255
D4:22:CD:00:05:6B,70.64884948730469,-75.24952697753906,162.25306701660156,-2.0750961303710938,5.89246940612793,-8.204645156860352,503.15384340286255
D4:22:CD:00:49:AA,168.53140258789062,-75.88412475585938,100.78466033935547,-0.9426348209381104,-0.6977626085281372,-3.6074862480163574,503.15384340286255
D4:22:CD:00:05:6E,80.6976089477539,66.71977996826172,125.47250366210938,2.7271018028259277,1.3310282230377197,-5.2753753662109375,503.15384340286255
D4:22:CD:00:05:5E,-169.4820556640625,-65.75331115722656,-51.5169563293457,3.4566516876220703,-3.497863292694092,-2.639054298400879,503.15384340286255
D4:22:CD:00:05:5D,-2.7789411544799805,-66.47868347167969,87.60044860839844,-11.23459243774414,22.914379119873047,-19.02315902709961,503.21444034576416
D4:22:CD:00:05:6B,78.13565826416016,-70.93537902832031,152.83114624023438,-2.354982376098633,5.73345947265625,-6.008565902709961,503.21444034576416
D4:22:CD:00:49:AA,169.11033630371094,-77.06179809570312,100.16889190673828,-2.4313979148864746,-2.941061496734619,-2.7731213569641113,503.21444034576416
D4:22:CD:00:05:6E,82.9195327758789,57.885498046875,134.3890838623047,0.2827666997909546,1.8907387256622314,-8.907161712646484,503.21444034576416
D4:22:CD:00:05:5E,-169.24098205566406,-62.804752349853516,-53.93113327026367,3.8852334022521973,-7.272912979125977,2.158252716064453,503.21444034576416
D4:22:CD:00:05:5D,-2.102135419845581,-63.34294128417969,85.50688171386719,3.943540573120117,20.668262481689453,-16.820228576660156,503.24443888664246
D4:22:CD:00:05:6B,81.42219543457031,-66.86974334716797,147.5021514892578,-2.630338668823242,5.243512153625488,-4.391408920288086,503.24443888664246
D4:22:CD:00:49:AA,173.56016540527344,-77.79972076416016,96.19884490966797,2.302313804626465,1.3198671340942383,-0.7910041809082031,503.24443888664246
D4:22:CD:00:05:6E,81.07182312011719,45.20196533203125,142.9250946044922,-14.187429428100586,8.196922302246094,-10.842805862426758,503.24443888664246
D4:22:CD:00:05:5E,-170.20907592773438,-58.688777923583984,-56.85291290283203,-1.306689739227295,-4.004094123840332,-2.097001075744629,503.24443888664246
D4:22:CD:00:05:5D,2.9393465518951416,-67.38793182373047,79.26174926757812,0.7311105728149414,11.598369598388672,-6.028266906738281,503.2739930152893
D4:22:CD:00:05:6B,80.78591918945312,-63.62024688720703,144.7130126953125,-1.992762565612793,5.076713562011719,-3.3638534545898438,503.2739930152893
D4:22:CD:00:49:AA,175.21841430664062,-78.41452026367188,95.2019271850586,3.7962145805358887,1.591794729232788,3.029569625854492,503.2739930152893
D4:22:CD:00:05:6E,72.9146728515625,33.565433502197266,151.99842834472656,-14.010717391967773,14.528833389282227,-15.12725830078125,503.2739930152893
D4:22:CD:00:05:5E,-167.4412841796875,-56.218685150146484,-59.12864685058594,-2.1575326919555664,-5.393448829650879,1.4237251281738281,503.2739930152893
D4:22:CD:00:05:5D,20.14383888244629,-73.44837951660156,65.55567169189453,6.915584564208984,7.158485412597656,-0.5378198623657227,503.3039872646332
D4:22:CD:00:05:6B,77.75419616699219,-61.52567672729492,143.7002716064453,-3.313054084777832,7.626504898071289,-1.8840208053588867,503.3039872646332
D4:22:CD:00:49:AA,177.6742401123047,-78.74050903320312,93.2008285522461,4.664824485778809,1.8008859157562256,-0.5599231719970703,503.3039872646332
D4:22:CD:00:05:6E,67.00515747070312,31.85151481628418,153.6572723388672,-4.571744918823242,-3.8261919021606445,7.959617614746094,503.3039872646332
D4:22:CD:00:05:5E,-164.10557556152344,-54.55732345581055,-62.33909606933594,2.0332484245300293,-4.774505615234375,6.9603271484375,503.3039872646332
D4:22:CD:00:05:5D,53.07157516479492,-77.79792785644531,40.57088088989258,0.9126667976379395,9.35586166381836,-3.806838035583496,503.33599185943604
D4:22:CD:00:05:6B,74.85411071777344,-61.60520553588867,143.72259521484375,-2.673366069793701,6.941396713256836,-1.2538166046142578,503.33599185943604
D4:22:CD:00:49:AA,177.3346710205078,-79.20767211914062,92.95079040527344,8.360401153564453,2.488255500793457,4.396702766418457,503.33599185943604
D4:22:CD:00:05:6E,67.42606353759766,37.61786651611328,148.82432556152344,-3.341688632965088,4.3001708984375,-4.89725399017334,503.33599185943604
D4:22:CD:00:05:5E,-161.8099365234375,-53.64332962036133,-65.44305419921875,0.5816928148269653,-1.175689935684204,3.4536056518554688,503.33599185943604
D4:22:CD:00:05:5D,92.04277801513672,-78.81898498535156,4.176115036010742,4.142609596252441,-6.219308853149414,7.069589614868164,503.3645861148834
D4:22:CD:00:05:6B,74.79112243652344,-64.05518341064453,143.0607452392578,-2.7024335861206055,9.948719024658203,3.678666114807129,503.3645861148834
D4:22:CD:00:49:AA,-179.5002899169922,-79.45396423339844,89.21327209472656,3.8980584144592285,0.36195844411849976,6.72911262512207,503.3645861148834
D4:22:CD:00:05:6E,61.07845687866211,46.95486068725586,140.1211700439453,-10.059926986694336,2.3312478065490723,-2.869293689727783,503.3645861148834
D4:22:CD:00:05:5E,-158.1542205810547,-54.231441497802734,-69.03942108154297,-0.5299384593963623,-3.776444911956787,2.376363754272461,503.3645861148834
D4:22:CD:00:05:5D,109.74154663085938,-79.546142578125,-16.829524993896484,13.174934387207031,-5.2277069091796875,2.78348445892334,503.3936355113983
D4:22:CD:00:05:6B,78.87320709228516,-67.24246215820312,142.43667602539062,-3.4644341468811035,11.212394714355469,7.237632751464844,503.3936355113983
D4:22:CD:00:49:AA,-174.6395263671875,-79.49737548828125,84.72869873046875,-1.4706690311431885,-0.9805084466934204,2.1531600952148438,503.3936355113983
D4:22:CD:00:05:6E,43.94447326660156,56.97506332397461,121.12808990478516,-7.205975532531738,8.210393905639648,-13.36337661743164,503.3936355113983
D4:22:CD:00:05:5E,-153.5608673095703,-55.54584503173828,-73.26679992675781,-1.4484496116638184,-9.346214294433594,2.9844417572021484,503.3936355113983
D4:22:CD:00:05:5D,127.55084991455078,-79.30086517333984,-33.021446228027344,4.606289863586426,-8.976888656616211,8.397832870483398,503.42418932914734
D4:22:CD:00:05:6B,85.77372741699219,-70.60445404052734,142.58221435546875,-2.4767355918884277,4.827216148376465,8.880945205688477,503.42418932914734
D4:22:CD:00:49:AA,-173.5673370361328,-78.34375762939453,85.30384826660156,0.07167591154575348,-1.864135980606079,1.2677555084228516,503.42418932914734
D4:22:CD:00:05:6E,17.32034683227539,62.499271392822266,90.5633773803711,-4.399053573608398,6.789054870605469,-11.850322723388672,503.42418932914734
D4:22:CD:00:05:5E,-146.4727325439453,-58.16765213012695,-78.3541488647461,0.3574180006980896,-8.668373107910156,-1.4951372146606445,503.42418932914734
D4:22:CD:00:05:5D,137.94351196289062,-77.98080444335938,-38.33707046508789,-3.465630054473877,1.022810935974121,4.944101333618164,503.45455050468445
D4:22:CD:00:05:6B,91.33638000488281,-74.69257354736328,142.58546447753906,-0.45459413528442383,-0.5276360511779785,5.091106414794922,503.45455050468445
D4:22:CD:00:49:AA,-176.73939514160156,-76.76001739501953,90.2584457397461,-1.1165239810943604,1.6049911975860596,0.005970954895019531,503.45455050468445
D4:22:CD:00:05:6E,-7.213202476501465,60.576202392578125,58.78715896606445,-0.521867036819458,0.39615529775619507,-8.268245697021484,503.45455050468445
D4:22:CD:00:05:5E,-131.1850128173828,-59.65616989135742,-81.87285614013672,-12.769294738769531,-2.774453639984131,-0.3505373001098633,503.45455050468445
D4:22:CD:00:05:5D,145.6199188232422,-76.78520202636719,-42.70750427246094,-7.147254943847656,-1.1236836910247803,1.772836685180664,503.51417422294617
D4:22:CD:00:05:6B,99.49818420410156,-78.91654968261719,138.19996643066406,1.2245442867279053,-1.7864117622375488,1.3125019073486328,503.51417422294617
D4:22:CD:00:49:AA,-177.55630493164062,-75.38426971435547,94.11913299560547,-5.721066474914551,1.1962237358093262,-2.5389132499694824,503.51417422294617
D4:22:CD:00:05:6E,-19.82903480529785,54.0765266418457,36.737178802490234,5.264375686645508,-2.9755935668945312,-5.158985137939453,503.51417422294617
D4:22:CD:00:05:5E,-118.0617904663086,-58.170684814453125,-80.57951354980469,-28.542278289794922,-2.2616710662841797,1.096435546875,503.51417422294617
D4:22:CD:00:05:5D,153.69482421875,-76.21923828125,-49.15748596191406,-2.597907543182373,-1.0243310928344727,0.806828498840332,503.54618549346924
D4:22:CD:00:05:6B,111.08475494384766,-82.3891372680664,129.86546325683594,1.5793824195861816,-2.8858203887939453,-2.2021055221557617,503.54618549346924
D4:22:CD:00:49:AA,-176.23355102539062,-73.72765350341797,96.49689483642578,-1.8683764934539795,0.7772188186645508,-2.462888240814209,503.54618549346924
D4:22:CD:00:05:6E,-17.71379852294922,47.56514358520508,23.513437271118164,8.942888259887695,-11.383886337280273,3.000269889831543,503.54618549346924
D4:22:CD:00:05:5E,-120.47096252441406,-52.79840087890625,-70.12683868408203,-19.41641616821289,-6.252317428588867,-3.269260883331299,503.54618549346924
D4:22:CD:00:05:5D,162.72850036621094,-75.43274688720703,-58.16877365112305,0.326967716217041,-0.4596747159957886,-0.12089920043945312,503.5739300251007
D4:22:CD:00:05:6B,121.29954528808594,-85.87982940673828,121.19902801513672,0.6945782899856567,-5.146571159362793,-2.756558895111084,503.5739300251007
D4:22:CD:00:49:AA,-177.00096130371094,-72.8494873046875,98.0521240234375,3.413066864013672,0.9657771587371826,0.1730813980102539,503.5739300251007
D4:22:CD:00:05:6E,1.802356481552124,43.11848449707031,18.39305305480957,-0.5381735563278198,-14.386957168579102,-0.035861968994140625,503.5739300251007
D4:22:CD:00:05:5E,-129.0581817626953,-45.987098693847656,-57.24979782104492,-9.123685836791992,-6.851109504699707,-6.8931732177734375,503.5739300251007
D4:22:CD:00:05:5D,169.0144500732422,-74.03126525878906,-64.26195526123047,3.1002912521362305,1.0716049671173096,-0.08809375762939453,503.60420966148376
D4:22:CD:00:05:6B,151.4285888671875,-89.64064025878906,88.85770416259766,-1.278996229171753,-5.648527145385742,-0.7545385360717773,503.60420966148376
D4:22:CD:00:49:AA,179.56936645507812,-72.61824035644531,100.80278778076172,-0.5132554769515991,0.7981013059616089,-0.5995044708251953,503.60420966148376
D4:22:CD:00:05:6E,24.08074378967285,37.86465072631836,20.162803649902344,-4.554713249206543,3.650198459625244,-2.3061938285827637,503.60420966148376
D4:22:CD:00:05:5E,-137.3771209716797,-39.594852447509766,-45.67036056518555,-2.7381787300109863,-5.176999092102051,-8.574495315551758,503.60420966148376
D4:22:CD:00:05:5D,171.97760009765625,-72.49442291259766,-65.89441680908203,1.3166780471801758,0.41086262464523315,0.10089111328125,503.63429284095764
D4:22:CD:00:05:6B,-63.81444549560547,-86.93663024902344,-60.46992492675781,-2.5706329345703125,-3.608931541442871,-1.183152198791504,503.63429284095764
D4:22:CD:00:49:AA,174.19163513183594,-72.8049087524414,105.29847717285156,-5.292996406555176,-0.3328791856765747,0.7064456939697266,503.63429284095764
D4:22:CD:00:05:6E,34.773536682128906,28.433053970336914,22.255035400390625,-4.007756233215332,5.879687309265137,-2.367949962615967,503.63429284095764
D4:22:CD:00:05:5E,-145.79920959472656,-34.44527053833008,-35.8677978515625,0.8721218109130859,-5.294833183288574,-8.455207824707031,503.63429284095764
D4:22:CD:00:05:5D,173.24102783203125,-70.9052963256836,-65.55035400390625,0.3428305387496948,0.03652849793434143,0.1412181854248047,503.66393852233887
D4:22:CD:00:05:6B,-68.52265167236328,-84.11590576171875,-60.676429748535156,-2.7667293548583984,-0.22019028663635254,-0.7388792037963867,503.66393852233887
D4:22:CD:00:49:AA,168.4574737548828,-73.57815551757812,110.44666290283203,-5.071744918823242,0.21521705389022827,-0.6886701583862305,503.66393852233887
D4:22:CD:00:05:6E,36.43533706665039,12.251795768737793,21.67607307434082,3.4842705726623535,4.537755966186523,-4.742293357849121,503.66393852233887
D4:22:CD:00:05:5E,-155.58265686035156,-30.87578582763672,-28.1403865814209,5.088951110839844,-4.365736961364746,-7.155366897583008,503.66393852233887
D4:22:CD:00:05:5D,173.77395629882812,-69.19377136230469,-64.88362121582031,-0.2598220705986023,-0.5440890789031982,-0.16845989227294922,503.6940143108368
D4:22:CD:00:05:6B,-70.8319320678711,-81.32017517089844,-62.25716781616211,-2.765854835510254,0.9994332790374756,-1.4261302947998047,503.6940143108368
D4:22:CD:00:49:AA,161.97825622558594,-74.521484375,116.7780532836914,-0.7995978593826294,-0.7310279607772827,-3.530407428741455,503.6940143108368
D4:22:CD:00:05:6E,31.24872398376465,-7.505727291107178,18.478960037231445,14.029851913452148,9.341123580932617,5.215105056762695,503.6940143108368
D4:22:CD:00:05:5E,-163.88504028320312,-30.02183723449707,-22.144636154174805,10.011466979980469,-0.3161433935165405,-5.643939971923828,503.6940143108368
D4:22:CD:00:05:5D,173.68801879882812,-66.86199188232422,-63.84133529663086,1.041337251663208,-1.020639419555664,-1.1236772537231445,503.7241289615631
D4:22:CD:00:05:6B,-68.34548950195312,-78.23176574707031,-67.3145523071289,-1.2353429794311523,2.9165773391723633,-2.4959774017333984,503.7241289615631
D4:22:CD:00:49:AA,155.77272033691406,-74.89954376220703,122.5035171508789,0.6370080709457397,-0.4375852346420288,-5.0811767578125,503.7241289615631
D4:22:CD:00:05:6E,22.877464294433594,-28.725372314453125,16.818187713623047,20.076396942138672,6.69495964050293,5.370172500610352,503.7241289615631
D4:22:CD:00:05:5E,-166.55711364746094,-32.735389709472656,-17.89482307434082,17.27715301513672,3.734556198120117,-8.32659912109375,503.7241289615631
D4:22:CD:00:05:5D,173.77459716796875,-63.69984817504883,-62.62485122680664,2.312300682067871,-0.010457724332809448,-1.66314697265625,503.75414395332336
D4:22:CD:00:05:6B,-66.04901885986328,-74.83374786376953,-72.2120590209961,-2.377063751220703,3.752810001373291,-4.622439384460449,503.75414395332336
D4:22:CD:00:49:AA,150.18020629882812,-74.8769302368164,127.38692474365234,0.10603924095630646,1.0889387130737305,-3.222738742828369,503.75414395332336
D4:22:CD:00:05:6E,9.742555618286133,-45.833560943603516,24.24781036376953,17.862884521484375,10.082147598266602,23.6123046875,503.75414395332336
D4:22:CD:00:05:5E,-162.68038940429688,-37.675445556640625,-15.351092338562012,-2.5578184127807617,4.005915641784668,20.825740814208984,503.75414395332336
D4:22:CD:00:05:5D,173.7131805419922,-60.380348205566406,-61.32622528076172,0.2513766288757324,0.16674759984016418,-0.13467979431152344,503.81465458869934
D4:22:CD:00:05:6B,-63.88531494140625,-71.5359115600586,-75.35578155517578,-2.75101375579834,3.4221229553222656,-6.036618232727051,503.81465458869934
D4:22:CD:00:49:AA,143.0892791748047,-74.52132415771484,133.6344451904297,0.751069188117981,2.704977035522461,-2.268587112426758,503.81465458869934
D4:22:CD:00:05:6E,1.9094929695129395,-49.35499572753906,33.625091552734375,11.375581741333008,-2.805644989013672,6.852807998657227,503.81465458869934
D4:22:CD:00:05:5E,-162.26670837402344,-39.251773834228516,-15.168917655944824,15.080894470214844,1.9426968097686768,2.4278745651245117,503.81465458869934
D4:22:CD:00:05:5D,173.170166015625,-57.204620361328125,-59.52899932861328,0.2297884225845337,-0.17076513171195984,-0.7852258682250977,503.8446533679962
D4:22:CD:00:05:6B,-63.510581970214844,-67.84142303466797,-75.87946319580078,-2.0113143920898438,4.186732292175293,-3.63087797164917,503.8446533679962
D4:22:CD:00:49:AA,140.60638427734375,-73.84829711914062,135.34036254882812,-2.3437318801879883,0.6483234167098999,3.902207374572754,503.8446533679962
D4:22:CD:00:05:6E,20.314218521118164,-45.95981979370117,29.7729549407959,9.73780632019043,7.315831184387207,-2.8501124382019043,503.8446533679962
D4:22:CD:00:05:5E,-163.47088623046875,-38.138248443603516,-16.630475997924805,17.29065704345703,2.332393169403076,11.601644515991211,503.8446533679962
D4:22:CD:00:05:5D,173.07952880859375,-54.36332702636719,-58.69724655151367,-0.8117549419403076,-0.4964454770088196,0.6707220077514648,503.8742005825043
D4:22:CD:00:05:6B,-65.49506378173828,-62.824981689453125,-73.79257202148438,-3.5023632049560547,8.722785949707031,4.483101844787598,503.8742005825043
D4:22:CD:00:49:AA,141.2936248779297,-74.0780029296875,135.6295928955078,-3.8744730949401855,0.021607890725135803,8.067733764648438,503.8742005825043
D4:22:CD:00:05:6E,27.234756469726562,-42.76970672607422,31.241931915283203,24.807231903076172,3.7200746536254883,-6.062607765197754,503.8742005825043
D4:22:CD:00:05:5E,-164.01449584960938,-34.98997116088867,-18.044843673706055,15.126001358032227,-7.931219100952148,12.404253005981445,503.8742005825043
D4:22:CD:00:05:5D,173.65040588378906,-52.157814025878906,-58.57838821411133,-0.8971084356307983,0.6938183307647705,1.2772512435913086,503.9043884277344
D4:22:CD:00:05:6B,-72.14884948730469,-55.324066162109375,-69.41045379638672,-3.412487030029297,16.394943237304688,14.536096572875977,503.9043884277344
D4:22:CD:00:49:AA,143.2416229248047,-73.94805145263672,134.44468688964844,1.0798866748809814,2.560619354248047,8.398704528808594,503.9043884277344
D4:22:CD:00:05:6E,50.952152252197266,-39.948570251464844,33.73439407348633,25.160152435302734,16.998947143554688,-9.34121322631836,503.9043884277344
D4:22:CD:00:05:5E,-162.9910888671875,-31.454824447631836,-18.783567428588867,20.150226593017578,-7.540241241455078,6.17901611328125,503.9043884277344
D4:22:CD:00:05:5D,175.01527404785156,-51.21113967895508,-59.3750114440918,-1.4861280918121338,0.874575138092041,1.7559785842895508,503.93438696861267
D4:22:CD:00:05:6B,-77.36561584472656,-43.86949157714844,-63.4522590637207,-4.717703819274902,25.68564224243164,28.506744384765625,503.93438696861267
D4:22:CD:00:49:AA,149.15733337402344,-73.20645904541016,128.91941833496094,-0.6551016569137573,-0.5329571962356567,10.28731918334961,503.93438696861267
D4:22:CD:00:05:6E,74.15182495117188,-36.04997253417969,34.42852783203125,9.03131103515625,21.377384185791016,11.233985900878906,503.93438696861267
D4:22:CD:00:05:5E,-165.6973419189453,-29.15924835205078,-20.255876541137695,10.691915512084961,-8.628538131713867,-1.2971878051757812,503.93438696861267
D4:22:CD:00:05:5D,176.91441345214844,-51.71024703979492,-61.10368728637695,-1.7254838943481445,0.7299827337265015,2.1664810180664062,503.96513199806213
D4:22:CD:00:05:6B,-69.80389404296875,-29.253496170043945,-58.529361724853516,-0.29984331130981445,12.046724319458008,26.170848846435547,503.96513199806213
D4:22:CD:00:49:AA,154.64601135253906,-72.74125671386719,124.59278869628906,-3.2071828842163086,-0.7119213342666626,7.687187194824219,503.96513199806213
D4:22:CD:00:05:6E,80.6601791381836,-32.88274002075195,36.87385559082031,12.992746353149414,16.070720672607422,8.676822662353516,503.96513199806213
D4:22:CD:00:05:5E,-167.77740478515625,-30.893014907836914,-20.136873245239258,12.840662002563477,3.7558417320251465,-1.7537221908569336,503.96513199806213
D4:22:CD:00:05:5D,179.28805541992188,-53.48807144165039,-64.07392120361328,-1.6739752292633057,0.14255008101463318,2.0692930221557617,503.9944472312927
D4:22:CD:00:05:6B,-52.23944091796875,-13.639259338378906,-54.486324310302734,-3.7515268325805664,-7.698851585388184,21.922889709472656,503.9944472312927
D4:22:CD:00:49:AA,161.40170288085938,-71.70012664794922,119.97949981689453,-2.634322166442871,0.41422849893569946,7.823934555053711,503.9944472312927
D4:22:CD:00:05:6E,85.04707336425781,-32.23633575439453,42.45263671875,-0.10277043282985687,12.209047317504883,12.756973266601562,503.9944472312927
D4:22:CD:00:05:5E,-161.47250366210938,-39.10469055175781,-22.000621795654297,4.392687797546387,-1.2876884937286377,1.838322639465332,503.9944472312927
D4:22:CD:00:05:5D,-177.55221557617188,-56.650264739990234,-67.86921691894531,-0.46366792917251587,1.8671643733978271,2.497119903564453,504.0245141983032
D4:22:CD:00:05:6B,-34.44190216064453,0.05796869099140167,-51.9710807800293,0.7581784725189209,-7.221953392028809,-4.5505876541137695,504.0245141983032
D4:22:CD:00:49:AA,166.07339477539062,-71.21319580078125,118.16423797607422,-2.130972385406494,0.4656633138656616,6.8040924072265625,504.0245141983032
D4:22:CD:00:05:6E,85.31572723388672,-34.623958587646484,49.84457778930664,-4.046504974365234,2.502847194671631,6.398317337036133,504.0245141983032
D4:22:CD:00:05:5E,-159.13168334960938,-49.84642028808594,-24.76886749267578,3.855400562286377,-2.3961405754089355,0.4498405456542969,504.0245141983032
D4:22:CD:00:05:5D,-172.89381408691406,-61.7724723815918,-72.49225616455078,-2.9305195808410645,1.9413883686065674,4.625286102294922,504.0546336174011
D4:22:CD:00:05:6B,-25.202842712402344,10.715267181396484,-49.71137237548828,-2.8822693824768066,-4.157803535461426,-2.9954943656921387,504.0546336174011
D4:22:CD:00:49:AA,169.132080078125,-70.54177856445312,118.1603775024414,-3.3055405616760254,-0.45057952404022217,-1.2240982055664062,504.0546336174011
D4:22:CD:00:05:6E,87.50558471679688,-38.154624938964844,55.73619842529297,-11.174209594726562,-1.9536707401275635,0.5117502212524414,504.0546336174011
D4:22:CD:00:05:5E,-152.537353515625,-62.68788146972656,-30.63134002685547,0.9550238847732544,0.9083068370819092,1.5748872756958008,504.0546336174011
