Device,EulerX,EulerY,EulerZ,FreeAccX,FreeAccY,FreeAccZ,Timestamp
D4:22:CD:00:05:5D,179.58624267578125,-56.315467834472656,-119.65682983398438,2.177812099456787,2.6441478729248047,-3.3318185806274414,1389.4091453552246
D4:22:CD:00:05:6B,-63.06850051879883,-19.977313995361328,-66.84467315673828,-4.5364179611206055,0.7672014236450195,12.360509872436523,1389.4091453552246
D4:22:CD:00:49:AA,138.18792724609375,-69.2427749633789,151.6581573486328,-1.370835304260254,0.6611264944076538,5.244366645812988,1389.4091453552246
D4:22:CD:00:05:6E,56.023929595947266,-80.22821044921875,111.44984436035156,5.170604705810547,-10.531103134155273,8.809463500976562,1389.4091453552246
D4:22:CD:00:05:5E,166.475341796875,-50.40658187866211,-27.76432228088379,16.703346252441406,1.0052576065063477,12.132770538330078,1389.4091453552246
D4:22:CD:00:05:5D,178.98622131347656,-51.8018684387207,-117.84685516357422,4.320802688598633,-1.9092113971710205,1.7204923629760742,1389.4182798862457
D4:22:CD:00:05:6B,-61.85782241821289,-11.31229019165039,-67.45201110839844,1.631018877029419,0.591505765914917,14.988908767700195,1389.4182798862457
D4:22:CD:00:49:AA,136.7196044921875,-68.29261779785156,153.14337158203125,-0.3592764735221863,-1.0508193969726562,8.272359848022461,1389.4182798862457
D4:22:CD:00:05:6E,76.00040435791016,-80.29975891113281,78.40624237060547,3.9273719787597656,11.371131896972656,6.865287780761719,1389.4182798862457
D4:22:CD:00:05:5E,171.77435302734375,-47.37739944458008,-31.557096481323242,11.343395233154297,-7.891486167907715,14.959421157836914,1389.4182798862457
D4:22:CD:00:49:AA,134.37315368652344,-67.84857940673828,154.44749450683594,-4.133304595947266,-2.125692367553711,10.777807235717773,1389.428317308426
D4:22:CD:00:05:6E,92.3145980834961,-78.27057647705078,60.03459548950195,8.562122344970703,6.3538970947265625,14.731754302978516,1389.428317308426
D4:22:CD:00:05:5E,177.5321807861328,-43.757080078125,-33.86772537231445,12.205450057983398,-8.845123291015625,13.139989852905273,1389.428317308426
D4:22:CD:00:05:5D,-133.3437957763672,-78.61305236816406,-120.69461059570312,-2.574439525604248,1.4952893257141113,-0.7035398483276367,1389.4354538917542
D4:22:CD:00:05:6B,-39.81878662109375,-43.353267669677734,-102.25497436523438,-0.10382416844367981,0.8442990779876709,-2.6430931091308594,1389.4354538917542
D4:22:CD:00:05:6E,100.9072494506836,-76.41902160644531,56.85783767700195,2.6603245735168457,4.26453971862793,14.692148208618164,1389.4354538917542
D4:22:CD:00:05:5E,177.4088897705078,-39.59008026123047,-37.20564270019531,9.16950798034668,-7.925897598266602,4.373551368713379,1389.4354538917542
D4:22:CD:00:05:5D,176.19366455078125,-59.65718078613281,-71.33197784423828,-1.277491807937622,1.1259372234344482,0.6453123092651367,1389.4466335773468
D4:22:CD:00:05:6B,-49.27615737915039,-26.32857894897461,-103.91334533691406,-1.3548202514648438,-0.7540689706802368,8.401336669921875,1389.4466335773468
D4:22:CD:00:49:AA,140.76287841796875,-68.55631256103516,144.38539123535156,-3.014355182647705,1.7810473442077637,7.141876220703125,1389.4466335773468
D4:22:CD:00:05:6E,-5.309016704559326,-76.5280532836914,116.9051513671875,-0.2642512917518616,1.8486666679382324,18.331573486328125,1389.4466335773468
D4:22:CD:00:05:5D,175.16705322265625,-55.50419235229492,-70.54656219482422,-3.053009033203125,0.8296501636505127,1.729227066040039,1389.4773740768433
D4:22:CD:00:05:6B,-58.49052429199219,-16.754985809326172,-102.42758178710938,-1.4569404125213623,5.274956703186035,19.96951675415039,1389.4773740768433
D4:22:CD:00:49:AA,148.76394653320312,-70.60091400146484,135.8236083984375,-2.8936095237731934,-2.5162625312805176,9.691307067871094,1389.4773740768433
D4:22:CD:00:05:6E,-13.547292709350586,-72.69232940673828,128.82151794433594,-8.982105255126953,4.080819129943848,15.772464752197266,1389.4773740768433
D4:22:CD:00:05:5E,-153.98123168945312,-74.42204284667969,-41.304176330566406,0.9706039428710938,-2.682816505432129,7.715436935424805,1389.4773740768433
D4:22:CD:00:05:5D,175.18356323242188,-53.04478454589844,-71.29104614257812,-1.7858269214630127,0.7257280349731445,1.9641666412353516,1389.507815361023
D4:22:CD:00:05:6B,-61.364112854003906,-3.487171173095703,-98.71499633789062,7.113228797912598,-0.8153824806213379,32.201942443847656,1389.507815361023
D4:22:CD:00:49:AA,161.89219665527344,-71.26660919189453,123.28333282470703,-0.6907399892807007,1.038862705230713,10.161731719970703,1389.507815361023
D4:22:CD:00:05:6E,24.446184158325195,-77.62971496582031,96.2257308959961,-5.767149925231934,4.315190315246582,12.239286422729492,1389.507815361023
D4:22:CD:00:05:5E,-159.47373962402344,-80.49530029296875,-40.237510681152344,4.502307891845703,-0.3134646415710449,3.7829103469848633,1389.507815361023
D4:22:CD:00:05:5D,175.61537170410156,-52.43080139160156,-72.4787368774414,0.39980876445770264,1.6632037162780762,2.2714977264404297,1389.5673265457153
D4:22:CD:00:05:6B,-49.117164611816406,11.234787940979004,-94.53759002685547,5.405576705932617,-13.066463470458984,23.93688201904297,1389.5673265457153
D4:22:CD:00:49:AA,169.9974822998047,-72.33202362060547,115.92707824707031,1.0346989631652832,0.4752506613731384,9.261018753051758,1389.5673265457153
D4:22:CD:00:05:6E,65.32064056396484,-76.54237365722656,65.17256164550781,-3.113306999206543,-1.029468059539795,7.8703460693359375,1389.5673265457153
D4:22:CD:00:05:5E,-58.57636642456055,-85.2530288696289,-143.65731811523438,-0.4682576656341553,2.656291961669922,3.1702070236206055,1389.5673265457153
D4:22:CD:00:05:5D,176.0150146484375,-53.629066467285156,-73.03162384033203,1.2083899974822998,1.7024400234222412,2.345602035522461,1389.5973308086395
D4:22:CD:00:05:6B,-34.943363189697266,24.02249526977539,-89.97087860107422,2.8736886978149414,-16.489253997802734,11.69831657409668,1389.5973308086395
D4:22:CD:00:49:AA,176.98428344726562,-73.78130340576172,110.5571060180664,-4.272477149963379,-0.6676756143569946,7.445653915405273,1389.5973308086395
D4:22:CD:00:05:6E,72.7845458984375,-74.85819244384766,67.44959259033203,-6.535165786743164,-4.932427406311035,1.7807044982910156,1389.5973308086395
D4:22:CD:00:05:5E,-26.641382217407227,-75.76868438720703,-177.7441864013672,-2.9647459983825684,2.940694808959961,0.40035343170166016,1389.5973308086395
D4:22:CD:00:05:5D,176.90902709960938,-56.71114730834961,-72.98868560791016,-0.7269794940948486,1.3767642974853516,2.8807125091552734,1389.6275601387024
D4:22:CD:00:05:6B,-22.55666732788086,33.45667266845703,-86.46542358398438,-12.49176025390625,-12.484745025634766,2.7014732360839844,1389.6275601387024
D4:22:CD:00:49:AA,-171.93748474121094,-74.9303207397461,102.74920654296875,-4.061424255371094,1.097205400466919,1.8820781707763672,1389.6275601387024
D4:22:CD:00:05:6E,66.31055450439453,-74.89762878417969,82.30028533935547,-3.866034507751465,-4.704877853393555,-1.3487129211425781,1389.6275601387024
D4:22:CD:00:05:5E,-16.528480529785156,-65.87895965576172,171.43638610839844,-4.569178581237793,3.9310860633850098,-1.1440801620483398,1389.6275601387024
D4:22:CD:00:05:5D,178.01309204101562,-61.65930938720703,-72.97277069091797,-2.870807647705078,-0.2600296139717102,5.7006378173828125,1389.657229423523
D4:22:CD:00:05:6B,-11.774231910705566,39.806800842285156,-84.3475570678711,-12.375640869140625,2.6057891845703125,-5.337203025817871,1389.657229423523
D4:22:CD:00:49:AA,-159.6559600830078,-74.58968353271484,94.64051818847656,-0.5225604772567749,0.054017603397369385,-4.890688896179199,1389.657229423523
D4:22:CD:00:05:6E,51.301639556884766,-75.44943237304688,108.24791717529297,-4.625151634216309,-5.326105117797852,-5.453968048095703,1389.657229423523
D4:22:CD:00:05:5E,-10.278599739074707,-56.28832244873047,163.60830688476562,-10.244331359863281,3.5338034629821777,-4.717352867126465,1389.657229423523
D4:22:CD:00:05:5D,177.4169464111328,-67.17012023925781,-71.8622055053711,2.1067323684692383,-10.115316390991211,8.522245407104492,1389.6874494552612
D4:22:CD:00:05:6B,-6.898226261138916,45.22822189331055,-82.1443099975586,-11.130477905273438,5.894509315490723,-10.126260757446289,1389.6874494552612
D4:22:CD:00:49:AA,-152.20802307128906,-72.03559875488281,91.7112045288086,1.8480784893035889,-0.0919807106256485,-6.586358070373535,1389.6874494552612
D4:22:CD:00:05:6E,31.55051612854004,-74.6707534790039,138.788818359375,-5.71994686126709,-7.255892753601074,-6.8987016677856445,1389.6874494552612
D4:22:CD:00:05:5E,-11.267906188964844,-49.43559265136719,157.63650512695312,-14.154922485351562,8.137317657470703,-11.633733749389648,1389.6874494552612
D4:22:CD:00:05:5D,169.99986267089844,-73.25384521484375,-70.35871124267578,1.684920072555542,-2.8333001136779785,-3.613190174102783,1389.7174491882324
D4:22:CD:00:05:6B,-2.7830212116241455,50.39208984375,-80.206787109375,-6.701211929321289,5.819582939147949,-12.005691528320312,1389.7174491882324
D4:22:CD:00:49:AA,-150.7401580810547,-70.23878479003906,91.6180648803711,3.862856388092041,2.8331446647644043,-7.236210823059082,1389.7174491882324
D4:22:CD:00:05:6E,13.190078735351562,-73.1329574584961,164.59962463378906,-2.66195011138916,-6.011998176574707,-8.03725814819336,1389.7174491882324
D4:22:CD:00:05:5E,-16.860687255859375,-46.393089294433594,153.84542846679688,-14.711156845092773,8.330133438110352,-14.281856536865234,1389.7174491882324
D4:22:CD:00:05:5D,162.65972900390625,-74.44451141357422,-60.727725982666016,3.50173282623291,4.939237594604492,-9.279142379760742,1389.7477374076843
D4:22:CD:00:05:6B,1.7737128734588623,55.61918640136719,-82.25389862060547,-1.0605132579803467,3.9127840995788574,-13.240777969360352,1389.7477374076843
D4:22:CD:00:49:AA,-149.45223999023438,-71.10383605957031,89.02359771728516,2.574550151824951,1.0318195819854736,-10.387372970581055,1389.7477374076843
D4:22:CD:00:05:6E,-0.4021964371204376,-71.91549682617188,-176.49346923828125,0.7028114795684814,-5.104039192199707,-8.946044921875,1389.7477374076843
D4:22:CD:00:05:5E,-23.088085174560547,-46.697998046875,153.4754638671875,-8.198966979980469,12.430038452148438,-18.770835876464844,1389.7477374076843
D4:22:CD:00:05:5D,156.83457946777344,-75.04840087890625,-46.83262252807617,6.44053840637207,-3.487182140350342,-10.69888687133789,1389.7772283554077
D4:22:CD:00:05:6B,3.2762246131896973,60.38264846801758,-91.43721771240234,1.7072582244873047,3.3860878944396973,-12.032018661499023,1389.7772283554077
D4:22:CD:00:49:AA,-144.45675659179688,-73.483154296875,83.84827423095703,-1.0241093635559082,-0.7465298175811768,-9.417911529541016,1389.7772283554077
D4:22:CD:00:05:6E,-9.429656028747559,-70.89308166503906,-163.77525329589844,1.365802526473999,-4.788805961608887,-8.256341934204102,1389.7772283554077
D4:22:CD:00:05:5E,-22.290407180786133,-49.47869110107422,155.7330780029297,-9.382219314575195,10.198373794555664,-19.290332794189453,1389.7772283554077
D4:22:CD:00:05:5D,154.32984924316406,-75.87572479248047,-34.86262130737305,-9.683534622192383,18.017539978027344,-6.882472991943359,1389.807228565216
D4:22:CD:00:05:6B,-5.41856050491333,62.50075912475586,-110.45494842529297,8.387781143188477,2.685091972351074,-9.366483688354492,1389.807228565216
D4:22:CD:00:49:AA,-137.74928283691406,-74.98225402832031,77.53939056396484,-2.1831932067871094,-0.8539999723434448,-7.047623634338379,1389.807228565216
D4:22:CD:00:05:6E,-15.172563552856445,-69.74777221679688,-156.68553161621094,-0.11461053788661957,-6.546677589416504,-7.923321723937988,1389.807228565216
D4:22:CD:00:05:5E,-23.70948600769043,-55.5946159362793,161.44284057617188,-14.986845016479492,2.282278537750244,-14.959152221679688,1389.807228565216
D4:22:CD:00:05:5D,154.5018768310547,-72.94843292236328,-30.923873901367188,-0.34382015466690063,0.9494456052780151,-7.583976745605469,1389.8676109313965
D4:22:CD:00:05:6B,-25.088226318359375,58.3345832824707,-136.61135864257812,-2.0289859771728516,0.5668833255767822,-17.058597564697266,1389.8676109313965
D4:22:CD:00:49:AA,-132.42724609375,-75.35553741455078,72.58302307128906,-0.7373719215393066,-0.3095318078994751,-3.0589632987976074,1389.8676109313965
D4:22:CD:00:05:6E,-19.54249382019043,-68.60380554199219,-154.21389770507812,-0.6785802841186523,-6.1146345138549805,-6.543985366821289,1389.8676109313965
D4:22:CD:00:05:5E,-34.34716033935547,-63.9521484375,172.83541870117188,-15.77044677734375,0.7485781908035278,-8.29334831237793,1389.8676109313965
D4:22:CD:00:05:5D,152.0094451904297,-70.9945068359375,-30.970680236816406,0.7906349897384644,-3.856464385986328,-0.038177490234375,1389.8971741199493
D4:22:CD:00:05:6B,-39.6038703918457,45.734683990478516,-155.6633758544922,-24.397323608398438,-3.385232925415039,-29.619380950927734,1389.8971741199493
D4:22:CD:00:49:AA,-130.73779296875,-75.25340270996094,69.10457611083984,1.6893861293792725,0.68812096118927,-0.7693204879760742,1389.8971741199493
D4:22:CD:00:05:6E,-21.48454475402832,-67.48847961425781,-153.4811248779297,0.42505794763565063,-5.946632385253906,-4.486908912658691,1389.8971741199493
D4:22:CD:00:05:5E,-56.82788848876953,-71.8771743774414,-168.42698669433594,-0.9242441654205322,-11.457298278808594,7.211387634277344,1389.8971741199493
D4:22:CD:00:05:5D,149.70877075195312,-68.57205200195312,-28.421598434448242,6.179226875305176,-0.7287454605102539,1.3309059143066406,1389.9271757602692
D4:22:CD:00:05:6B,-38.40806198120117,37.500709533691406,-165.8993377685547,-5.575909614562988,4.341804504394531,-13.75905990600586,1389.9271757602692
D4:22:CD:00:49:AA,-132.58486938476562,-74.962158203125,68.54298400878906,-1.7036466598510742,-1.586745262145996,2.9220476150512695,1389.9271757602692
D4:22:CD:00:05:6E,-19.37678337097168,-66.28913879394531,-153.1449432373047,-0.24420583248138428,-5.300694465637207,-4.310072898864746,1389.9271757602692
D4:22:CD:00:05:5E,-73.42256164550781,-75.4824447631836,-150.3766632080078,-5.869884490966797,-14.622209548950195,-2.954463481903076,1389.9271757602692
D4:22:CD:00:05:5D,146.6651611328125,-67.19387817382812,-24.830493927001953,2.2582173347473145,-0.2400059700012207,9.192171096801758,1389.9568865299225
D4:22:CD:00:05:6B,-41.52309799194336,38.84468460083008,-160.88194274902344,9.42972183227539,-5.432310104370117,-6.329470634460449,1389.9568865299225
D4:22:CD:00:49:AA,-137.72743225097656,-74.67897033691406,71.15567779541016,-3.4501218795776367,-2.3588356971740723,11.061542510986328,1389.9568865299225
D4:22:CD:00:05:6E,-15.548121452331543,-65.15523529052734,-150.38906860351562,-1.7294130325317383,-5.898642539978027,-2.15077543258667,1389.9568865299225
D4:22:CD:00:05:5E,-97.54510498046875,-78.11561584472656,-129.8435516357422,3.832995891571045,7.882272720336914,10.817123413085938,1389.9568865299225
D4:22:CD:00:05:5D,141.6979522705078,-65.6332015991211,-21.31537628173828,0.1108776181936264,0.8773976564407349,1.3130435943603516,1389.9881043434143
D4:22:CD:00:05:6B,-37.76295471191406,43.46434783935547,-148.67559814453125,-11.3177490234375,0.855900764465332,-5.274640083312988,1389.9881043434143
D4:22:CD:00:49:AA,-143.15093994140625,-74.50885009765625,72.770263671875,3.168631076812744,-2.4074807167053223,0.8015718460083008,1389.9881043434143
D4:22:CD:00:05:6E,-12.965862274169922,-65.36251831054688,-143.76785278320312,-0.01647092029452324,-9.32809066772461,4.247514724731445,1389.9881043434143
D4:22:CD:00:05:5E,-119.9765625,-76.65352630615234,-110.84590148925781,-8.220512390136719,-1.8302116394042969,-4.705565452575684,1389.9881043434143
D4:22:CD:00:05:5D,136.0701904296875,-64.11482238769531,-18.168649673461914,2.8717432022094727,-0.2535620331764221,2.322725296020508,1390.0171012878418
D4:22:CD:00:05:6B,-28.5082950592041,46.16583251953125,-132.1328125,-2.360574245452881,-2.9959774017333984,-16.009082794189453,1390.0171012878418
D4:22:CD:00:49:AA,-145.29519653320312,-74.2941665649414,71.2927474975586,5.401742935180664,-0.3324365019798279,-3.0671796798706055,1390.0171012878418
D4:22:CD:00:05:6E,-13.030464172363281,-67.26123046875,-137.8448944091797,3.5567288398742676,-11.778718948364258,1.8453140258789062,1390.0171012878418
D4:22:CD:00:05:5E,-134.0979766845703,-75.58635711669922,-98.18663787841797,-3.5833516120910645,-0.00394254457205534,0.8256101608276367,1390.0171012878418
D4:22:CD:00:05:5D,131.5214385986328,-62.60874557495117,-16.939838409423828,8.660648345947266,1.7078185081481934,3.475895881652832,1390.0471241474152
D4:22:CD:00:05:6B,-23.55864143371582,45.46212387084961,-114.7002182006836,-7.6657304763793945,-2.8635172843933105,-3.4998693466186523,1390.0471241474152
D4:22:CD:00:49:AA,-145.98680114746094,-73.47559356689453,70.38763427734375,7.028596878051758,0.8219209909439087,0.9480323791503906,1390.0471241474152
D4:22:CD:00:05:6E,-20.41702651977539,-71.52448272705078,-136.83560180664062,-0.03164582699537277,-10.161685943603516,0.761688232421875,1390.0471241474152
D4:22:CD:00:05:5E,-139.9949188232422,-74.79518127441406,-93.7087173461914,-5.306347846984863,-1.9122319221496582,-0.6942520141601562,1390.0471241474152
D4:22:CD:00:05:5D,130.05801391601562,-61.440067291259766,-19.48297882080078,6.850844383239746,2.084813117980957,5.175115585327148,1390.0767369270325
D4:22:CD:00:05:6B,-18.522302627563477,42.0140495300293,-100.9638900756836,-2.6049137115478516,0.6638214588165283,3.6514415740966797,1390.0767369270325
D4:22:CD:00:49:AA,-146.93972778320312,-72.93711853027344,70.45264434814453,3.401362895965576,-0.25438833236694336,1.159825325012207,1390.0767369270325
D4:22:CD:00:05:6E,-29.907991409301758,-76.61787414550781,-142.70852661132812,-1.378957748413086,-0.23383018374443054,5.980135917663574,1390.0767369270325
D4:22:CD:00:05:5E,-143.36517333984375,-73.9244384765625,-91.89176177978516,-3.519371509552002,0.767544150352478,-0.04920673370361328,1390.0767369270325
D4:22:CD:00:05:5D,126.94401550292969,-61.11567306518555,-26.021928787231445,-0.735918402671814,13.122066497802734,6.7690277099609375,1390.1074571609497
D4:22:CD:00:05:6B,-13.799717903137207,35.932823181152344,-90.24170684814453,-4.960592269897461,11.642311096191406,10.763860702514648,1390.1074571609497
D4:22:CD:00:49:AA,-150.0571746826172,-72.84577941894531,71.41592407226562,1.2552626132965088,3.5621142387390137,-1.3094100952148438,1390.1074571609497
D4:22:CD:00:05:6E,-23.216739654541016,-78.79869079589844,-160.0049285888672,0.11552563309669495,2.0721583366394043,4.802708625793457,1390.1074571609497
D4:22:CD:00:05:5E,-146.52243041992188,-73.2246322631836,-89.98568725585938,-2.6018004417419434,1.2397801876068115,0.4702157974243164,1390.1074571609497
D4:22:CD:00:05:5D,131.68356323242188,-57.02483367919922,-38.719810485839844,6.046783447265625,16.452239990234375,2.0001220703125,1390.167504310608
D4:22:CD:00:05:6B,-5.9944305419921875,26.544645309448242,-79.12161254882812,-5.176219940185547,11.32687759399414,1.9142036437988281,1390.167504310608
D4:22:CD:00:49:AA,-152.21824645996094,-72.92052459716797,72.72811126708984,5.766321182250977,1.871152400970459,2.3067092895507812,1390.167504310608
D4:22:CD:00:05:6E,-0.5704959630966187,-77.51415252685547,179.80738830566406,-2.954941749572754,1.5691819190979004,1.4397954940795898,1390.167504310608
D4:22:CD:00:05:5E,-148.96702575683594,-73.28878021240234,-87.87491607666016,-3.041818618774414,0.7210026979446411,0.540898323059082,1390.167504310608
D4:22:CD:00:05:5D,141.9998321533203,-50.6036491394043,-53.2857551574707,1.9810376167297363,7.839766502380371,1.4005966186523438,1390.197595357895
D4:22:CD:00:05:6B,2.8256165981292725,14.849912643432617,-65.99678039550781,8.323442459106445,1.4179949760437012,-7.065814018249512,1390.197595357895
D4:22:CD:00:49:AA,-153.24203491210938,-72.80924224853516,73.49933624267578,6.6924028396606445,2.0479660034179688,4.821169853210449,1390.197595357895
D4:22:CD:00:05:6E,20.077266693115234,-74.36056518554688,166.5635528564453,-7.285008430480957,-3.650331974029541,0.5573539733886719,1390.197595357895
D4:22:CD:00:05:5E,-150.80894470214844,-74.09589385986328,-86.54229736328125,-3.847701072692871,0.4603468179702759,0.04955863952636719,1390.197595357895
D4:22:CD:00:05:5D,149.08218383789062,-42.69615173339844,-64.9468765258789,-3.0897626876831055,1.0007832050323486,-3.5751566886901855,1390.2273118495941
D4:22:CD:00:05:6B,-3.4859790802001953,3.1244635581970215,-52.815086364746094,18.666072845458984,11.806219100952148,-7.892423629760742,1390.2273118495941
D4:22:CD:00:49:AA,-155.02650451660156,-73.18167114257812,74.84844970703125,2.9714303016662598,3.6628260612487793,2.4942893981933594,1390.2273118495941
D4:22:CD:00:05:6E,29.42522430419922,-71.43319702148438,159.6978302001953,-6.986919403076172,-3.094287872314453,0.7298545837402344,1390.2273118495941
D4:22:CD:00:05:5E,-151.46664428710938,-75.2980728149414,-86.39342498779297,-3.7066845893859863,-0.3147518038749695,-0.2501535415649414,1390.2273118495941
D4:22:CD:00:05:5D,154.46337890625,-34.178436279296875,-72.79845428466797,-4.808924674987793,-0.1759185492992401,-8.687646865844727,1390.2573232650757
D4:22:CD:00:05:6B,-20.483154296875,-5.664154529571533,-41.35053253173828,-8.66861343383789,-11.940038681030273,5.080538749694824,1390.2573232650757
D4:22:CD:00:49:AA,-157.38258361816406,-74.07022094726562,76.79114532470703,-0.1434457004070282,2.680576801300049,1.1646289825439453,1390.2573232650757
D4:22:CD:00:05:6E,32.49142074584961,-69.51910400390625,156.83535766601562,-5.461907386779785,-2.0926480293273926,0.5878934860229492,1390.2573232650757
D4:22:CD:00:05:5E,-151.35598754882812,-76.31124877929688,-87.04966735839844,-2.918356418609619,-0.33384227752685547,-0.6617364883422852,1390.2573232650757
D4:22:CD:00:05:5D,159.69764709472656,-26.738975524902344,-78.14590454101562,-3.061960220336914,0.9418612718582153,-9.454879760742188,1390.2873232364655
D4:22:CD:00:05:6B,-23.710485458374023,-10.96995735168457,-33.26133728027344,2.599247932434082,4.389702796936035,2.37302303314209,1390.2873232364655
D4:22:CD:00:49:AA,-159.0261688232422,-74.90559387207031,79.2818832397461,0.5273157358169556,2.1062283515930176,-1.6087665557861328,1390.2873232364655
D4:22:CD:00:05:6E,36.32102584838867,-68.8293228149414,155.13450622558594,-3.9057674407958984,-1.5509788990020752,-0.6680517196655273,1390.2873232364655
D4:22:CD:00:05:5E,-151.0189208984375,-76.75724029541016,-87.77677917480469,-2.5986790657043457,-0.8891711235046387,-1.2010364532470703,1390.2873232364655
D4:22:CD:00:05:5D,164.5011444091797,-21.85176658630371,-82.74889373779297,-5.260336875915527,-0.9860432147979736,-8.628419876098633,1390.3174040317535
D4:22:CD:00:05:6B,-31.117328643798828,-15.17053508758545,-29.58453369140625,1.8208239078521729,5.078780174255371,-2.4708309173583984,1390.3174040317535
D4:22:CD:00:49:AA,-160.6181182861328,-75.30736541748047,82.2739486694336,2.4198317527770996,1.5447852611541748,-3.1346168518066406,1390.3174040317535
D4:22:CD:00:05:6E,41.92060852050781,-68.88289642333984,152.269287109375,-2.3352770805358887,-1.9053549766540527,-2.1784677505493164,1390.3174040317535
D4:22:CD:00:05:5E,-150.84201049804688,-76.10116577148438,-87.80127716064453,-1.7217762470245361,-0.7513753175735474,-1.030381202697754,1390.3174040317535
D4:22:CD:00:05:5D,166.83509826660156,-20.482934951782227,-87.05369567871094,-3.403902530670166,-1.8329062461853027,-7.783822059631348,1390.347030878067
D4:22:CD:00:05:6B,-37.430118560791016,-20.51255226135254,-29.00480842590332,-0.551956295967102,-1.5951638221740723,0.8533744812011719,1390.347030878067
D4:22:CD:00:49:AA,-162.08731079101562,-76.1484375,85.05518341064453,2.6236515045166016,0.6403611898422241,-4.8327789306640625,1390.347030878067
D4:22:CD:00:05:6E,48.52223587036133,-68.81980895996094,147.22433471679688,-1.1310808658599854,-1.3904900550842285,-4.416367530822754,1390.347030878067
D4:22:CD:00:05:5E,-151.6179656982422,-73.72490692138672,-87.16397094726562,-3.514479637145996,-2.2383551597595215,-1.0140247344970703,1390.347030878067
D4:22:CD:00:05:5D,165.21937561035156,-23.3364315032959,-91.32154083251953,-4.556779861450195,-6.013738632202148,-5.828510284423828,1390.3776469230652
D4:22:CD:00:05:6B,-38.63616943359375,-28.481468200683594,-29.482105255126953,4.1568193435668945,-2.304281234741211,-5.164646148681641,1390.3776469230652
D4:22:CD:00:49:AA,-163.3462677001953,-76.8957290649414,87.44248962402344,2.8326988220214844,-0.6022026538848877,-6.4763689041137695,1390.3776469230652
D4:22:CD:00:05:6E,55.13026428222656,-68.54182434082031,141.32485961914062,-0.5497446060180664,-2.231600284576416,-5.117303848266602,1390.3776469230652
D4:22:CD:00:05:5E,-152.32916259765625,-70.32546997070312,-86.82056427001953,-1.7800273895263672,1.0426356792449951,-1.8508658409118652,1390.3776469230652
D4:22:CD:00:05:5D,159.59474182128906,-28.80658531188965,-94.22138977050781,0.39280927181243896,-1.298776388168335,14.070894241333008,1390.4076499938965
D4:22:CD:00:05:6B,-42.656620025634766,-41.19602584838867,-29.019277572631836,10.779144287109375,-8.276390075683594,-1.6189603805541992,1390.4076499938965
D4:22:CD:00:49:AA,-163.8861846923828,-77.18787384033203,88.1380844116211,4.846611022949219,-2.312397003173828,-5.180144309997559,1390.4076499938965
D4:22:CD:00:05:6E,59.12499237060547,-67.99373626708984,136.76425170898438,2.2293691635131836,-3.7065696716308594,-3.3411011695861816,1390.4076499938965
D4:22:CD:00:05:5E,-152.3800506591797,-66.87773132324219,-88.22061920166016,-2.060882568359375,1.3496301174163818,-1.1558332443237305,1390.4076499938965
D4:22:CD:00:05:5D,156.26210021972656,-30.999460220336914,-92.63308715820312,-3.4905686378479004,-13.900367736816406,0.9511728286743164,1390.4672682285309
D4:22:CD:00:05:6B,-48.13842010498047,-55.63718795776367,-29.62220001220703,15.694482803344727,-2.627242088317871,37.14476013183594,1390.4672682285309
D4:22:CD:00:49:AA,-162.7132568359375,-77.43412780761719,85.85459899902344,2.76762056350708,-1.445603370666504,0.2790079116821289,1390.4672682285309
D4:22:CD:00:05:6E,61.16392135620117,-65.32170104980469,135.15797424316406,3.119812488555908,-4.944058418273926,-0.7224941253662109,1390.4672682285309
D4:22:CD:00:05:5E,-152.87136840820312,-64.08230590820312,-90.33348083496094,-5.299434661865234,1.699981689453125,-2.9235053062438965,1390.4672682285309
D4:22:CD:00:05:5D,159.77151489257812,-31.805479049682617,-89.22418212890625,-0.662688136100769,-15.649799346923828,1.910109519958496,1390.4973323345184
D4:22:CD:00:05:6B,-38.343387603759766,-61.54410171508789,-40.460575103759766,6.583909034729004,-6.7899980545043945,17.310413360595703,1390.4973323345184
D4:22:CD:00:49:AA,-162.0228729248047,-76.92499542236328,84.05858612060547,-4.159772872924805,-1.4828848838806152,0.4996910095214844,1390.4973323345184
D4:22:CD:00:05:6E,67.1741714477539,-59.04917907714844,133.12509155273438,-1.168848991394043,-9.032854080200195,7.837732315063477,1390.4973323345184
D4:22:CD:00:05:5E,-153.74778747558594,-62.434814453125,-89.7420883178711,-1.657423496246338,-2.5585718154907227,3.2356958389282227,1390.4973323345184
D4:22:CD:00:05:5D,163.5587615966797,-29.92856788635254,-85.61564636230469,-8.40998649597168,-17.868946075439453,12.880500793457031,1390.5273327827454
D4:22:CD:00:05:6B,-36.88570022583008,-58.75265121459961,-41.80792236328125,13.715494155883789,-3.9778428077697754,-1.8870339393615723,1390.5273327827454
D4:22:CD:00:49:AA,-162.54681396484375,-75.5745849609375,84.00983428955078,-2.1869864463806152,-0.7786740064620972,5.789994239807129,1390.5273327827454
D4:22:CD:00:05:6E,75.86197662353516,-48.26763153076172,130.1815185546875,2.4477906227111816,-8.536943435668945,20.473331451416016,1390.5273327827454
D4:22:CD:00:05:5E,-156.05055236816406,-61.24663543701172,-87.31665802001953,-3.669574737548828,1.5214874744415283,2.3555984497070312,1390.5273327827454
D4:22:CD:00:05:5D,160.32693481445312,-23.0949649810791,-83.3515853881836,3.2722716331481934,-16.710208892822266,14.21327018737793,1390.5570714473724
D4:22:CD:00:05:6B,-51.71451950073242,-47.286617279052734,-34.84812927246094,13.586311340332031,-18.326011657714844,13.04365348815918,1390.5570714473724
D4:22:CD:00:49:AA,-163.93731689453125,-76.54137420654297,84.61289978027344,6.409257888793945,4.363770484924316,7.12004280090332,1390.5570714473724
D4:22:CD:00:05:6E,84.81014251708984,-33.59788513183594,124.96914672851562,2.5839481353759766,-17.92254638671875,23.373863220214844,1390.5570714473724
D4:22:CD:00:05:5E,-156.94308471679688,-61.85411834716797,-86.58150482177734,-4.826315879821777,1.3853392601013184,1.9310007095336914,1390.5570714473724
D4:22:CD:00:05:5D,157.8658447265625,-15.279905319213867,-84.71321868896484,-4.041374206542969,-16.136322021484375,11.002445220947266,1390.586746931076
D4:22:CD:00:05:6B,-59.76751708984375,-32.19480514526367,-33.625816345214844,13.872520446777344,-17.157032012939453,8.48196792602539,1390.586746931076
D4:22:CD:00:49:AA,-170.0745391845703,-77.3172607421875,89.23895263671875,6.8015947341918945,6.04063606262207,10.86795425415039,1390.586746931076
D4:22:CD:00:05:6E,87.03099060058594,-18.14038848876953,115.61346435546875,2.474764823913574,-5.340405464172363,20.922462463378906,1390.586746931076
D4:22:CD:00:05:5E,-156.1574249267578,-64.2159652709961,-88.70068359375,-5.778509140014648,1.3901476860046387,2.8881664276123047,1390.586746931076
D4:22:CD:00:05:5D,154.81700134277344,-9.884235382080078,-86.99598693847656,-5.158968925476074,-8.902175903320312,0.9389219284057617,1390.617505788803
D4:22:CD:00:05:6B,-66.75468444824219,-18.586788177490234,-37.25104904174805,5.9674882888793945,-14.862138748168945,-1.1873064041137695,1390.617505788803
D4:22:CD:00:49:AA,-177.39776611328125,-77.30353546142578,94.65410614013672,2.9872775077819824,2.5029993057250977,10.047725677490234,1390.617505788803
D4:22:CD:00:05:6E,83.41148376464844,-4.5098066329956055,105.1998062133789,1.8927662372589111,1.2647383213043213,6.676599502563477,1390.617505788803
D4:22:CD:00:05:5E,-152.85360717773438,-68.4876480102539,-94.38174438476562,-5.563831329345703,-1.065162181854248,8.352914810180664,1390.617505788803
D4:22:CD:00:05:5D,154.07127380371094,-8.825839042663574,-88.72517395019531,-4.826769828796387,-3.2758002281188965,-7.514886856079102,1390.6474890708923
D4:22:CD:00:05:6B,-73.46111297607422,-11.852470397949219,-43.63294219970703,-4.731062889099121,-4.713286399841309,-1.7015552520751953,1390.6474890708923
D4:22:CD:00:49:AA,174.27842712402344,-77.39849853515625,102.0960922241211,3.374253273010254,1.2095787525177002,6.4107666015625,1390.6474890708923
D4:22:CD:00:05:6E,76.76988983154297,5.985898971557617,96.82673645019531,-2.275282382965088,-4.814448356628418,7.937929153442383,1390.6474890708923
D4:22:CD:00:05:5E,-134.47044372558594,-76.44015502929688,-110.28218841552734,1.115269660949707,-9.177446365356445,3.252293586730957,1390.6474890708923
D4:22:CD:00:05:5D,155.1557159423828,-12.753911018371582,-89.1723403930664,-5.054586410522461,-1.5494043827056885,-13.827554702758789,1390.6770148277283
D4:22:CD:00:05:6B,-77.80921173095703,-13.5606107711792,-50.12112045288086,-3.531069278717041,1.341174602508545,-1.6762208938598633,1390.6770148277283
D4:22:CD:00:49:AA,167.78952026367188,-77.55333709716797,108.12104034423828,1.7438743114471436,-0.06788434088230133,-1.2345771789550781,1390.6770148277283
D4:22:CD:00:05:6E,66.00233459472656,15.901179313659668,90.53732299804688,-11.995588302612305,-1.8765957355499268,-1.7463035583496094,1390.6770148277283
D4:22:CD:00:05:5E,-120.75603485107422,-79.01167297363281,-118.77103424072266,-7.452892303466797,9.453519821166992,-6.781998634338379,1390.6770148277283
D4:22:CD:00:05:5D,155.34747314453125,-21.223392486572266,-88.27818298339844,-3.0744972229003906,-2.22711181640625,-16.583599090576172,1390.7072138786316
D4:22:CD:00:05:6B,-82.43157958984375,-19.63925552368164,-55.171485900878906,-1.4302725791931152,5.081055641174316,-4.647348403930664,1390.7072138786316
D4:22:CD:00:49:AA,168.28013610839844,-76.66492462158203,108.2416763305664,-1.0567295551300049,-0.3224329948425293,-7.261429786682129,1390.7072138786316
D4:22:CD:00:05:6E,52.18028259277344,25.767578125,84.11085510253906,-10.915853500366211,0.48867106437683105,-11.464439392089844,1390.7072138786316
D4:22:CD:00:05:5E,-136.09033203125,-78.03974151611328,-106.230224609375,-1.7179110050201416,-1.730696678161621,-10.875314712524414,1390.7072138786316
D4:22:CD:00:05:5D,153.52296447753906,-33.13972473144531,-85.91676330566406,-3.406161308288574,-3.856804847717285,-14.625791549682617,1390.7372329235077
D4:22:CD:00:05:6B,-86.23543548583984,-27.538837432861328,-58.50861740112305,-1.1164793968200684,5.572151184082031,-5.232561111450195,1390.7372329235077
D4:22:CD:00:49:AA,174.28358459472656,-76.8792724609375,104.5117416381836,-0.39799875020980835,1.6873362064361572,-10.340555191040039,1390.7372329235077
D4:22:CD:00:05:6E,38.029457092285156,33.41865921020508,77.47224426269531,0.502987265586853,-2.2387595176696777,-12.961782455444336,1390.7372329235077
D4:22:CD:00:05:5E,-143.7872314453125,-79.74284362792969,-100.96322631835938,-1.0814025402069092,-4.280829429626465,-11.507600784301758,1390.7372329235077
D4:22:CD:00:05:5D,149.55531311035156,-47.464351654052734,-81.584228515625,0.5753432512283325,-4.698097229003906,-10.011592864990234,1390.7972872257233
D4:22:CD:00:05:6B,-87.35701751708984,-35.341068267822266,-60.63857650756836,0.07870292663574219,5.325854301452637,-5.660154342651367,1390.7972872257233
D4:22:CD:00:49:AA,177.835693359375,-78.3826675415039,100.88788604736328,3.783870220184326,3.5551862716674805,-10.263708114624023,1390.7972872257233
D4:22:CD:00:05:6E,33.097381591796875,39.91170120239258,73.97289276123047,6.004177093505859,-1.1844391822814941,-8.341608047485352,1390.7972872257233
D4:22:CD:00:05:5E,-135.35520935058594,-81.8691635131836,-106.20327758789062,3.916041851043701,8.72464370727539,1.7387170791625977,1390.7972872257233
D4:22:CD:00:05:5D,142.41778564453125,-63.49652099609375,-72.14517211914062,1.2986629009246826,-2.612184524536133,2.7536401748657227,1390.8272924423218
D4:22:CD:00:05:6B,-86.8539047241211,-41.63007354736328,-62.32396697998047,1.23968505859375,5.070013999938965,-5.216987609863281,1390.8272924423218
D4:22:CD:00:49:AA,177.3249969482422,-80.06158447265625,98.8255386352539,4.05158805847168,1.6520872116088867,-11.706884384155273,1390.8272924423218
D4:22:CD:00:05:6E,34.323360443115234,46.37265396118164,75.56675720214844,0.8331207036972046,0.5886144638061523,-5.954428672790527,1390.8272924423218
D4:22:CD:00:05:5E,-132.7854766845703,-81.80430603027344,-107.86742401123047,3.2544779777526855,2.7717037200927734,-1.2593145370483398,1390.8272924423218
D4:22:CD:00:05:5D,110.51239013671875,-77.86420440673828,-36.94049072265625,5.970999717712402,5.31082820892334,14.35152816772461,1390.8570141792297
D4:22:CD:00:05:6B,-84.17107391357422,-46.55189895629883,-64.54338073730469,1.6226649284362793,3.883732795715332,-5.222148895263672,1390.8570141792297
D4:22:CD:00:49:AA,173.97515869140625,-79.93538665771484,100.2345199584961,-0.005275213159620762,-2.012221336364746,-6.365909576416016,1390.8570141792297
D4:22:CD:00:05:6E,37.09306716918945,51.58625411987305,87.77854919433594,3.383211612701416,-2.0060548782348633,-6.96071720123291,1390.8570141792297
D4:22:CD:00:05:5E,-139.02484130859375,-79.38116455078125,-105.41291809082031,-5.776883125305176,-4.809650421142578,-2.2765612602233887,1390.8570141792297
D4:22:CD:00:05:5D,50.8217658996582,-77.160888671875,32.257320404052734,15.365428924560547,20.260799407958984,3.410390853881836,1390.8874328136444
D4:22:CD:00:05:6B,-80.73294067382812,-49.925907135009766,-67.74409484863281,0.90736985206604,2.265834331512451,-5.963993072509766,1390.8874328136444
D4:22:CD:00:49:AA,177.4276580810547,-79.93340301513672,97.20799255371094,-4.871179580688477,-2.9619884490966797,-2.180600166320801,1390.8874328136444
D4:22:CD:00:05:6E,46.843780517578125,53.04136276245117,112.67003631591797,-3.9206395149230957,2.4704113006591797,-16.356090545654297,1390.8874328136444
D4:22:CD:00:05:5E,-143.7323760986328,-75.63839721679688,-105.32123565673828,-3.3604283332824707,-2.8032665252685547,-0.2615022659301758,1390.8874328136444
D4:22:CD:00:05:5D,46.43678283691406,-74.01625061035156,42.37449264526367,-6.145520210266113,24.59975814819336,-15.760351181030273,1390.9176077842712
D4:22:CD:00:05:6B,-79.07329559326172,-52.26760482788086,-71.2627182006836,0.4859269857406616,1.9123945236206055,-5.766326904296875,1390.9176077842712
D4:22:CD:00:49:AA,-171.84637451171875,-80.12317657470703,89.52799224853516,3.2804794311523438,-2.333221435546875,-0.10325050354003906,1390.9176077842712
D4:22:CD:00:05:6E,56.18354034423828,47.1043815612793,140.2445831298828,-32.1820068359375,16.23815155029297,-30.698036193847656,1390.9176077842712
D4:22:CD:00:05:5E,-141.40953063964844,-72.74955749511719,-108.79593658447266,-6.218539237976074,-3.0973892211914062,2.604191780090332,1390.9176077842712
D4:22:CD:00:05:5D,69.7303466796875,-75.45255279541016,19.894596099853516,2.037199020385742,22.355854034423828,-6.45928955078125,1390.947622537613
D4:22:CD:00:05:6B,-79.09266662597656,-54.702980041503906,-74.23194885253906,-0.26665663719177246,3.071260929107666,-5.189867973327637,1390.947622537613
D4:22:CD:00:49:AA,-167.57164001464844,-79.45277404785156,87.76407623291016,7.367732048034668,2.0498175621032715,7.919281005859375,1390.947622537613
D4:22:CD:00:05:6E,64.17135620117188,45.24417495727539,150.93402099609375,16.377464294433594,-8.098827362060547,-16.649673461914062,1390.947622537613
D4:22:CD:00:05:5E,-134.69317626953125,-70.91717529296875,-114.79161834716797,-2.372556686401367,-1.613572597503662,5.955924987792969,1390.947622537613
D4:22:CD:00:05:5D,102.51140594482422,-74.39620971679688,-9.116793632507324,5.843938827514648,-9.889791488647461,7.403770446777344,1390.9774980545044
D4:22:CD:00:05:6B,-81.5069580078125,-57.95689392089844,-75.49927520751953,-1.6919519901275635,2.627108573913574,-5.095918655395508,1390.9774980545044
D4:22:CD:00:49:AA,-169.19027709960938,-79.22618103027344,89.5168228149414,6.567765235900879,0.12587970495224,2.9888668060302734,1390.9774980545044
D4:22:CD:00:05:6E,73.31343078613281,49.14342498779297,145.9717559814453,-4.933396339416504,-10.483922958374023,9.432893753051758,1390.9774980545044
D4:22:CD:00:05:5E,-127.04703521728516,-69.3742446899414,-121.4345932006836,-4.168476104736328,-3.653029441833496,6.0823564529418945,1390.9774980545044
D4:22:CD:00:05:5D,119.83430480957031,-72.8375015258789,-27.299551010131836,10.449382781982422,-5.452749252319336,6.227720260620117,1391.0074944496155
D4:22:CD:00:05:6B,-88.001220703125,-62.73079299926758,-72.22280883789062,-3.469407081604004,2.269463539123535,3.142245292663574,1391.0074944496155
D4:22:CD:00:49:AA,-169.1170196533203,-78.25726318359375,89.89385223388672,1.8795607089996338,-2.8889341354370117,1.7289934158325195,1391.0074944496155
D4:22:CD:00:05:6E,68.36743927001953,52.064701080322266,133.6038360595703,-8.416133880615234,0.9781125783920288,-2.478421211242676,1391.0074944496155
D4:22:CD:00:05:5E,-120.19792938232422,-67.18133544921875,-125.56753540039062,-6.324422836303711,-7.243253707885742,3.5486631393432617,1391.0074944496155
D4:22:CD:00:05:5D,135.6739959716797,-70.36839294433594,-39.61463165283203,-4.295894622802734,0.631985068321228,6.638177871704102,1391.0377135276794
D4:22:CD:00:05:6B,-100.61888885498047,-68.35057067871094,-59.48299789428711,1.8784046173095703,2.7315797805786133,14.413738250732422,1391.0377135276794
D4:22:CD:00:49:AA,-168.01327514648438,-76.76212310791016,92.01974487304688,-3.889158248901367,-1.4805498123168945,1.679621696472168,1391.0377135276794
D4:22:CD:00:05:6E,53.841007232666016,51.58997344970703,117.53809356689453,-2.6020760536193848,-0.14735466241836548,0.6516313552856445,1391.0377135276794
D4:22:CD:00:05:5E,-114.99786376953125,-65.24681854248047,-126.39537048339844,-12.000160217285156,-6.365277290344238,1.6246261596679688,1391.0377135276794
D4:22:CD:00:05:5D,147.55795288085938,-67.9173355102539,-46.49633026123047,-1.2576591968536377,1.3021636009216309,2.164608955383301,1391.097217798233
D4:22:CD:00:05:6B,-111.73157501220703,-71.1888656616211,-45.461788177490234,14.570661544799805,6.035621643066406,16.237430572509766,1391.097217798233
D4:22:CD:00:49:AA,-168.01707458496094,-74.54430389404297,95.92019653320312,-6.064655303955078,0.7488088607788086,-0.8533735275268555,1391.097217798233
D4:22:CD:00:05:6E,40.735111236572266,45.012691497802734,103.17903137207031,-5.510375022888184,-12.300466537475586,-2.213390350341797,1391.097217798233
D4:22:CD:00:05:5E,-113.62651062011719,-63.9027099609375,-122.31092834472656,-16.915843963623047,9.69062614440918,-2.270848274230957,1391.097217798233
D4:22:CD:00:05:5D,155.378173828125,-66.77672576904297,-52.5113525390625,-3.005974292755127,-0.06045667827129364,1.6196203231811523,1391.12730550766
D4:22:CD:00:05:6B,-114.51530456542969,-69.52021789550781,-40.22166061401367,2.7854866981506348,2.7736544609069824,4.753195762634277,1391.12730550766
D4:22:CD:00:49:AA,-171.30850219726562,-70.85989379882812,102.13117980957031,-4.095279693603516,0.7451837062835693,-1.3586006164550781,1391.12730550766
D4:22:CD:00:05:6E,28.60395050048828,30.491249084472656,92.12965393066406,-12.45650863647461,-11.472270965576172,-13.623825073242188,1391.12730550766
D4:22:CD:00:05:5E,-120.41271209716797,-61.56764602661133,-109.71113586425781,-19.404136657714844,8.300346374511719,-2.211191177368164,1391.12730550766
D4:22:CD:00:05:5D,162.34176635742188,-66.3958969116211,-58.25025177001953,-0.4022290110588074,0.8705811500549316,1.4821786880493164,1391.157450914383
D4:22:CD:00:05:6B,-107.4120864868164,-67.02091217041016,-40.794273376464844,-1.7619109153747559,-4.478389739990234,-0.5380525588989258,1391.157450914383
D4:22:CD:00:49:AA,-177.59188842773438,-68.33163452148438,108.34082794189453,2.4012742042541504,0.6905738115310669,2.4601564407348633,1391.157450914383
D4:22:CD:00:05:6E,19.3575496673584,9.9934720993042,83.36470794677734,4.2471208572387695,-0.6799852848052979,-17.253341674804688,1391.157450914383
D4:22:CD:00:05:5E,-131.15667724609375,-58.50739288330078,-94.24354553222656,-13.947591781616211,2.921332836151123,-6.775975227355957,1391.157450914383
D4:22:CD:00:05:5D,169.00050354003906,-66.8313217163086,-64.2279052734375,-1.9492065906524658,0.5864700078964233,0.757227897644043,1391.1875665187836
D4:22:CD:00:05:6B,-104.23615264892578,-65.16239929199219,-42.17438507080078,-6.161445617675781,-2.601487636566162,-1.5047082901000977,1391.1875665187836
D4:22:CD:00:49:AA,175.28038024902344,-66.6026611328125,114.52552032470703,0.1592346429824829,3.081371784210205,2.567172050476074,1391.1875665187836
D4:22:CD:00:05:6E,23.82684898376465,-11.659698486328125,73.59978485107422,7.511530876159668,8.115837097167969,-14.219963073730469,1391.1875665187836
D4:22:CD:00:05:5E,-141.23529052734375,-54.54145050048828,-79.80561828613281,-8.44729232788086,1.2401390075683594,-9.329521179199219,1391.1875665187836
D4:22:CD:00:05:5D,174.86917114257812,-67.42483520507812,-70.7597885131836,0.11644645035266876,0.1785919964313507,0.30385589599609375,1391.217185974121
D4:22:CD:00:05:6B,-102.01402282714844,-65.40971374511719,-44.14210510253906,-6.136244773864746,1.1060585975646973,-0.19679546356201172,1391.217185974121
D4:22:CD:00:49:AA,170.8859405517578,-64.75220489501953,118.45804595947266,-5.200366020202637,0.5631846189498901,2.706454277038574,1391.217185974121
D4:22:CD:00:05:6E,41.204673767089844,-30.741376876831055,57.46147537231445,6.944036483764648,13.271129608154297,-2.4031906127929688,1391.217185974121
D4:22:CD:00:05:5E,-150.4495849609375,-50.03293991088867,-67.83523559570312,-3.6723666191101074,1.301887035369873,-9.735221862792969,1391.217185974121
D4:22:CD:00:05:5D,179.63621520996094,-68.01388549804688,-76.35975646972656,1.6264808177947998,0.8849406242370605,0.3804006576538086,1391.247352361679
D4:22:CD:00:05:6B,-96.92727661132812,-67.12284088134766,-47.30183410644531,-2.8620080947875977,0.6141217947006226,-0.4573078155517578,1391.247352361679
D4:22:CD:00:49:AA,169.42213439941406,-63.59196472167969,119.86399841308594,-5.124943733215332,0.8295891284942627,1.8614072799682617,1391.247352361679
D4:22:CD:00:05:6E,65.07797241210938,-39.45063400268555,33.09310531616211,16.332427978515625,-6.4841814041137695,11.395206451416016,1391.247352361679
D4:22:CD:00:05:5E,-158.84561157226562,-46.00804138183594,-58.0947265625,-0.3296194076538086,2.2395715713500977,-9.061971664428711,1391.247352361679
D4:22:CD:00:05:5D,-176.97329711914062,-68.80335235595703,-80.27574920654297,1.525599718093872,0.16035747528076172,0.07295703887939453,1391.2774541378021
D4:22:CD:00:05:6B,-90.98207092285156,-67.8697738647461,-52.14466094970703,2.982333183288574,2.5895047187805176,0.715601921081543,1391.2774541378021
D4:22:CD:00:49:AA,168.89698791503906,-63.26858901977539,120.91124725341797,-1.4776561260223389,1.9205644130706787,0.8894929885864258,1391.2774541378021
D4:22:CD:00:05:6E,87.25371551513672,-35.003150939941406,18.105220794677734,10.229856491088867,-11.756519317626953,-17.19854736328125,1391.2774541378021
D4:22:CD:00:05:5E,-166.50146484375,-43.49700927734375,-49.7005500793457,-0.6274123191833496,1.5735726356506348,-7.0421648025512695,1391.2774541378021
D4:22:CD:00:05:5D,-174.6338348388672,-69.59029388427734,-82.77906799316406,1.5882315635681152,-0.6494908332824707,-0.20624828338623047,1391.3068945407867
D4:22:CD:00:05:6B,-84.83476257324219,-67.09854125976562,-59.0389518737793,2.1993350982666016,3.6644763946533203,-0.28237247467041016,1391.3068945407867
D4:22:CD:00:49:AA,167.5587615966797,-63.568885803222656,121.86865997314453,0.3390973210334778,2.0123462677001953,-1.150151252746582,1391.3068945407867
D4:22:CD:00:05:6E,95.16449737548828,-28.968414306640625,15.230034828186035,-19.76919174194336,0.6726130247116089,9.200883865356445,1391.3068945407867
D4:22:CD:00:05:5E,-174.67999267578125,-42.746341705322266,-41.80455780029297,-0.17473313212394714,1.78157377243042,-1.4740982055664062,1391.3068945407867
D4:22:CD:00:05:5D,-173.30104064941406,-69.85908508300781,-84.10565185546875,0.9990506172180176,-1.5017266273498535,-0.6934928894042969,1391.3370068073273
D4:22:CD:00:05:6B,-78.94800567626953,-65.27232360839844,-65.9334945678711,1.405764102935791,2.3967037200927734,-2.3739166259765625,1391.3370068073273
D4:22:CD:00:49:AA,164.15806579589844,-64.4000015258789,123.23819732666016,0.23001304268836975,-0.15588697791099548,-4.230812072753906,1391.3370068073273
D4:22:CD:00:05:6E,91.92855072021484,-25.35580825805664,19.612407684326172,-1.8553292751312256,-7.948932647705078,-14.84742546081543,1391.3370068073273
D4:22:CD:00:05:5E,-178.34632873535156,-45.35284423828125,-33.542171478271484,10.035566329956055,-1.2787320613861084,-3.1345930099487305,1391.3370068073273
D4:22:CD:00:05:5D,-174.44651794433594,-68.80728912353516,-82.70724487304688,0.6959511041641235,-1.8981046676635742,-0.6262178421020508,1391.396940946579
D4:22:CD:00:05:6B,-72.67052459716797,-62.99155807495117,-72.50206756591797,0.8263092041015625,0.8239080905914307,-4.179008483886719,1391.396940946579
D4:22:CD:00:49:AA,159.03961181640625,-65.80514526367188,125.84521484375,-1.0032362937927246,-0.5478321313858032,-6.786561965942383,1391.396940946579
D4:22:CD:00:05:6E,92.60295104980469,-26.155515670776367,27.63214111328125,-15.484622955322266,-0.8682115077972412,4.213979721069336,1391.396940946579
D4:22:CD:00:05:5E,-175.0633544921875,-52.0797004699707,-27.31830406188965,18.39191436767578,-2.7993240356445312,-1.2518653869628906,1391.396940946579
D4:22:CD:00:05:5D,-178.3008270263672,-66.12053680419922,-78.54036712646484,3.4417624473571777,-1.7085950374603271,-2.697272300720215,1391.4271132946014
D4:22:CD:00:05:6B,-66.85009765625,-60.521427154541016,-78.9643325805664,0.47663092613220215,0.05529218912124634,-5.83552360534668,1391.4271132946014
D4:22:CD:00:49:AA,154.1768035888672,-66.97280883789062,128.90615844726562,-4.737746238708496,-0.6761449575424194,-5.982053756713867,1391.4271132946014
D4:22:CD:00:05:6E,92.16648864746094,-32.673072814941406,32.926082611083984,-1.4514758586883545,-5.854030609130859,-0.28566932678222656,1391.4271132946014
D4:22:CD:00:05:5E,-170.43438720703125,-58.84693145751953,-24.37299156188965,-10.067483901977539,-2.487100124359131,13.153141021728516,1391.4271132946014
D4:22:CD:00:05:5D,178.26348876953125,-62.16392135620117,-75.5654525756836,-2.089620590209961,-1.8610775470733643,0.6194124221801758,1391.4568083286285
D4:22:CD:00:05:6B,-62.99338150024414,-57.94820785522461,-84.65592956542969,1.0779085159301758,0.7936598062515259,-6.349445343017578,1391.4568083286285
D4:22:CD:00:49:AA,147.931640625,-69.23387908935547,135.995849609375,-7.686354637145996,-5.451447486877441,-1.2004547119140625,1391.4568083286285
D4:22:CD:00:05:6E,92.0407943725586,-45.83416748046875,34.783973693847656,1.761901617050171,0.5503724813461304,7.168893814086914,1391.4568083286285
D4:22:CD:00:05:5E,-177.63600158691406,-58.89098358154297,-24.05811309814453,15.403791427612305,-0.6201239824295044,1.9928216934204102,1391.4568083286285
D4:22:CD:00:05:5D,174.19338989257812,-57.14494323730469,-72.68706512451172,-0.6314647197723389,-2.210995674133301,-0.4580097198486328,1391.4870448112488
D4:22:CD:00:05:6B,-64.84147644042969,-54.642669677734375,-88.29920196533203,2.9894747734069824,3.171452522277832,-5.074403762817383,1391.4870448112488
D4:22:CD:00:49:AA,136.76934814453125,-71.36119842529297,149.54034423828125,-0.3538286089897156,-0.01615976169705391,0.2213296890258789,1391.4870448112488
D4:22:CD:00:05:6E,83.0394058227539,-64.15087890625,38.11119079589844,19.93319320678711,1.273463249206543,36.99299621582031,1391.4870448112488
D4:22:CD:00:05:5E,178.93016052246094,-56.90965270996094,-27.555469512939453,9.309003829956055,-4.975748062133789,15.045206069946289,1391.4870448112488
D4:22:CD:00:05:5D,172.33580017089844,-52.468528747558594,-68.27775573730469,-2.2717738151550293,1.741091012954712,-1.9526524543762207,1391.5170269012451
D4:22:CD:00:05:6B,-69.84636688232422,-49.95103073120117,-89.57266235351562,3.7089905738830566,7.523712158203125,1.6358919143676758,1391.5170269012451
D4:22:CD:00:49:AA,129.3450927734375,-71.54515075683594,157.82127380371094,7.654069900512695,4.922550201416016,0.9362468719482422,1391.5170269012451
D4:22:CD:00:05:6E,74.34354400634766,-71.06270599365234,46.054439544677734,5.23676872253418,-1.5722463130950928,22.93056869506836,1391.5170269012451
D4:22:CD:00:05:5E,-177.73072814941406,-53.042903900146484,-29.488361358642578,7.648349761962891,-14.772205352783203,11.95448112487793,1391.5170269012451
