Device,EulerX,EulerY,EulerZ,FreeAccX,FreeAccY,FreeAccZ,Timestamp
D4:22:CD:00:05:5D,168.94554138183594,-77.36552429199219,-105.63496398925781,-2.6349072456359863,-19.634601593017578,-9.37411117553711,391.2167594432831
D4:22:CD:00:05:6B,44.481327056884766,4.911195278167725,-95.8714599609375,9.252609252929688,-0.11406326293945312,-7.255617141723633,391.2167594432831
D4:22:CD:00:49:AA,-178.60226440429688,-73.27761840820312,117.23298645019531,-2.3061461448669434,-0.6433610916137695,-7.864615440368652,391.2167594432831
D4:22:CD:00:05:6E,-115.79235076904297,-65.52225494384766,-62.2505989074707,1.5388846397399902,0.24612101912498474,-6.733898162841797,391.2167594432831
D4:22:CD:00:05:5E,-20.963294982910156,-62.07567596435547,-172.72152709960938,-8.834609985351562,-3.713074207305908,-9.252403259277344,391.2167594432831
D4:22:CD:00:05:5D,167.04441833496094,-77.3253402709961,-100.91715240478516,-1.6680688858032227,8.100893020629883,1.947798728942871,391.22677397727966
D4:22:CD:00:05:6B,47.39418411254883,21.53403663635254,-109.25565338134766,6.987998962402344,-6.267047882080078,-7.662100791931152,391.22677397727966
D4:22:CD:00:49:AA,-174.2141876220703,-75.4354248046875,116.22986602783203,-2.717916488647461,-1.761035680770874,-5.221256256103516,391.22677397727966
D4:22:CD:00:05:6E,-106.29094696044922,-68.6970443725586,-66.44313049316406,-1.5516409873962402,-2.125215530395508,-8.20911979675293,391.22677397727966
D4:22:CD:00:05:5E,-28.2846736907959,-63.36125564575195,-167.9090118408203,-5.109699249267578,-6.497982025146484,-4.683526992797852,391.22677397727966
D4:22:CD:00:05:6B,30.183271408081055,35.708702087402344,-130.24642944335938,-8.371381759643555,-12.406583786010742,-26.81511688232422,391.2327663898468
D4:22:CD:00:49:AA,-173.72662353515625,-76.40680694580078,116.57286071777344,0.909229040145874,0.8689945936203003,-0.4935646057128906,391.2327663898468
D4:22:CD:00:05:6E,-101.38504791259766,-70.27281188964844,-68.35393524169922,-1.8329622745513916,-5.068232536315918,-6.790388107299805,391.2327663898468
D4:22:CD:00:05:5E,-36.63229751586914,-65.96942138671875,-162.72203063964844,-7.502985954284668,-3.3051562309265137,-3.256420612335205,391.2327663898468
D4:22:CD:00:05:5D,-168.81332397460938,-64.01304626464844,-121.58834075927734,0.6115182638168335,-0.7531130313873291,-0.05495262145996094,391.2378726005554
D4:22:CD:00:49:AA,-176.42852783203125,-76.99622344970703,119.11881256103516,-0.08358445763587952,-1.761457920074463,-0.9921417236328125,391.2378726005554
D4:22:CD:00:05:6E,-104.6187744140625,-70.63082122802734,-65.89017486572266,-0.34467434883117676,-3.637042999267578,-1.7630891799926758,391.2378726005554
D4:22:CD:00:05:5E,-40.51689529418945,-68.15592956542969,-158.13803100585938,-5.350693702697754,2.242919921875,1.8985185623168945,391.2378726005554
D4:22:CD:00:05:5D,-173.46827697753906,-57.29328536987305,-113.68666076660156,-1.6908459663391113,1.2801177501678467,0.9216623306274414,391.24086833000183
D4:22:CD:00:05:6B,-69.03884887695312,-27.996257781982422,-71.2727279663086,1.3474879264831543,-4.945555686950684,19.54296112060547,391.24086833000183
D4:22:CD:00:49:AA,-145.5716094970703,-70.43822479248047,61.10814666748047,6.761678695678711,-0.12633398175239563,2.498202323913574,391.24086833000183
D4:22:CD:00:05:5D,-174.59275817871094,-55.585731506347656,-111.80986785888672,-1.5548062324523926,1.6679773330688477,1.4413480758666992,391.2848732471466
D4:22:CD:00:05:6B,-65.52803039550781,-16.15753746032715,-65.6231689453125,4.070766448974609,-4.909523963928223,15.927614212036133,391.2848732471466
D4:22:CD:00:49:AA,-172.36752319335938,-71.00462341308594,87.07325744628906,6.232647895812988,1.4130613803863525,5.458334922790527,391.2848732471466
D4:22:CD:00:05:6E,126.4146728515625,-47.20890808105469,20.83837890625,-2.261164665222168,3.9306769371032715,3.6603879928588867,391.2848732471466
D4:22:CD:00:05:5E,-141.9157257080078,-70.44152069091797,-25.942066192626953,-2.07914400100708,-1.1364002227783203,3.3065948486328125,391.2848732471466
D4:22:CD:00:05:5D,-174.8708038330078,-54.77275466918945,-111.1232681274414,-1.5397257804870605,1.6758675575256348,1.7771720886230469,391.31460762023926
D4:22:CD:00:05:6B,-56.00149917602539,-7.415767669677734,-57.291255950927734,2.534512519836426,-5.231081008911133,8.748136520385742,391.31460762023926
D4:22:CD:00:49:AA,166.4732666015625,-70.63004302978516,106.94660949707031,-0.8308414220809937,1.5195245742797852,9.381855010986328,391.31460762023926
D4:22:CD:00:05:6E,133.75100708007812,-43.34775924682617,24.436630249023438,-5.199226379394531,0.9036731719970703,-7.648649215698242,391.31460762023926
D4:22:CD:00:05:5E,-146.81332397460938,-68.38824462890625,-22.2664794921875,-2.2502589225769043,-0.8205053806304932,0.2912464141845703,391.31460762023926
D4:22:CD:00:05:5D,-174.60357666015625,-55.662078857421875,-111.84037017822266,-0.8837952613830566,1.730945348739624,2.047732353210449,391.3446066379547
D4:22:CD:00:05:6B,-50.18008804321289,-1.5719040632247925,-45.97354507446289,-4.457736968994141,-0.18475854396820068,-2.904588222503662,391.3446066379547
D4:22:CD:00:49:AA,159.0428924560547,-72.11297607421875,113.84251403808594,-4.094611167907715,1.3560194969177246,8.094144821166992,391.3446066379547
D4:22:CD:00:05:6E,135.82199096679688,-43.84678268432617,29.988903045654297,-11.946022033691406,-4.7023420333862305,-10.763874053955078,391.3446066379547
D4:22:CD:00:05:5E,-150.8854217529297,-67.6351547241211,-21.3818359375,-0.36424583196640015,-0.4350094795227051,-4.658745765686035,391.3446066379547
D4:22:CD:00:05:5D,-172.91497802734375,-58.47834014892578,-114.22407531738281,-0.9723590612411499,2.751969337463379,2.7572317123413086,391.3995382785797
D4:22:CD:00:05:6B,-45.15155029296875,1.8085119724273682,-35.19367218017578,-5.983181953430176,-8.658458709716797,7.476984024047852,391.3995382785797
D4:22:CD:00:49:AA,158.9830322265625,-74.34410095214844,114.48585510253906,-3.871025562286377,2.388134002685547,5.825220108032227,391.3995382785797
D4:22:CD:00:05:6E,133.25381469726562,-45.80811309814453,33.38326644897461,-10.797119140625,-5.660224914550781,-12.966302871704102,391.3995382785797
D4:22:CD:00:05:5E,-143.2167205810547,-73.92091369628906,-29.477413177490234,2.4342575073242188,2.136307716369629,-4.545391082763672,391.3995382785797
D4:22:CD:00:05:5D,-169.07101440429688,-63.41746520996094,-118.9130859375,-1.6496267318725586,3.610917568206787,4.341337203979492,391.4045901298523
D4:22:CD:00:05:6B,-37.14546585083008,3.0691840648651123,-28.25821304321289,-3.240286350250244,-16.187740325927734,2.3930883407592773,391.4045901298523
D4:22:CD:00:49:AA,162.42172241210938,-75.96995544433594,112.7475357055664,-3.1914596557617188,1.7484524250030518,3.2222213745117188,391.4045901298523
D4:22:CD:00:05:6E,130.97752380371094,-51.99151611328125,34.205467224121094,-3.9361724853515625,-3.1574668884277344,-12.261100769042969,391.4045901298523
D4:22:CD:00:05:5E,-83.96493530273438,-81.62269592285156,-85.49417877197266,-3.1095919609069824,2.5209197998046875,-3.7756118774414062,391.4045901298523
D4:22:CD:00:05:5D,-164.7720947265625,-71.62347412109375,-131.5897979736328,-8.138347625732422,-1.8566014766693115,7.593303680419922,391.4345848560333
D4:22:CD:00:05:6B,-34.0550651550293,5.132566928863525,-24.189037322998047,4.048999786376953,-15.437612533569336,-0.44719600677490234,391.4345848560333
D4:22:CD:00:49:AA,168.1101531982422,-76.81832885742188,109.8071060180664,-3.9237499237060547,0.5390959978103638,-2.9052248001098633,391.4345848560333
D4:22:CD:00:05:6E,137.35336303710938,-63.13954544067383,31.653583526611328,0.8139950037002563,3.5935521125793457,-10.373693466186523,391.4345848560333
D4:22:CD:00:05:5E,-23.8106632232666,-74.97867584228516,-143.96353149414062,-10.131200790405273,-1.5883026123046875,-5.697055816650391,391.4345848560333
D4:22:CD:00:05:5D,-166.0742950439453,-75.8084945678711,-132.27365112304688,-5.106112480163574,-3.9572410583496094,-1.6868553161621094,391.46399545669556
D4:22:CD:00:05:6B,-31.12190055847168,9.01320743560791,-22.564775466918945,8.792579650878906,-11.708154678344727,-0.05302238464355469,391.46399545669556
D4:22:CD:00:49:AA,179.4633331298828,-76.58031463623047,102.53080749511719,-3.397998332977295,-1.3317854404449463,-6.6711320877075195,391.46399545669556
D4:22:CD:00:05:6E,165.1048126220703,-76.20417785644531,15.2633638381958,-1.1083853244781494,0.9812244176864624,-4.069267272949219,391.46399545669556
D4:22:CD:00:05:5E,-13.084440231323242,-67.37987518310547,-158.37892150878906,-15.099149703979492,-0.8382766246795654,-9.047159194946289,391.46399545669556
D4:22:CD:00:05:5D,179.53164672851562,-75.10186004638672,-113.26983642578125,3.5507607460021973,6.666753768920898,-6.977896690368652,391.49512815475464
D4:22:CD:00:05:6B,-25.25853729248047,14.459500312805176,-23.19841957092285,9.798242568969727,-7.527519226074219,-4.285678863525391,391.49512815475464
D4:22:CD:00:49:AA,-169.45260620117188,-75.5696029663086,96.53949737548828,2.6686148643493652,0.8392359018325806,-9.235679626464844,391.49512815475464
D4:22:CD:00:05:6E,-115.09889221191406,-80.70375061035156,-53.89457321166992,-3.206195831298828,-4.830049514770508,-6.391628265380859,391.49512815475464
D4:22:CD:00:05:5E,-13.749408721923828,-62.99549102783203,-163.44102478027344,-15.117042541503906,-0.23339274525642395,-8.581209182739258,391.49512815475464
D4:22:CD:00:05:5D,168.19882202148438,-72.4272689819336,-96.46768951416016,2.6119003295898438,-14.767404556274414,-12.638017654418945,391.55422139167786
D4:22:CD:00:05:6B,-18.408536911010742,20.58896255493164,-25.904298782348633,7.4040021896362305,-4.092713356018066,-7.065346717834473,391.55422139167786
D4:22:CD:00:49:AA,-163.72227478027344,-76.6503677368164,93.52133178710938,2.9166626930236816,2.9811758995056152,-9.123418807983398,391.55422139167786
D4:22:CD:00:05:6E,-76.42670440673828,-71.52067565917969,-87.32233428955078,-2.3335485458374023,-4.6269121170043945,-8.938526153564453,391.55422139167786
D4:22:CD:00:05:5E,-16.982051849365234,-60.37041091918945,-166.45944213867188,-13.02984619140625,0.15738314390182495,-8.034500122070312,391.55422139167786
D4:22:CD:00:05:5D,167.7877960205078,-73.13040924072266,-88.97460174560547,6.767889022827148,14.381999969482422,3.771146774291992,391.5845069885254
D4:22:CD:00:05:6B,-14.873529434204102,26.93631362915039,-32.2027702331543,5.735954284667969,4.057502746582031,-8.860307693481445,391.5845069885254
D4:22:CD:00:49:AA,-156.15798950195312,-79.35438537597656,88.3357162475586,-3.7018299102783203,-0.9434700012207031,-8.08935546875,391.5845069885254
D4:22:CD:00:05:6E,-69.25799560546875,-60.69761657714844,-92.00399780273438,1.865149736404419,-6.982137680053711,-7.807656288146973,391.5845069885254
D4:22:CD:00:05:5E,-17.38582420349121,-59.82025909423828,-167.2532958984375,-14.388681411743164,-6.867354393005371,-11.57763671875,391.5845069885254
D4:22:CD:00:05:5D,167.41778564453125,-72.73197937011719,-87.53732299804688,2.04310941696167,2.672898769378662,-3.50038480758667,391.6143310070038
D4:22:CD:00:05:6B,-18.027345657348633,33.14628601074219,-44.364013671875,5.757757186889648,7.820817947387695,-8.595552444458008,391.6143310070038
D4:22:CD:00:49:AA,-146.10084533691406,-80.69236755371094,81.36572265625,-1.3984098434448242,-2.6587610244750977,-3.728971004486084,391.6143310070038
D4:22:CD:00:05:6E,-66.90447998046875,-49.73504638671875,-91.94984436035156,1.9420957565307617,-8.562976837158203,-5.024003982543945,391.6143310070038
D4:22:CD:00:05:5E,-23.21219253540039,-64.14725494384766,-164.98541259765625,-10.09719467163086,-8.323848724365234,-10.511531829833984,391.6143310070038
D4:22:CD:00:05:5D,165.6805877685547,-71.84790802001953,-86.17461395263672,1.1401033401489258,-6.1217546463012695,0.7045774459838867,391.6442611217499
D4:22:CD:00:05:6B,-29.240924835205078,36.933799743652344,-65.45030212402344,-2.0467729568481445,0.21053093671798706,-17.773521423339844,391.6442611217499
D4:22:CD:00:49:AA,-140.325439453125,-81.19257354736328,77.31926727294922,1.8808684349060059,-1.1145298480987549,-0.37154388427734375,391.6442611217499
D4:22:CD:00:05:6E,-64.19163513183594,-38.90489959716797,-90.06510925292969,2.057321071624756,-14.911066055297852,-5.455221176147461,391.6442611217499
D4:22:CD:00:05:5E,-29.507123947143555,-71.22103118896484,-162.093505859375,-6.279254913330078,2.1779751777648926,2.0453052520751953,391.6442611217499
D4:22:CD:00:05:5D,163.7003631591797,-70.22886657714844,-81.79769134521484,-3.6759767532348633,-2.0960278511047363,3.022830009460449,391.67464232444763
D4:22:CD:00:05:6B,-46.687896728515625,34.08698654174805,-92.51155853271484,-8.63104248046875,-21.979572296142578,-26.42498779296875,391.67464232444763
D4:22:CD:00:49:AA,-137.13494873046875,-81.44053649902344,75.29228973388672,-0.77570641040802,-0.9506627321243286,-0.1707935333251953,391.67464232444763
D4:22:CD:00:05:6E,-64.78925323486328,-29.379993438720703,-87.21590423583984,6.483154296875,-23.445743560791016,-5.327535629272461,391.67464232444763
D4:22:CD:00:05:5E,-24.79853630065918,-76.3908920288086,-162.05213928222656,-1.7991595268249512,-1.286839246749878,-0.1952199935913086,391.67464232444763
D4:22:CD:00:05:5D,159.7249298095703,-68.50099182128906,-77.17742156982422,1.782071590423584,-2.539792537689209,2.836977005004883,391.7053179740906
D4:22:CD:00:05:6B,-59.939002990722656,28.505468368530273,-110.7932357788086,-18.06053924560547,0.29403114318847656,-21.43718719482422,391.7053179740906
D4:22:CD:00:49:AA,-138.94955444335938,-81.25682067871094,77.8898696899414,0.3250257968902588,0.18240848183631897,1.6637945175170898,391.7053179740906
D4:22:CD:00:05:6E,-67.67127990722656,-25.228200912475586,-84.77400207519531,6.801536560058594,-16.807910919189453,-8.831945419311523,391.7053179740906
D4:22:CD:00:05:5E,-19.42945098876953,-80.9831771850586,-165.26785278320312,3.325554370880127,-10.63932991027832,1.5987253189086914,391.7053179740906
D4:22:CD:00:05:5D,155.1688690185547,-66.75,-73.7074966430664,1.2457995414733887,-1.7403993606567383,3.622560501098633,391.7348370552063
D4:22:CD:00:05:6B,-72.8501205444336,33.46299743652344,-105.23388671875,-17.176067352294922,-1.3739852905273438,11.09597396850586,391.7348370552063
D4:22:CD:00:49:AA,-140.6533966064453,-80.99632263183594,79.35102844238281,-0.45699459314346313,-0.17622631788253784,1.7037782669067383,391.7348370552063
D4:22:CD:00:05:6E,-73.67552185058594,-28.40761947631836,-82.30072021484375,6.862626075744629,-13.675981521606445,-9.064811706542969,391.7348370552063
D4:22:CD:00:05:5E,-1.6436301469802856,-84.78707122802734,175.7082061767578,1.662057638168335,1.5193119049072266,5.56516170501709,391.7348370552063
D4:22:CD:00:05:5D,150.14234924316406,-66.39280700683594,-69.87421417236328,-3.184187889099121,3.12729549407959,3.7555456161499023,391.7648403644562
D4:22:CD:00:05:6B,-57.951473236083984,41.8483772277832,-84.64168548583984,-15.59942626953125,-16.52448272705078,-16.578857421875,391.7648403644562
D4:22:CD:00:49:AA,-142.5159149169922,-80.6481704711914,79.91373443603516,-0.8885288238525391,0.9103970527648926,4.046870231628418,391.7648403644562
D4:22:CD:00:05:6E,-82.50609588623047,-32.75112533569336,-79.14830017089844,5.589545249938965,-11.229433059692383,-3.5611181259155273,391.7648403644562
D4:22:CD:00:05:5E,40.138973236083984,-86.6133804321289,134.5700225830078,3.098334789276123,-5.397342681884766,2.634237289428711,391.7648403644562
D4:22:CD:00:05:5D,140.2897491455078,-68.59981536865234,-63.97784423828125,4.323149681091309,-2.5369601249694824,3.52508544921875,391.8196511268616
D4:22:CD:00:05:6B,-40.18661880493164,41.91828155517578,-57.12522506713867,-11.983488082885742,-4.035651206970215,-13.673002243041992,391.8196511268616
D4:22:CD:00:49:AA,-144.658935546875,-79.60015106201172,80.04361724853516,-0.26772379875183105,-1.8270049095153809,0.518254280090332,391.8196511268616
D4:22:CD:00:05:6E,-94.01204681396484,-35.46022033691406,-75.54326629638672,5.873600006103516,-4.821139335632324,-3.769979953765869,391.8196511268616
D4:22:CD:00:05:5E,97.51673126220703,-86.1949691772461,74.6545639038086,-5.255350112915039,-0.3534877300262451,-1.262319564819336,391.8196511268616
D4:22:CD:00:05:5D,125.95372772216797,-69.8890609741211,-57.50079345703125,8.77137565612793,1.9445443153381348,2.1781444549560547,391.85494351387024
D4:22:CD:00:05:6B,-28.187910079956055,32.33799362182617,-33.236202239990234,-6.654762268066406,-1.3076117038726807,-11.553918838500977,391.85494351387024
D4:22:CD:00:49:AA,-145.81504821777344,-77.0201644897461,79.34223937988281,5.541296005249023,-0.4213137626647949,-2.2846641540527344,391.85494351387024
D4:22:CD:00:05:6E,-102.67285919189453,-36.99335479736328,-73.24789428710938,8.806268692016602,-0.4523414969444275,-3.002012252807617,391.85494351387024
D4:22:CD:00:05:5E,137.28904724121094,-83.77820587158203,30.331064224243164,2.4829049110412598,0.24976778030395508,3.756765365600586,391.85494351387024
D4:22:CD:00:05:5D,122.85409545898438,-67.32916259765625,-65.52056121826172,22.74221420288086,29.289836883544922,4.1611127853393555,391.88447427749634
D4:22:CD:00:05:6B,-27.8524112701416,17.621612548828125,-14.858000755310059,-1.1254258155822754,4.603382110595703,-17.338729858398438,391.88447427749634
D4:22:CD:00:49:AA,-148.35592651367188,-74.49942779541016,77.77677154541016,10.05491828918457,1.9449260234832764,-2.7584452629089355,391.88447427749634
D4:22:CD:00:05:6E,-103.95621490478516,-39.654117584228516,-73.15589141845703,9.457469940185547,1.6427843570709229,-5.7282514572143555,391.88447427749634
D4:22:CD:00:05:5E,154.55731201171875,-80.01014709472656,11.455233573913574,-1.1498305797576904,-0.015956923365592957,-0.5212516784667969,391.88447427749634
D4:22:CD:00:05:5D,135.26280212402344,-58.05173873901367,-83.70134735107422,20.123855590820312,14.468963623046875,2.718613624572754,391.9148576259613
D4:22:CD:00:05:6B,-38.89297866821289,2.200150489807129,1.3691221475601196,10.18402099609375,0.11211538314819336,-14.047029495239258,391.9148576259613
D4:22:CD:00:49:AA,-149.43869018554688,-75.57061004638672,74.64130401611328,3.3195900917053223,-0.7306517362594604,-0.6438446044921875,391.9148576259613
D4:22:CD:00:05:6E,-96.86277770996094,-43.31863021850586,-77.02450561523438,1.6846718788146973,-3.189634323120117,-0.9362926483154297,391.9148576259613
D4:22:CD:00:05:5E,159.98777770996094,-77.243896484375,5.0873494148254395,-1.4414348602294922,-0.41145557165145874,0.7519664764404297,391.9148576259613
D4:22:CD:00:05:5D,146.51902770996094,-45.0025749206543,-97.66692352294922,7.02413272857666,2.261915683746338,0.7271890640258789,391.9448585510254
D4:22:CD:00:05:6B,-53.045372009277344,-10.993372917175293,15.484382629394531,9.125923156738281,-2.0287842750549316,6.432954788208008,391.9448585510254
D4:22:CD:00:49:AA,-153.5792236328125,-77.12347412109375,76.23422241210938,-3.4035868644714355,2.9388322830200195,0.8263378143310547,391.9448585510254
D4:22:CD:00:05:6E,-87.38029479980469,-47.193599700927734,-82.93961334228516,-7.298951148986816,-8.742513656616211,-1.453822135925293,391.9448585510254
D4:22:CD:00:05:5E,163.17689514160156,-75.8050765991211,2.4971907138824463,-1.638777256011963,0.1915954053401947,0.2641286849975586,391.9448585510254
D4:22:CD:00:05:5D,154.5276336669922,-31.610727310180664,-106.77117156982422,-1.3074595928192139,-4.544459342956543,-5.284214973449707,391.9751658439636
D4:22:CD:00:05:6B,-53.7325553894043,-16.760513305664062,24.408323287963867,-0.10880905389785767,2.130664825439453,22.24123764038086,391.9751658439636
D4:22:CD:00:49:AA,-152.3838653564453,-77.65476989746094,74.1200180053711,1.3951747417449951,1.2097053527832031,-0.46055126190185547,391.9751658439636
D4:22:CD:00:05:6E,-80.80461883544922,-50.76276397705078,-88.84139251708984,-3.8152379989624023,-10.368968963623047,-3.2337136268615723,391.9751658439636
D4:22:CD:00:05:5E,165.48886108398438,-74.68694305419922,1.3715325593948364,-0.09798756241798401,0.8737930059432983,1.0095453262329102,391.9751658439636
D4:22:CD:00:05:5D,162.6871337890625,-20.767610549926758,-112.63971710205078,-5.365945816040039,-5.180598258972168,-9.203487396240234,392.0047173500061
D4:22:CD:00:05:6B,-51.63298034667969,-17.280536651611328,26.052753448486328,-3.592038154602051,10.681833267211914,1.009115219116211,392.0047173500061
D4:22:CD:00:49:AA,-150.47930908203125,-78.42146301269531,73.51580810546875,4.572229385375977,3.0854196548461914,0.7096271514892578,392.0047173500061
D4:22:CD:00:05:6E,-75.31715393066406,-53.81125259399414,-92.90287780761719,-5.272452354431152,-7.39354133605957,-1.281865119934082,392.0047173500061
D4:22:CD:00:05:5E,167.34429931640625,-73.84320831298828,1.895239233970642,-1.6140410900115967,0.1938544511795044,0.2805747985839844,392.0047173500061
D4:22:CD:00:05:5D,166.72335815429688,-15.169114112854004,-117.78763580322266,-7.011666297912598,-4.30030632019043,-7.746145248413086,392.0348563194275
D4:22:CD:00:05:6B,-57.40426254272461,-19.590120315551758,24.944461822509766,-0.7236981391906738,-0.7305741310119629,0.009800910949707031,392.0348563194275
D4:22:CD:00:49:AA,-152.2168426513672,-78.6248550415039,75.87628173828125,3.032644271850586,1.2186763286590576,-0.8137931823730469,392.0348563194275
D4:22:CD:00:05:6E,-69.00628662109375,-57.134071350097656,-94.22573852539062,-3.9225754737854004,-7.864659309387207,-4.294066429138184,392.0348563194275
D4:22:CD:00:05:5E,169.49630737304688,-72.78744506835938,1.3393499851226807,-1.6628825664520264,-0.5929248332977295,-0.015406608581542969,392.0348563194275
D4:22:CD:00:05:5D,167.0840301513672,-16.00823402404785,-121.67512512207031,-13.71464729309082,-7.761127471923828,-15.239799499511719,392.06495118141174
D4:22:CD:00:05:6B,-61.220272064208984,-27.922626495361328,24.606075286865234,2.674224853515625,0.8242521286010742,1.4812383651733398,392.06495118141174
D4:22:CD:00:49:AA,-152.51548767089844,-78.70262145996094,75.98759460449219,2.98616361618042,-0.5080554485321045,-0.5188713073730469,392.06495118141174
D4:22:CD:00:05:6E,-64.90882110595703,-60.13314437866211,-93.87297058105469,-1.5325920581817627,-8.421300888061523,-6.39483642578125,392.06495118141174
D4:22:CD:00:05:5E,172.1287078857422,-71.38204956054688,-1.2626409530639648,-1.0738193988800049,-3.6893415451049805,-0.9726858139038086,392.06495118141174
D4:22:CD:00:05:5D,165.4180450439453,-21.25957679748535,-124.4851303100586,-7.636419296264648,-3.8415098190307617,9.911613464355469,392.0945601463318
D4:22:CD:00:05:6B,-61.04541015625,-44.034244537353516,24.147350311279297,12.880317687988281,10.584999084472656,15.001102447509766,392.0945601463318
D4:22:CD:00:49:AA,-151.53549194335938,-78.72488403320312,74.4749526977539,3.0752553939819336,0.33593112230300903,-0.9267482757568359,392.0945601463318
D4:22:CD:00:05:6E,-64.49519348144531,-62.68471145629883,-92.40320587158203,1.2438764572143555,-9.539331436157227,-6.416128158569336,392.0945601463318
D4:22:CD:00:05:5E,173.85562133789062,-69.9444808959961,-4.043891429901123,-1.447009801864624,0.662270188331604,0.34551429748535156,392.0945601463318
D4:22:CD:00:05:5D,166.0631103515625,-23.087108612060547,-125.73907470703125,-15.743640899658203,-18.137020111083984,4.243356704711914,392.15456461906433
D4:22:CD:00:05:6B,-56.3644905090332,-60.75260543823242,21.131921768188477,20.334163665771484,17.049041748046875,33.05347442626953,392.15456461906433
D4:22:CD:00:49:AA,-149.55323791503906,-78.51842498779297,71.97212219238281,-4.118415832519531,1.6804518699645996,-0.9092731475830078,392.15456461906433
D4:22:CD:00:05:6E,-66.14429473876953,-67.25921630859375,-91.62682342529297,3.7467708587646484,-19.484066009521484,-2.6850857734680176,392.15456461906433
D4:22:CD:00:05:5E,173.54644775390625,-68.9366683959961,-3.846710443496704,0.16864341497421265,0.30478113889694214,0.515960693359375,392.15456461906433
D4:22:CD:00:05:5D,166.9152374267578,-24.01512908935547,-125.24623107910156,-17.01987075805664,-19.84937286376953,2.8394556045532227,392.1847105026245
D4:22:CD:00:05:6B,-53.75127410888672,-60.55072784423828,18.953845977783203,17.708473205566406,7.677999496459961,2.046123504638672,392.1847105026245
D4:22:CD:00:49:AA,-150.33192443847656,-78.51920318603516,73.3726806640625,1.0296132564544678,-2.815248966217041,3.5627479553222656,392.1847105026245
D4:22:CD:00:05:6E,-55.70051956176758,-77.6545639038086,-102.5954360961914,13.505743026733398,-19.7098388671875,17.482566833496094,392.1847105026245
D4:22:CD:00:05:5E,170.42001342773438,-68.08125305175781,-0.5976746082305908,-1.4639582633972168,0.7489352226257324,0.7661371231079102,392.1847105026245
D4:22:CD:00:05:5D,168.67642211914062,-22.674346923828125,-123.14723205566406,-24.913402557373047,-12.405143737792969,12.257633209228516,392.21444511413574
D4:22:CD:00:05:6B,-62.60857391357422,-48.41142272949219,24.443649291992188,20.283058166503906,3.0723366737365723,19.167709350585938,392.21444511413574
D4:22:CD:00:49:AA,-157.0693817138672,-77.066650390625,79.56730651855469,1.0135748386383057,-0.986037015914917,3.441923141479492,392.21444511413574
D4:22:CD:00:05:6E,57.42228317260742,-79.68317413330078,158.56700134277344,19.726238250732422,-22.776172637939453,10.288660049438477,392.21444511413574
D4:22:CD:00:05:5E,165.07896423339844,-67.19892883300781,4.101476669311523,-1.6953768730163574,0.24230104684829712,0.7903966903686523,392.21444511413574
D4:22:CD:00:05:5D,166.3607635498047,-18.64739990234375,-119.51142883300781,-5.520340919494629,-12.26434326171875,15.861442565917969,392.24463510513306
D4:22:CD:00:05:6B,-68.16946411132812,-36.75749969482422,22.656993865966797,22.438419342041016,-4.225522994995117,2.588930130004883,392.24463510513306
D4:22:CD:00:49:AA,-161.3120574951172,-75.4010238647461,83.64266967773438,2.102968692779541,2.4731993675231934,6.683084487915039,392.24463510513306
D4:22:CD:00:05:6E,96.58731079101562,-61.968406677246094,125.95736694335938,18.99013900756836,-23.749095916748047,2.242877960205078,392.24463510513306
D4:22:CD:00:05:5E,159.4539337158203,-66.37326049804688,7.91892671585083,-2.339967727661133,-1.1812760829925537,1.557316780090332,392.24463510513306
D4:22:CD:00:05:5D,166.94773864746094,-13.399248123168945,-118.18302154541016,-5.422206878662109,-8.275794982910156,10.642446517944336,392.2749960422516
D4:22:CD:00:05:6B,-74.05753326416016,-28.88861656188965,15.645339012145996,6.974842071533203,-9.217403411865234,0.8045053482055664,392.2749960422516
D4:22:CD:00:49:AA,-165.36221313476562,-75.51808166503906,87.52759552001953,3.449551582336426,1.3578946590423584,7.87779426574707,392.2749960422516
D4:22:CD:00:05:6E,107.13679504394531,-39.03572463989258,115.12501525878906,15.399280548095703,-21.008560180664062,16.361530303955078,392.2749960422516
D4:22:CD:00:05:5E,152.55047607421875,-67.5632553100586,13.493277549743652,-2.4220948219299316,0.42891377210617065,2.706859588623047,392.2749960422516
D4:22:CD:00:05:5D,164.72586059570312,-10.550806045532227,-118.2476806640625,-1.5452072620391846,-0.9549612998962402,1.8066396713256836,392.3042542934418
D4:22:CD:00:05:6B,-78.289306640625,-28.583576202392578,5.730174541473389,-3.4204206466674805,-7.173247337341309,-1.0057592391967773,392.3042542934418
D4:22:CD:00:49:AA,-170.3273468017578,-75.5218505859375,91.2759017944336,6.188345909118652,1.8469843864440918,6.567943572998047,392.3042542934418
D4:22:CD:00:05:6E,101.78491973876953,-14.713014602661133,107.14459228515625,-6.185756683349609,0.07219873368740082,12.082834243774414,392.3042542934418
D4:22:CD:00:05:5E,140.34446716308594,-70.9119873046875,24.966516494750977,-1.9135246276855469,0.9828206300735474,5.197260856628418,392.3042542934418
D4:22:CD:00:05:5D,163.72128295898438,-11.385523796081543,-118.48177337646484,2.62180233001709,2.1757636070251465,-9.354087829589844,392.3343594074249
D4:22:CD:00:05:6B,-80.01765441894531,-36.0289306640625,-4.865618705749512,-9.420541763305664,-6.054543495178223,-0.9570733308792114,392.3343594074249
D4:22:CD:00:49:AA,-175.54141235351562,-75.14920806884766,94.4153060913086,6.91480827331543,1.4255318641662598,5.547680854797363,392.3343594074249
D4:22:CD:00:05:6E,85.48458862304688,5.8384013175964355,98.99978637695312,-14.368806838989258,5.933818817138672,0.26599597930908203,392.3343594074249
D4:22:CD:00:05:5E,115.8189697265625,-75.5670166015625,54.612918853759766,-5.3739471435546875,6.692595481872559,3.801478385925293,392.3343594074249
D4:22:CD:00:05:5D,164.2031707763672,-16.561481475830078,-118.74195098876953,-0.19042432308197021,3.268660545349121,-15.056983947753906,392.36535692214966
D4:22:CD:00:05:6B,-79.6824722290039,-47.76859664916992,-14.33322525024414,-9.291902542114258,-2.2369279861450195,-1.5931100845336914,392.36535692214966
D4:22:CD:00:49:AA,-179.215087890625,-74.92092895507812,95.92761993408203,2.312251091003418,-0.45444387197494507,2.5498085021972656,392.36535692214966
D4:22:CD:00:05:6E,59.2586669921875,20.538915634155273,89.39339447021484,-12.06374740600586,9.000883102416992,-18.849937438964844,392.36535692214966
D4:22:CD:00:05:5E,101.99716186523438,-76.78923034667969,68.51667785644531,-3.659250259399414,-1.9546234607696533,-0.7443513870239258,392.36535692214966
D4:22:CD:00:05:5D,162.7305908203125,-25.481821060180664,-119.45783996582031,-3.6929140090942383,-0.2788069248199463,-17.863567352294922,392.3945276737213
D4:22:CD:00:05:6B,-77.87784576416016,-60.28984069824219,-22.68988609313965,-7.604002952575684,-1.4215433597564697,-4.122725486755371,392.3945276737213
D4:22:CD:00:49:AA,173.037353515625,-75.85333251953125,100.59439849853516,1.1191246509552002,2.0803418159484863,-8.752727508544922,392.3945276737213
D4:22:CD:00:05:6E,39.237972259521484,30.147232055664062,80.3673095703125,10.419954299926758,1.5364463329315186,-17.58108901977539,392.3945276737213
D4:22:CD:00:05:5E,125.13178253173828,-77.83566284179688,42.02701950073242,-12.89900016784668,4.1056013107299805,-5.1526594161987305,392.3945276737213
D4:22:CD:00:05:5D,160.47647094726562,-36.70566940307617,-120.57637786865234,-4.738856315612793,-2.9565343856811523,-16.302200317382812,392.45473861694336
D4:22:CD:00:05:6B,-79.11399841308594,-71.64129638671875,-29.660978317260742,-9.417028427124023,1.0878942012786865,-3.1173624992370605,392.45473861694336
D4:22:CD:00:49:AA,165.6175994873047,-75.18537902832031,104.41426849365234,-0.23666006326675415,-0.5221765041351318,-10.829856872558594,392.45473861694336
D4:22:CD:00:05:6E,28.19899559020996,36.424808502197266,74.70326232910156,0.09890057146549225,-5.135472297668457,-9.456377029418945,392.45473861694336
D4:22:CD:00:05:5E,150.06536865234375,-74.78085327148438,4.06060791015625,16.067184448242188,-7.498688697814941,-11.065441131591797,392.45473861694336
D4:22:CD:00:05:5D,159.43011474609375,-49.984466552734375,-122.13433074951172,-5.73386287689209,-2.0642037391662598,-10.303983688354492,392.48581409454346
D4:22:CD:00:05:6B,-75.84821319580078,-81.76212310791016,-36.17212677001953,-7.334186553955078,2.9704766273498535,-6.9079999923706055,392.48581409454346
D4:22:CD:00:49:AA,160.22052001953125,-75.82676696777344,107.05609893798828,-1.3726625442504883,2.303272247314453,-7.179143905639648,392.48581409454346
D4:22:CD:00:05:6E,18.119253158569336,38.16731643676758,73.63367462158203,5.479891777038574,-10.521743774414062,-8.522371292114258,392.48581409454346
D4:22:CD:00:05:5E,148.5731964111328,-74.34569549560547,-3.843423843383789,-11.55478286743164,3.487283706665039,1.364532470703125,392.48581409454346
D4:22:CD:00:05:5D,160.08624267578125,-65.0441665649414,-124.50973510742188,-4.385317802429199,-2.0622763633728027,-1.3347349166870117,392.5145261287689
D4:22:CD:00:05:6B,170.6175079345703,-89.54328918457031,74.08869171142578,-3.170271873474121,3.206186294555664,-7.877978324890137,392.5145261287689
D4:22:CD:00:49:AA,150.56881713867188,-76.44589233398438,113.03960418701172,5.4980058670043945,1.7385187149047852,-8.286191940307617,392.5145261287689
D4:22:CD:00:05:6E,14.664660453796387,36.81321716308594,77.91045379638672,6.76735782623291,-11.20960807800293,-5.753082275390625,392.5145261287689
D4:22:CD:00:05:5E,148.8600311279297,-74.05980682373047,-5.003910541534424,1.5460162162780762,2.453643321990967,-3.3387255668640137,392.5145261287689
D4:22:CD:00:05:5D,163.14144897460938,-81.07337951660156,-126.967041015625,1.780061960220337,4.058388710021973,10.098213195800781,392.54499435424805
D4:22:CD:00:05:6B,112.86886596679688,-82.57865142822266,127.30047607421875,-3.2838048934936523,6.781613349914551,-6.500814437866211,392.54499435424805
D4:22:CD:00:49:AA,141.89837646484375,-75.87859344482422,117.46249389648438,0.9151126146316528,-3.119508743286133,-3.5179786682128906,392.54499435424805
D4:22:CD:00:05:6E,18.83338737487793,32.196041107177734,86.82675170898438,5.855316162109375,-6.529151916503906,-5.085127830505371,392.54499435424805
D4:22:CD:00:05:5E,150.62977600097656,-73.45226287841797,-7.016387939453125,0.5143338441848755,-0.36730343103408813,-2.552415370941162,392.54499435424805
D4:22:CD:00:05:5D,2.7528300285339355,-84.91238403320312,38.94436264038086,14.07415771484375,14.248414993286133,9.781309127807617,392.57500076293945
D4:22:CD:00:05:6B,108.98545837402344,-75.94161987304688,128.3422088623047,-1.070631742477417,5.692111015319824,-4.097200393676758,392.57500076293945
D4:22:CD:00:49:AA,137.54278564453125,-76.481201171875,120.1382064819336,-5.317204475402832,-0.32607322931289673,-0.7010507583618164,392.57500076293945
D4:22:CD:00:05:6E,29.469135284423828,24.80159568786621,98.82965850830078,1.3949952125549316,0.17155185341835022,-6.205362319946289,392.57500076293945
D4:22:CD:00:05:5E,153.41744995117188,-72.06121826171875,-12.727326393127441,0.10540848970413208,-6.32533073425293,3.104184150695801,392.57500076293945
D4:22:CD:00:05:5D,4.248444557189941,-76.25469207763672,39.67928695678711,10.524736404418945,14.290559768676758,-3.059537887573242,392.6045207977295
D4:22:CD:00:05:6B,104.41178131103516,-70.4286117553711,127.96863555908203,0.11063790321350098,4.901660919189453,-1.6599273681640625,392.6045207977295
D4:22:CD:00:49:AA,135.11888122558594,-77.46058654785156,122.5107650756836,-0.6202589273452759,0.28710347414016724,-3.907794952392578,392.6045207977295
D4:22:CD:00:05:6E,40.77412033081055,12.929778099060059,114.14718627929688,-12.203031539916992,12.333145141601562,-15.525819778442383,392.6045207977295
D4:22:CD:00:05:5E,159.03363037109375,-70.47508239746094,-19.251354217529297,0.8818881511688232,0.7486224174499512,-0.8584423065185547,392.6045207977295
D4:22:CD:00:05:5D,-1.9236745834350586,-72.44717407226562,39.897762298583984,11.338163375854492,8.705293655395508,-6.039632797241211,392.6346848011017
D4:22:CD:00:05:6B,98.03263854980469,-66.84503936767578,126.47403717041016,-1.2143354415893555,7.643237113952637,-1.5962944030761719,392.6346848011017
D4:22:CD:00:49:AA,138.46148681640625,-77.95921325683594,120.14891815185547,1.0310773849487305,-1.9227826595306396,2.4817256927490234,392.6346848011017
D4:22:CD:00:05:6E,37.323604583740234,1.4098659753799438,129.39646911621094,-30.008594512939453,18.891677856445312,5.662774085998535,392.6346848011017
D4:22:CD:00:05:5E,164.9661102294922,-69.1522445678711,-24.172698974609375,-3.3522109985351562,-4.812104225158691,1.4288215637207031,392.6346848011017
D4:22:CD:00:05:5D,6.018616676330566,-74.3992691040039,33.367496490478516,9.905174255371094,-4.957551002502441,-2.8292717933654785,392.66477155685425
D4:22:CD:00:05:6B,94.49447631835938,-64.86837005615234,125.1734390258789,-1.336822271347046,9.994531631469727,-1.5603857040405273,392.66477155685425
D4:22:CD:00:49:AA,139.88851928710938,-78.76744079589844,120.35260772705078,0.5177661180496216,0.7146615982055664,0.47293567657470703,392.66477155685425
D4:22:CD:00:05:6E,45.54993438720703,2.8540828227996826,129.1853790283203,17.92294692993164,-7.4297285079956055,-12.122570037841797,392.66477155685425
D4:22:CD:00:05:5E,170.58389282226562,-67.92729949951172,-29.43135643005371,2.364762783050537,1.7844302654266357,5.269949913024902,392.66477155685425
D4:22:CD:00:05:5D,37.376461029052734,-77.90650939941406,12.04212474822998,3.009049415588379,6.859926223754883,3.167017936706543,392.694473028183
D4:22:CD:00:05:6B,95.72554016113281,-64.58943176269531,124.36741638183594,-0.06523299217224121,6.0876874923706055,-1.3278560638427734,392.694473028183
D4:22:CD:00:49:AA,141.4932098388672,-78.16268920898438,119.55329895019531,6.777710914611816,2.215334415435791,0.2304372787475586,392.694473028183
D4:22:CD:00:05:6E,62.56100845336914,9.927573204040527,119.54358673095703,-27.08450698852539,-5.639252662658691,10.976644515991211,392.694473028183
D4:22:CD:00:05:5E,173.9337921142578,-67.70360565185547,-32.07857131958008,-0.8925081491470337,1.2479255199432373,0.9519138336181641,392.694473028183
D4:22:CD:00:05:5D,71.5879135131836,-80.195068359375,-18.406150817871094,-2.3156886100769043,-3.549145221710205,6.541297912597656,392.7549602985382
D4:22:CD:00:05:6B,98.39967346191406,-65.46651458740234,122.72895050048828,0.4638047218322754,8.309492111206055,3.801144599914551,392.7549602985382
D4:22:CD:00:49:AA,151.26040649414062,-78.03189849853516,109.78926849365234,4.552619934082031,0.4161564111709595,3.9719629287719727,392.7549602985382
D4:22:CD:00:05:6E,56.253047943115234,18.47553253173828,103.81269836425781,-0.33093392848968506,14.057714462280273,-13.276870727539062,392.7549602985382
D4:22:CD:00:05:5E,176.7416229248047,-68.43135070800781,-34.013343811035156,-1.937192440032959,0.10141520202159882,1.4109134674072266,392.7549602985382
D4:22:CD:00:05:5D,89.16020202636719,-80.70242309570312,-38.93088912963867,-0.08719329535961151,-8.660486221313477,2.0210323333740234,392.78461360931396
D4:22:CD:00:05:6B,101.82291412353516,-66.28782653808594,120.7932357788086,1.1807756423950195,7.700873374938965,4.55379581451416,392.78461360931396
D4:22:CD:00:49:AA,158.3507537841797,-77.78776550292969,103.65708923339844,2.8541088104248047,0.9032783508300781,3.8245935440063477,392.78461360931396
D4:22:CD:00:05:6E,59.27127456665039,26.447486877441406,83.93586730957031,-9.791776657104492,3.0538153648376465,-2.8425869941711426,392.78461360931396
D4:22:CD:00:05:5E,-179.76905822753906,-69.24366760253906,-37.55902862548828,-1.1943113803863525,-0.8607925176620483,1.149393081665039,392.78461360931396
D4:22:CD:00:05:5D,102.42992401123047,-81.35623168945312,-52.429229736328125,3.370016098022461,-11.00275993347168,1.5074663162231445,392.8152506351471
D4:22:CD:00:05:6B,106.01025390625,-67.57815551757812,118.89761352539062,1.623978853225708,6.923130989074707,5.658565521240234,392.8152506351471
D4:22:CD:00:49:AA,162.94601440429688,-76.74967193603516,98.9691390991211,2.8098154067993164,0.9882808923721313,1.4455461502075195,392.8152506351471
D4:22:CD:00:05:6E,55.95357131958008,28.962465286254883,63.21796417236328,-2.5465283393859863,-1.028219223022461,-8.129308700561523,392.8152506351471
D4:22:CD:00:05:5E,-175.05140686035156,-70.460693359375,-41.7415885925293,0.2912214994430542,-2.220675468444824,2.8784666061401367,392.8152506351471
D4:22:CD:00:05:5D,117.972412109375,-81.63726043701172,-63.79204177856445,-4.137877464294434,0.3941333293914795,3.434053421020508,392.84480571746826
D4:22:CD:00:05:6B,110.27244567871094,-69.78883361816406,117.2680892944336,2.1591506004333496,6.675034523010254,5.030688285827637,392.84480571746826
D4:22:CD:00:49:AA,165.79408264160156,-75.4616928100586,96.39634704589844,2.075988292694092,-0.08103528618812561,-0.6139421463012695,392.84480571746826
D4:22:CD:00:05:6E,49.28811264038086,26.80618667602539,42.869476318359375,4.031591415405273,-11.693780899047852,-12.217718124389648,392.84480571746826
D4:22:CD:00:05:5E,-168.34817504882812,-72.01146697998047,-44.3876953125,1.2795615196228027,-4.114313125610352,3.9937686920166016,392.84480571746826
D4:22:CD:00:05:5D,134.01321411132812,-81.3510513305664,-75.56562805175781,-1.0602962970733643,-1.6266024112701416,1.318136215209961,392.8752088546753
D4:22:CD:00:05:6B,114.27345275878906,-72.82439422607422,116.08108520507812,1.7534327507019043,5.783140182495117,3.004495620727539,392.8752088546753
D4:22:CD:00:49:AA,166.93350219726562,-73.60537719726562,96.08718872070312,0.7902450561523438,-0.08538864552974701,0.4448070526123047,392.8752088546753
D4:22:CD:00:05:6E,52.66244125366211,21.089401245117188,29.614177703857422,7.705843925476074,-31.695438385009766,-23.985923767089844,392.8752088546753
D4:22:CD:00:05:5E,-157.9464874267578,-74.10845947265625,-49.234683990478516,1.2217605113983154,-12.59701919555664,5.076338768005371,392.8752088546753
D4:22:CD:00:05:5D,151.2602081298828,-80.89157104492188,-89.7764663696289,-3.705721855163574,3.6969165802001953,0.9912786483764648,392.90474486351013
D4:22:CD:00:05:6B,119.243408203125,-75.53236389160156,114.41358947753906,1.5416357517242432,2.2982330322265625,0.31351375579833984,392.90474486351013
D4:22:CD:00:49:AA,167.42002868652344,-71.84180450439453,97.8913803100586,-3.6514339447021484,-0.6239916086196899,2.095806121826172,392.90474486351013
D4:22:CD:00:05:6E,57.464881896972656,12.339512825012207,24.418848037719727,4.504881858825684,2.8816580772399902,1.1123991012573242,392.90474486351013
D4:22:CD:00:05:5E,-143.1973876953125,-74.8361587524414,-50.77804183959961,-22.954994201660156,-4.757143020629883,0.9717626571655273,392.90474486351013
D4:22:CD:00:05:5D,165.31651306152344,-79.68600463867188,-101.85990142822266,3.1243886947631836,-2.3242363929748535,-1.2134342193603516,392.9349293708801
D4:22:CD:00:05:6B,124.72925567626953,-77.0084457397461,113.86893463134766,-1.739882469177246,2.670947551727295,-1.86668062210083,392.9349293708801
D4:22:CD:00:49:AA,168.54962158203125,-70.83635711669922,100.95960235595703,-4.589204788208008,-0.8032921552658081,0.1609640121459961,392.9349293708801
D4:22:CD:00:05:6E,60.49599075317383,6.681207656860352,20.59638023376465,4.6775054931640625,-5.505660057067871,0.013286590576171875,392.9349293708801
D4:22:CD:00:05:5E,-146.76502990722656,-70.17166137695312,-37.17216873168945,-21.407302856445312,-12.273048400878906,2.8910160064697266,392.9349293708801
D4:22:CD:00:05:5D,173.1177520751953,-77.06668090820312,-106.34249114990234,2.5722241401672363,-1.470895767211914,0.06988525390625,392.9645576477051
D4:22:CD:00:05:6B,127.57424926757812,-77.69659423828125,119.00286865234375,3.5399484634399414,-6.537511825561523,-3.2819275856018066,392.9645576477051
D4:22:CD:00:49:AA,170.43380737304688,-70.47064208984375,103.07902526855469,-0.025953207165002823,1.8312525749206543,-2.0344038009643555,392.9645576477051
D4:22:CD:00:05:6E,70.34061431884766,4.374910831451416,16.214115142822266,5.206727027893066,1.5063421726226807,9.239994049072266,392.9645576477051
D4:22:CD:00:05:5E,-157.98402404785156,-62.045833587646484,-21.669189453125,-9.712169647216797,-6.159804344177246,-3.616903305053711,392.9645576477051
D4:22:CD:00:05:5D,175.80917358398438,-74.61251068115234,-105.55528259277344,0.9951896667480469,0.5399152040481567,0.4391136169433594,392.99520778656006
D4:22:CD:00:05:6B,120.4509506225586,-77.67884826660156,129.52610778808594,0.18287014961242676,-7.729018211364746,-1.0151042938232422,392.99520778656006
D4:22:CD:00:49:AA,171.21719360351562,-70.5611572265625,104.55802917480469,0.8459497690200806,4.026802062988281,0.4829130172729492,392.99520778656006
D4:22:CD:00:05:6E,76.83377838134766,3.8783953189849854,10.896618843078613,6.281620025634766,-8.486783981323242,-3.750244140625,392.99520778656006
D4:22:CD:00:05:5E,-165.19146728515625,-53.386104583740234,-9.800773620605469,-3.660449504852295,-3.1173081398010254,-8.061576843261719,392.99520778656006
D4:22:CD:00:05:5D,176.711181640625,-72.48397064208984,-104.12833404541016,-1.2454090118408203,0.6905984878540039,0.5248565673828125,393.0543324947357
D4:22:CD:00:05:6B,108.8205795288086,-76.8424301147461,141.73007202148438,-4.439493179321289,-7.088457107543945,0.7616739273071289,393.0543324947357
D4:22:CD:00:49:AA,170.35499572753906,-71.50178527832031,107.2737808227539,-3.4263625144958496,1.5614173412322998,-0.08063507080078125,393.0543324947357
D4:22:CD:00:05:6E,90.44458770751953,1.8183673620224,7.717695713043213,2.7045607566833496,-2.5746283531188965,-6.694270133972168,393.0543324947357
D4:22:CD:00:05:5E,-170.0225372314453,-45.607139587402344,-0.4580628573894501,-0.7653918266296387,-0.7450671195983887,-10.72967529296875,393.0543324947357
D4:22:CD:00:05:5D,178.3383026123047,-71.08405303955078,-105.26302337646484,-3.410144805908203,1.6866772174835205,0.6027107238769531,393.08489871025085
D4:22:CD:00:05:6B,100.59527587890625,-76.89118957519531,148.7600555419922,-5.7806291580200195,-4.219454765319824,0.07954692840576172,393.08489871025085
D4:22:CD:00:49:AA,167.01332092285156,-72.4749984741211,111.81168365478516,-4.686262130737305,2.076478958129883,-1.4492912292480469,393.08489871025085
D4:22:CD:00:05:6E,93.9257583618164,-3.617677688598633,2.162501096725464,2.1520376205444336,-4.372281074523926,1.1326570510864258,393.08489871025085
D4:22:CD:00:05:5E,-176.90940856933594,-39.10789108276367,6.396703720092773,-1.6295552253723145,-1.939849615097046,-6.020110130310059,393.08489871025085
D4:22:CD:00:05:5D,179.44985961914062,-69.34488677978516,-107.42694091796875,-2.627077102661133,-0.06645263731479645,-0.20540332794189453,393.11667037010193
D4:22:CD:00:05:6B,93.49451446533203,-78.97047424316406,153.75990295410156,-5.339426040649414,-2.2711539268493652,-3.105905055999756,393.11667037010193
D4:22:CD:00:49:AA,162.35093688964844,-73.56637573242188,117.38965606689453,-1.4346494674682617,0.09509246051311493,-2.3675131797790527,393.11667037010193
D4:22:CD:00:05:6E,92.53437805175781,-12.352046966552734,-6.485707759857178,9.78335189819336,-10.370033264160156,-7.558218955993652,393.11667037010193
D4:22:CD:00:05:5E,175.15475463867188,-34.59797668457031,12.02112102508545,6.624842643737793,3.450551986694336,-7.196101188659668,393.11667037010193
D4:22:CD:00:05:5D,178.79180908203125,-67.27265167236328,-108.45919799804688,1.7039332389831543,-0.4453616142272949,-0.43758678436279297,393.14468264579773
D4:22:CD:00:05:6B,81.48880767822266,-81.78656768798828,163.60369873046875,-3.3042473793029785,2.425264835357666,-5.309052467346191,393.14468264579773
D4:22:CD:00:49:AA,156.5291748046875,-74.3961181640625,123.8434066772461,-0.40000200271606445,-0.22881010174751282,-4.720528602600098,393.14468264579773
D4:22:CD:00:05:6E,96.650634765625,-24.32499885559082,-14.072468757629395,18.58997344970703,-15.223491668701172,-2.6828017234802246,393.14468264579773
D4:22:CD:00:05:5E,170.0249481201172,-33.60390853881836,16.125720977783203,12.197315216064453,7.368279457092285,-8.699337005615234,393.14468264579773
