Device,EulerX,EulerY,EulerZ,FreeAccX,FreeAccY,FreeAccZ,Timestamp
D4:22:CD:00:05:5D,176.96707153320312,-52.197750091552734,-109.8658218383789,-2.7523083686828613,3.040083408355713,1.8941316604614258,2445.2102546691895
D4:22:CD:00:05:6B,-50.51921844482422,-17.890352249145508,-99.40383911132812,5.170655250549316,9.469524383544922,25.163414001464844,2445.2102546691895
D4:22:CD:00:49:AA,129.7745819091797,-69.20282745361328,152.58648681640625,-7.917837142944336,0.8073408603668213,13.534404754638672,2445.2102546691895
D4:22:CD:00:05:6E,79.38906860351562,-63.313621520996094,9.81196403503418,6.623866081237793,13.620569229125977,10.780698776245117,2445.2102546691895
D4:22:CD:00:05:5E,-172.1154327392578,-56.10013198852539,102.24872589111328,2.9655795097351074,5.290670394897461,16.6671142578125,2445.2102546691895
D4:22:CD:00:05:5D,176.553955078125,-51.19551086425781,-107.84056091308594,-2.9518914222717285,3.1994433403015137,2.486419677734375,2445.2142555713654
D4:22:CD:00:05:6B,-48.734432220458984,-7.111156940460205,-92.28239440917969,11.91727066040039,-0.5784940719604492,24.012161254882812,2445.2142555713654
D4:22:CD:00:49:AA,131.0594482421875,-69.95306396484375,153.3416748046875,-4.083907127380371,-4.748142242431641,9.901630401611328,2445.2142555713654
D4:22:CD:00:05:6E,76.64457702636719,-64.98255920410156,16.47515869140625,8.380775451660156,8.003664016723633,14.506895065307617,2445.2142555713654
D4:22:CD:00:05:5E,-171.7612762451172,-53.06689453125,103.79051208496094,-7.703298568725586,-2.571347236633301,4.88723087310791,2445.2142555713654
D4:22:CD:00:05:5D,177.1045684814453,-51.87025451660156,-107.27999114990234,-1.162651538848877,1.4621798992156982,2.242176055908203,2445.217268705368
D4:22:CD:00:05:6B,-40.97324752807617,0.7106993794441223,-83.07894897460938,8.588397979736328,-2.5640902519226074,11.853004455566406,2445.217268705368
D4:22:CD:00:49:AA,131.96278381347656,-70.86317443847656,154.83363342285156,2.404665946960449,0.5768183469772339,7.805747985839844,2445.217268705368
D4:22:CD:00:05:6E,77.82575225830078,-64.09252166748047,21.161453247070312,8.747865676879883,5.582487106323242,14.456098556518555,2445.217268705368
D4:22:CD:00:05:5E,-170.4954071044922,-54.4891471862793,102.9779052734375,-11.571889877319336,-5.098967552185059,-4.641716957092285,2445.217268705368
D4:22:CD:00:05:6B,-35.5340461730957,3.2895286083221436,-77.16690063476562,-2.580758571624756,0.8593478202819824,12.962223052978516,2445.2192692756653
D4:22:CD:00:49:AA,131.35736083984375,-72.37088775634766,157.5232391357422,-1.4772024154663086,1.5957233905792236,8.02607536315918,2445.2192692756653
D4:22:CD:00:05:6E,82.6785659790039,-60.28010177612305,27.274988174438477,-9.260391235351562,6.521326065063477,13.388116836547852,2445.2192692756653
D4:22:CD:00:05:5E,-167.59300231933594,-59.98249816894531,98.22978973388672,-11.409793853759766,-3.41518497467041,-6.517911911010742,2445.2192692756653
D4:22:CD:00:05:5D,169.24046325683594,-59.71196746826172,-118.8153076171875,1.1149287223815918,-2.1709470748901367,0.2372264862060547,2445.2222695350647
D4:22:CD:00:05:6B,-68.45384216308594,-59.56461715698242,-111.76461029052734,1.4217698574066162,3.5394392013549805,-0.8893299102783203,2445.2222695350647
D4:22:CD:00:05:5D,175.15589904785156,-62.853424072265625,-125.67095947265625,-0.5446053743362427,-1.9344475269317627,-0.019895553588867188,2445.294811487198
D4:22:CD:00:05:6B,-65.36228942871094,-48.035709381103516,-118.24195861816406,2.221586227416992,1.979090929031372,-5.669544219970703,2445.294811487198
D4:22:CD:00:49:AA,158.8397216796875,-68.58287048339844,126.0624008178711,-1.7546489238739014,-1.8482258319854736,-5.551685333251953,2445.294811487198
D4:22:CD:00:05:6E,72.63926696777344,-78.28916931152344,58.25251770019531,1.8832542896270752,-10.341012954711914,33.81756591796875,2445.294811487198
D4:22:CD:00:05:5E,17.62370491027832,-48.29665756225586,-123.01337432861328,-4.652107238769531,-11.119983673095703,0.6350173950195312,2445.294811487198
D4:22:CD:00:05:5D,177.16030883789062,-64.4400634765625,-128.22079467773438,-2.0167236328125,-1.8291850090026855,1.408005714416504,2445.324897289276
D4:22:CD:00:05:6B,-62.68714141845703,-38.024925231933594,-123.90591430664062,6.032949447631836,6.52085018157959,-1.6772241592407227,2445.324897289276
D4:22:CD:00:49:AA,162.99533081054688,-68.32237243652344,122.31993103027344,-2.98465633392334,-2.214704990386963,-5.940285682678223,2445.324897289276
D4:22:CD:00:05:6E,25.13527488708496,-64.95913696289062,107.51473236083984,-10.288476943969727,7.101493835449219,38.10246276855469,2445.324897289276
D4:22:CD:00:05:5E,9.552858352661133,-74.613525390625,-117.42404174804688,-2.273550033569336,-2.6073365211486816,2.1683340072631836,2445.324897289276
D4:22:CD:00:05:5D,175.3642120361328,-64.75703430175781,-124.92404174804688,-2.497953414916992,-1.5582859516143799,1.1108970642089844,2445.354434967041
D4:22:CD:00:05:6B,-56.45627212524414,-24.849952697753906,-127.93060302734375,3.132594585418701,5.35378360748291,-1.805999755859375,2445.354434967041
D4:22:CD:00:49:AA,174.80270385742188,-68.57549285888672,112.51898193359375,-0.8054436445236206,-0.26772964000701904,-3.3720040321350098,2445.354434967041
D4:22:CD:00:05:6E,55.279815673828125,-66.2034912109375,86.8583984375,10.170061111450195,-5.835845947265625,-9.405902862548828,2445.354434967041
D4:22:CD:00:05:5E,-2.64387845993042,-84.60987854003906,-105.95675659179688,5.388824462890625,-3.5307188034057617,0.8106050491333008,2445.354434967041
D4:22:CD:00:05:5D,171.66468811035156,-63.58875274658203,-117.26756286621094,0.12809056043624878,-1.512256383895874,-4.824982643127441,2445.414405822754
D4:22:CD:00:05:6B,-54.94437789916992,-10.917196273803711,-129.48446655273438,1.773728847503662,-0.9885753393173218,-0.17615222930908203,2445.414405822754
D4:22:CD:00:49:AA,177.72341918945312,-69.4175033569336,110.95459747314453,5.720564842224121,0.7695361375808716,-6.921260833740234,2445.414405822754
D4:22:CD:00:05:6E,63.56939697265625,-60.904232025146484,79.17196655273438,5.528012275695801,-5.274386405944824,4.287731170654297,2445.414405822754
D4:22:CD:00:05:5E,145.0154571533203,-86.56066131591797,109.9271011352539,8.21755599975586,-4.135837554931641,5.5060224533081055,2445.414405822754
D4:22:CD:00:05:5D,170.49415588378906,-61.98299026489258,-110.72728729248047,5.679068565368652,8.177591323852539,-6.653371810913086,2445.4449603557587
D4:22:CD:00:05:6B,-56.41664123535156,3.6986005306243896,-129.84815979003906,-1.222726821899414,-2.087071418762207,3.2532730102539062,2445.4449603557587
D4:22:CD:00:49:AA,170.01097106933594,-68.48979949951172,118.16829681396484,1.7386689186096191,2.3246421813964844,-4.015458106994629,2445.4449603557587
D4:22:CD:00:05:6E,60.63356399536133,-54.3986701965332,86.26243591308594,-1.0638551712036133,9.65073013305664,4.886654853820801,2445.4449603557587
D4:22:CD:00:05:5E,169.22752380371094,-76.23294067382812,91.94978332519531,10.275842666625977,-8.989160537719727,24.791664123535156,2445.4449603557587
D4:22:CD:00:05:5D,170.45401000976562,-60.567535400390625,-108.58397674560547,7.443059921264648,0.8769994974136353,1.0362262725830078,2445.47496008873
D4:22:CD:00:05:6B,-60.038604736328125,18.618974685668945,-128.02891540527344,1.8620727062225342,-8.690149307250977,0.6893987655639648,2445.47496008873
D4:22:CD:00:49:AA,165.6801300048828,-66.73320770263672,121.52745056152344,-2.326146125793457,-0.830427885055542,2.2567148208618164,2445.47496008873
D4:22:CD:00:05:6E,61.849910736083984,-50.2552604675293,88.82425689697266,-2.0341267585754395,11.880546569824219,5.267244338989258,2445.47496008873
D4:22:CD:00:05:5E,172.03036499023438,-61.23140335083008,91.21156311035156,-0.32956892251968384,1.1282706260681152,26.96505355834961,2445.47496008873
D4:22:CD:00:05:5D,171.1918487548828,-60.142574310302734,-108.76871490478516,-1.6907289028167725,-5.45643424987793,6.027552604675293,2445.505119085312
D4:22:CD:00:05:6B,-60.64264678955078,33.30378723144531,-121.79840850830078,2.1415743827819824,-16.566753387451172,16.890575408935547,2445.505119085312
D4:22:CD:00:49:AA,168.14256286621094,-64.81246185302734,119.90301513671875,1.8956828117370605,-2.703878402709961,2.7887706756591797,2445.505119085312
D4:22:CD:00:05:6E,66.31669616699219,-46.43994903564453,86.6737060546875,-0.963455080986023,17.17321014404297,11.231826782226562,2445.505119085312
D4:22:CD:00:05:5E,175.22189331054688,-48.93034362792969,90.77505493164062,-5.757311820983887,-0.0025458126328885555,13.92209243774414,2445.505119085312
D4:22:CD:00:05:5D,172.78366088867188,-60.06764221191406,-108.41620635986328,-1.0795674324035645,0.914138913154602,0.3046140670776367,2445.534654378891
D4:22:CD:00:05:6B,-45.281349182128906,45.239105224609375,-109.94121551513672,-1.5949211120605469,-16.70853042602539,8.15920639038086,2445.534654378891
D4:22:CD:00:49:AA,170.02584838867188,-61.53410339355469,117.58845520019531,2.224860191345215,2.5196800231933594,2.653900146484375,2445.534654378891
D4:22:CD:00:05:6E,66.34693145751953,-44.52437973022461,86.56824493408203,-9.094152450561523,10.788516998291016,9.787271499633789,2445.534654378891
D4:22:CD:00:05:5E,178.302001953125,-40.35729217529297,89.38130950927734,-9.542251586914062,-3.1754236221313477,-0.9416389465332031,2445.534654378891
D4:22:CD:00:05:5D,174.4886016845703,-60.0200080871582,-109.86949157714844,-1.426239013671875,2.005239486694336,1.0474205017089844,2445.5646545886993
D4:22:CD:00:05:6B,-21.704378128051758,50.2719612121582,-90.42699432373047,-6.191378593444824,-13.373678207397461,8.551239013671875,2445.5646545886993
D4:22:CD:00:49:AA,169.61724853515625,-59.708641052246094,117.24272918701172,-5.490350723266602,4.974161148071289,3.985358238220215,2445.5646545886993
D4:22:CD:00:05:6E,65.89588928222656,-43.99989700317383,88.07777404785156,-9.396509170532227,7.817124366760254,3.7317256927490234,2445.5646545886993
D4:22:CD:00:05:5E,-178.91006469726562,-36.77640151977539,87.48600006103516,-10.413637161254883,-3.862518310546875,-12.193130493164062,2445.5646545886993
D4:22:CD:00:05:5D,176.5845489501953,-60.811222076416016,-111.91244506835938,0.06529103219509125,2.304037094116211,2.249833106994629,2445.594654560089
D4:22:CD:00:05:6B,1.6305291652679443,47.125938415527344,-73.59691619873047,-11.37785530090332,-13.403003692626953,7.3255615234375,2445.594654560089
D4:22:CD:00:49:AA,171.81593322753906,-59.74075698852539,115.5884780883789,-4.708208084106445,2.146735668182373,8.502120971679688,2445.594654560089
D4:22:CD:00:05:6E,67.37586212158203,-44.90169143676758,92.00672912597656,-8.866907119750977,-0.41823428869247437,-0.40502262115478516,2445.594654560089
D4:22:CD:00:05:5E,-174.4001007080078,-39.62640380859375,84.86771392822266,-9.277856826782227,1.9712271690368652,-20.430084228515625,2445.594654560089
D4:22:CD:00:05:5D,178.05001831054688,-63.16707229614258,-114.35446166992188,1.3544957637786865,1.7903258800506592,3.737015724182129,2445.624671936035
D4:22:CD:00:05:6B,20.074872970581055,40.83489227294922,-67.86640167236328,-11.246131896972656,-0.3748965263366699,6.460386276245117,2445.624671936035
D4:22:CD:00:49:AA,175.1993408203125,-60.83347702026367,114.04597473144531,-2.1430611610412598,4.812200546264648,9.968563079833984,2445.624671936035
D4:22:CD:00:05:6E,68.67696380615234,-47.67542266845703,97.84222412109375,-7.500755310058594,-7.066074371337891,-2.847188949584961,2445.624671936035
D4:22:CD:00:05:5E,-164.98362731933594,-49.587684631347656,79.60660552978516,-4.317420959472656,11.97620964050293,-22.75082778930664,2445.624671936035
D4:22:CD:00:05:5D,178.39479064941406,-67.65480041503906,-115.983154296875,-1.9796116352081299,0.8140010833740234,5.60614013671875,2445.655209302902
D4:22:CD:00:05:6B,29.56041717529297,33.34684753417969,-69.6226577758789,-10.999570846557617,4.660983085632324,2.102994918823242,2445.655209302902
D4:22:CD:00:49:AA,179.20895385742188,-62.152408599853516,112.67951202392578,-3.2003674507141113,3.0179214477539062,8.836042404174805,2445.655209302902
D4:22:CD:00:05:6E,69.06826782226562,-51.69646453857422,104.52178192138672,-4.832259178161621,-8.784601211547852,-6.5387067794799805,2445.655209302902
D4:22:CD:00:05:5E,-151.7070770263672,-63.5699577331543,68.85645294189453,3.036785125732422,16.259708404541016,-21.136653900146484,2445.655209302902
D4:22:CD:00:05:5D,174.9007568359375,-75.79063415527344,-115.8863296508789,-3.2418975830078125,1.5605571269989014,2.65762996673584,2445.715221643448
D4:22:CD:00:05:6B,34.59082794189453,27.60703468322754,-75.9460678100586,-3.0829977989196777,2.5439300537109375,-4.431507110595703,2445.715221643448
D4:22:CD:00:49:AA,-174.4486083984375,-63.66102600097656,109.621337890625,-1.500629186630249,1.2064330577850342,3.5932016372680664,2445.715221643448
D4:22:CD:00:05:6E,68.8913345336914,-55.6220817565918,111.93061065673828,0.49992233514785767,-6.326766014099121,-7.66473388671875,2445.715221643448
D4:22:CD:00:05:5E,-123.81383514404297,-78.1034164428711,38.99581527709961,2.2502598762512207,9.471435546875,-11.521066665649414,2445.715221643448
D4:22:CD:00:05:5D,164.75088500976562,-78.67298889160156,-109.9379653930664,8.86102294921875,3.769573211669922,-0.676915168762207,2445.7447652816772
D4:22:CD:00:05:6B,38.13576889038086,26.124996185302734,-84.8963623046875,-1.060114860534668,0.12995180487632751,-5.164002418518066,2445.7447652816772
D4:22:CD:00:49:AA,-165.77471923828125,-64.83293151855469,104.0488510131836,0.2492600679397583,-0.17158004641532898,-2.27736759185791,2445.7447652816772
D4:22:CD:00:05:6E,66.90703582763672,-57.27466583251953,122.3080062866211,0.11284933984279633,-3.605679988861084,-10.667770385742188,2445.7447652816772
D4:22:CD:00:05:5E,-26.323963165283203,-76.68383026123047,-62.94121170043945,4.349611282348633,-9.668148040771484,-4.660464286804199,2445.7447652816772
D4:22:CD:00:05:5D,157.40940856933594,-76.48213958740234,-105.65232849121094,12.773168563842773,-0.7025660276412964,-5.267604827880859,2445.7748758792877
D4:22:CD:00:05:6B,41.350399017333984,30.052248001098633,-95.595947265625,4.297615051269531,-2.464735507965088,-6.709098815917969,2445.7748758792877
D4:22:CD:00:49:AA,-158.28627014160156,-64.38377380371094,98.92243194580078,1.712005615234375,2.5998306274414062,-8.485811233520508,2445.7748758792877
D4:22:CD:00:05:6E,65.10609436035156,-56.843814849853516,132.95240783691406,-1.6683263778686523,-6.176468849182129,-11.123441696166992,2445.7748758792877
D4:22:CD:00:05:5E,-12.082113265991211,-61.828250885009766,-87.05116271972656,9.904962539672852,-34.28678894042969,4.224470138549805,2445.7748758792877
D4:22:CD:00:05:5D,159.09886169433594,-74.56924438476562,-104.48069763183594,4.55399227142334,-11.598173141479492,-13.900222778320312,2445.8048746585846
D4:22:CD:00:05:6B,39.16219711303711,38.54573440551758,-108.40621185302734,8.80363655090332,-7.486932754516602,-7.444038391113281,2445.8048746585846
D4:22:CD:00:49:AA,-154.8020477294922,-66.14148712158203,97.1633529663086,2.2544612884521484,2.9924979209899902,-8.797378540039062,2445.8048746585846
D4:22:CD:00:05:6E,61.244415283203125,-55.38506317138672,140.4613037109375,1.365478277206421,-9.674306869506836,-8.147449493408203,2445.8048746585846
D4:22:CD:00:05:5E,-18.38561248779297,-53.552406311035156,-94.39691162109375,-3.7288355827331543,-37.90357208251953,-12.813608169555664,2445.8048746585846
D4:22:CD:00:05:5D,163.77252197265625,-76.15418243408203,-106.64762878417969,4.563314437866211,3.8985514640808105,-8.46380615234375,2445.834513425827
D4:22:CD:00:05:6B,23.926301956176758,48.37208938598633,-128.07101440429688,2.2965240478515625,-6.428707122802734,-14.915546417236328,2445.834513425827
D4:22:CD:00:49:AA,-150.43878173828125,-70.6069107055664,93.67003631591797,-1.1197426319122314,-0.23296719789505005,-7.571077346801758,2445.834513425827
D4:22:CD:00:05:6E,55.89811706542969,-53.113616943359375,143.4160614013672,3.861748218536377,-6.917698860168457,-6.896448135375977,2445.834513425827
D4:22:CD:00:05:5E,-20.917970657348633,-55.319114685058594,-97.84086608886719,-11.228033065795898,-20.228866577148438,-12.492877960205078,2445.834513425827
D4:22:CD:00:05:5D,161.04550170898438,-77.68741607666016,-110.3089599609375,-5.287304878234863,3.1396379470825195,0.1625804901123047,2445.8645136356354
D4:22:CD:00:05:6B,-4.731485366821289,52.584434509277344,-160.84127807617188,-10.582563400268555,1.0448846817016602,-29.008880615234375,2445.8645136356354
D4:22:CD:00:49:AA,-142.87960815429688,-73.62503051757812,86.97169494628906,-0.3840978145599365,0.24572622776031494,-8.858579635620117,2445.8645136356354
D4:22:CD:00:05:6E,53.61267852783203,-50.224449157714844,143.19839477539062,4.52161979675293,-1.045367956161499,-7.13935661315918,2445.8645136356354
D4:22:CD:00:05:5E,-25.928394317626953,-64.15119934082031,-92.90634155273438,4.929679870605469,-31.10519790649414,-11.019582748413086,2445.8645136356354
D4:22:CD:00:05:5D,156.5499267578125,-78.89751434326172,-108.924560546875,-8.130977630615234,-4.487266540527344,1.6698188781738281,2445.894513607025
D4:22:CD:00:05:6B,-29.87871742248535,45.0793342590332,170.2167205810547,-17.38996124267578,4.669520378112793,-36.345458984375,2445.894513607025
D4:22:CD:00:49:AA,-130.2286834716797,-75.83265686035156,75.78307342529297,1.9760775566101074,2.5701985359191895,-7.612852096557617,2445.894513607025
D4:22:CD:00:05:6E,55.93965530395508,-47.10591125488281,142.72317504882812,4.954124450683594,-3.2896223068237305,-5.441797256469727,2445.894513607025
D4:22:CD:00:05:5E,-37.2968635559082,-71.51802062988281,-81.59491729736328,18.015174865722656,9.346502304077148,11.64529037475586,2445.894513607025
D4:22:CD:00:05:5D,149.37933349609375,-78.86801147460938,-96.82515716552734,-2.4961724281311035,-0.8580797910690308,3.4308576583862305,2445.924528360367
D4:22:CD:00:05:6B,-44.107818603515625,43.33440017700195,169.58444213867188,5.363542556762695,-6.62154483795166,0.6220788955688477,2445.924528360367
D4:22:CD:00:49:AA,-121.73294830322266,-77.67425537109375,65.51703643798828,0.4085078835487366,0.0010239128023386002,-4.112004280090332,2445.924528360367
D4:22:CD:00:05:6E,59.24620056152344,-45.60757827758789,142.71627807617188,3.914618492126465,-6.006662368774414,-3.5351948738098145,2445.924528360367
D4:22:CD:00:05:5E,-35.300315856933594,-76.28197479248047,-83.20478820800781,4.2522125244140625,-12.229291915893555,8.184093475341797,2445.924528360367
D4:22:CD:00:05:5D,138.77780151367188,-77.92029571533203,-83.76660919189453,1.4556248188018799,-5.2675981521606445,1.1742563247680664,2445.955036878586
D4:22:CD:00:05:6B,-47.308773040771484,50.714473724365234,178.85231018066406,-13.531818389892578,13.594667434692383,-4.048208236694336,2445.955036878586
D4:22:CD:00:49:AA,-123.94641876220703,-77.92837524414062,65.87454223632812,-7.170488357543945,-5.253872871398926,6.632991790771484,2445.955036878586
D4:22:CD:00:05:6E,62.31257629394531,-49.09019470214844,141.30438232421875,3.07669734954834,-4.217805862426758,-2.5081019401550293,2445.955036878586
D4:22:CD:00:05:5E,-24.862756729125977,-79.8248291015625,-92.26787567138672,-3.176879405975342,-1.2503166198730469,6.055785179138184,2445.955036878586
D4:22:CD:00:05:5D,128.93824768066406,-75.93504333496094,-74.8292236328125,0.32877862453460693,-3.7303147315979004,4.302272796630859,2446.015036582947
D4:22:CD:00:05:6B,-18.666810989379883,58.917903900146484,-161.72779846191406,-11.665834426879883,9.825784683227539,-20.65011978149414,2446.015036582947
D4:22:CD:00:49:AA,-123.6036148071289,-78.43498229980469,64.08304595947266,-1.1618444919586182,0.19281569123268127,5.2994384765625,2446.015036582947
D4:22:CD:00:05:6E,62.73647689819336,-57.137939453125,137.20628356933594,5.157942771911621,-5.781012535095215,14.024763107299805,2446.015036582947
D4:22:CD:00:05:5E,-21.129817962646484,-83.91694641113281,-98.62174987792969,3.4637722969055176,-6.656296730041504,-2.337672710418701,2446.015036582947
D4:22:CD:00:05:5D,121.95387268066406,-72.66372680664062,-69.04518127441406,0.6865209341049194,-6.767358779907227,4.403841972351074,2446.0445923805237
D4:22:CD:00:05:6B,16.69000816345215,60.55817794799805,-132.3573455810547,-5.96204948425293,-10.45716667175293,-11.852607727050781,2446.0445923805237
D4:22:CD:00:49:AA,-126.39434814453125,-78.75466918945312,65.38172149658203,5.2268781661987305,-3.1385979652404785,1.5807723999023438,2446.0445923805237
D4:22:CD:00:05:6E,53.71930694580078,-66.8625259399414,135.37420654296875,-4.74725341796875,2.6931991577148438,7.792539596557617,2446.0445923805237
D4:22:CD:00:05:5E,-10.829068183898926,-86.81451416015625,-110.50447845458984,-0.5607494115829468,-3.8836193084716797,-0.16471385955810547,2446.0445923805237
D4:22:CD:00:05:5D,120.89178466796875,-68.15834045410156,-70.5907211303711,5.8149614334106445,-6.561594009399414,6.563947677612305,2446.074592590332
D4:22:CD:00:05:6B,37.226722717285156,54.0745964050293,-108.48490142822266,-6.879424095153809,4.516976356506348,-0.1124429702758789,2446.074592590332
D4:22:CD:00:49:AA,-131.17579650878906,-78.61419677734375,68.71576690673828,4.453156471252441,-1.3190395832061768,1.3305530548095703,2446.074592590332
D4:22:CD:00:05:6E,51.28697204589844,-75.06816864013672,130.6786651611328,-5.331354141235352,0.8182179927825928,5.354305267333984,2446.074592590332
D4:22:CD:00:05:5E,29.37968635559082,-88.60900115966797,-151.96817016601562,-0.8264834880828857,-2.8597054481506348,0.9170303344726562,2446.074592590332
D4:22:CD:00:05:5D,125.29743194580078,-63.526126861572266,-78.95330047607422,15.397327423095703,6.11286735534668,7.17924690246582,2446.1051259040833
D4:22:CD:00:05:6B,48.91576385498047,44.96931457519531,-93.75202178955078,1.0736923217773438,2.1329946517944336,4.510851860046387,2446.1051259040833
D4:22:CD:00:49:AA,-134.2206573486328,-77.32499694824219,68.94015502929688,7.027547836303711,2.187739849090576,-1.8625726699829102,2446.1051259040833
D4:22:CD:00:05:6E,46.363712310791016,-78.57373046875,129.13961791992188,-6.896977424621582,3.271918296813965,-1.0583887100219727,2446.1051259040833
D4:22:CD:00:05:5E,95.91817474365234,-87.8089370727539,140.86001586914062,-0.92662513256073,-2.5554399490356445,0.20283031463623047,2446.1051259040833
D4:22:CD:00:05:5D,135.6478729248047,-57.10957717895508,-90.4803466796875,16.145477294921875,9.957319259643555,5.764808654785156,2446.1348168849945
D4:22:CD:00:05:6B,49.30746078491211,33.67841339111328,-82.99105834960938,12.321060180664062,1.0333986282348633,3.119654655456543,2446.1348168849945
D4:22:CD:00:49:AA,-137.73573303222656,-76.59097290039062,70.43510437011719,3.6102285385131836,3.11855411529541,-2.547057628631592,2446.1348168849945
D4:22:CD:00:05:6E,37.03874588012695,-79.1054916381836,135.1444854736328,-9.031919479370117,3.3689475059509277,-1.2189807891845703,2446.1348168849945
D4:22:CD:00:05:5E,105.10172271728516,-86.31390380859375,131.99203491210938,0.05074562877416611,-3.8163833618164062,0.006862640380859375,2446.1348168849945
D4:22:CD:00:05:5D,142.97459411621094,-49.65533447265625,-102.1561508178711,8.868799209594727,5.23121452331543,0.7006959915161133,2446.1648206710815
D4:22:CD:00:05:6B,30.998889923095703,20.55476188659668,-75.53162384033203,33.978668212890625,14.541973114013672,10.385122299194336,2446.1648206710815
D4:22:CD:00:49:AA,-143.35482788085938,-76.31198120117188,75.0795669555664,1.1746652126312256,1.6414909362792969,2.2160959243774414,2446.1648206710815
D4:22:CD:00:05:6E,33.476905822753906,-78.86166381835938,140.4362030029297,-8.420684814453125,2.0633955001831055,0.4280424118041992,2446.1648206710815
D4:22:CD:00:05:5E,104.8871078491211,-85.16543579101562,132.56198120117188,0.06440010666847229,-2.8716745376586914,-0.2671957015991211,2446.1648206710815
D4:22:CD:00:05:5D,147.6434783935547,-41.58451843261719,-111.92405700683594,2.695598602294922,3.218543529510498,-7.055318832397461,2446.194818019867
D4:22:CD:00:05:6B,-5.73210334777832,9.366474151611328,-71.89752197265625,-14.22726058959961,3.8412580490112305,-18.455249786376953,2446.194818019867
D4:22:CD:00:49:AA,-149.15313720703125,-75.18647003173828,79.46221160888672,3.363555908203125,1.348639965057373,2.7641096115112305,2446.194818019867
D4:22:CD:00:05:6E,38.48947525024414,-78.84793853759766,138.365234375,-4.433698654174805,-1.641920566558838,1.5628833770751953,2446.194818019867
D4:22:CD:00:05:5E,102.2388687133789,-84.08454132080078,136.40232849121094,0.2853291630744934,-0.5211316347122192,0.6894683837890625,2446.194818019867
D4:22:CD:00:05:5D,151.7544708251953,-33.92695999145508,-119.63362121582031,-2.6979846954345703,3.8818845748901367,-11.833087921142578,2446.2248311042786
D4:22:CD:00:05:6B,-17.07904052734375,-0.027576889842748642,-71.6432876586914,-14.52348518371582,-4.119818687438965,4.857222557067871,2446.2248311042786
D4:22:CD:00:49:AA,-152.8705291748047,-74.98789978027344,82.40959167480469,3.2998132705688477,2.3781423568725586,1.5854568481445312,2446.2248311042786
D4:22:CD:00:05:6E,50.12200164794922,-77.80841827392578,132.2860870361328,3.1067147254943848,-1.6085216999053955,3.367860794067383,2446.2248311042786
D4:22:CD:00:05:5E,104.7243423461914,-83.07176971435547,136.6575164794922,0.6658363342285156,-2.0170321464538574,-2.1505303382873535,2446.2248311042786
D4:22:CD:00:05:5D,157.3361053466797,-27.301679611206055,-125.65876007080078,-1.710160732269287,1.417332410812378,-14.417726516723633,2446.2553651332855
D4:22:CD:00:05:6B,-15.426098823547363,-9.324663162231445,-72.51431274414062,5.230983734130859,2.8606462478637695,-1.459345817565918,2446.2553651332855
D4:22:CD:00:49:AA,-155.1647186279297,-75.20549774169922,84.12896728515625,1.6535046100616455,2.5449576377868652,0.27215003967285156,2446.2553651332855
D4:22:CD:00:05:6E,58.064109802246094,-75.54119873046875,127.81072235107422,-1.24540114402771,-3.5133514404296875,-2.1046619415283203,2446.2553651332855
D4:22:CD:00:05:5E,121.6375732421875,-82.03636932373047,121.39434814453125,-0.27072077989578247,-1.1969187259674072,-0.5710277557373047,2446.2553651332855
D4:22:CD:00:05:5D,165.68252563476562,-22.85304069519043,-130.778564453125,-3.2021026611328125,1.7870442867279053,-10.814895629882812,2446.3146743774414
D4:22:CD:00:05:6B,-22.259084701538086,-19.75366973876953,-73.0654067993164,5.392745018005371,-1.249516487121582,-0.43301963806152344,2446.3146743774414
D4:22:CD:00:49:AA,-157.81396484375,-75.90634155273438,86.16240692138672,1.6179168224334717,1.656827449798584,-2.585226535797119,2446.3146743774414
D4:22:CD:00:05:6E,67.17975616455078,-73.15697479248047,120.73065948486328,-0.7627525329589844,-4.387171745300293,-3.0774378776550293,2446.3146743774414
D4:22:CD:00:05:5E,140.39170837402344,-80.04501342773438,104.02877807617188,6.609892845153809,-4.505232810974121,-2.610250949859619,2446.3146743774414
D4:22:CD:00:05:5D,172.34913635253906,-21.862735748291016,-135.98281860351562,-3.817148208618164,0.7249341011047363,-8.184938430786133,2446.3452677726746
D4:22:CD:00:05:6B,-36.11982345581055,-30.41628074645996,-72.79019165039062,-0.7290077209472656,-3.0183353424072266,4.172840118408203,2446.3452677726746
D4:22:CD:00:49:AA,-161.9762420654297,-76.75963592529297,89.8649673461914,2.050485610961914,1.5083868503570557,-4.209012985229492,2446.3452677726746
D4:22:CD:00:05:6E,73.2402572631836,-70.28196716308594,114.48564910888672,0.24355986714363098,-3.4472832679748535,-3.3933563232421875,2446.3452677726746
D4:22:CD:00:05:5E,153.23081970214844,-77.51899719238281,91.75994873046875,-0.4620158076286316,-1.7451550960540771,0.9391536712646484,2446.3452677726746
D4:22:CD:00:05:5D,173.32107543945312,-24.678232192993164,-141.85418701171875,-11.070457458496094,2.5266122817993164,-8.664012908935547,2446.37521648407
D4:22:CD:00:05:6B,-40.62405014038086,-42.53354263305664,-78.69969940185547,0.6223111152648926,-6.416913032531738,15.485681533813477,2446.37521648407
D4:22:CD:00:49:AA,-166.49777221679688,-77.11376190185547,93.68065643310547,2.248131275177002,1.059232473373413,-4.2415618896484375,2446.37521648407
D4:22:CD:00:05:6E,75.89661407470703,-67.26614379882812,110.7615966796875,-3.835143566131592,-1.7343783378601074,-5.870760917663574,2446.37521648407
D4:22:CD:00:05:5E,162.2275390625,-74.41278839111328,82.90364074707031,0.9255850315093994,-2.803400993347168,-0.8314580917358398,2446.37521648407
D4:22:CD:00:05:5D,166.9549102783203,-30.23756217956543,-147.06324768066406,-12.730525970458984,-0.8346443176269531,5.065896034240723,2446.405215024948
D4:22:CD:00:05:6B,-21.94566535949707,-55.36676788330078,-98.68560791015625,-2.266887664794922,-17.175418853759766,25.350791931152344,2446.405215024948
D4:22:CD:00:49:AA,-169.25082397460938,-77.8321762084961,95.88671875,0.2899159789085388,2.725444793701172,-2.517343044281006,2446.405215024948
D4:22:CD:00:05:6E,75.06134796142578,-64.88619995117188,106.68037414550781,-6.181257247924805,-5.410602569580078,-1.9463424682617188,2446.405215024948
D4:22:CD:00:05:5E,165.47669982910156,-71.75203704833984,79.25426483154297,0.7236089706420898,-3.080749034881592,0.39685726165771484,2446.405215024948
D4:22:CD:00:05:5D,164.71945190429688,-30.787982940673828,-146.19322204589844,-20.89257049560547,-7.211672782897949,26.02743148803711,2446.434782266617
D4:22:CD:00:05:6B,-5.015223503112793,-59.39786148071289,-117.1240005493164,0.18567991256713867,-4.520554542541504,27.176639556884766,2446.434782266617
D4:22:CD:00:49:AA,-169.72967529296875,-79.02345275878906,96.05325317382812,0.4333171844482422,0.6231787204742432,-0.6751832962036133,2446.434782266617
D4:22:CD:00:05:6E,77.74834442138672,-58.953304290771484,100.82186126708984,1.7172956466674805,-4.404333114624023,8.255382537841797,2446.434782266617
D4:22:CD:00:05:5E,165.04409790039062,-70.13866424560547,80.22447204589844,-1.731797218322754,-2.4102635383605957,1.829427719116211,2446.434782266617
D4:22:CD:00:05:5D,168.5391387939453,-26.117143630981445,-138.78765869140625,-16.9130859375,1.375619888305664,24.190181732177734,2446.4647822380066
D4:22:CD:00:05:6B,-11.582797050476074,-52.92769241333008,-108.87078857421875,17.37512969970703,-22.148910522460938,-5.589229583740234,2446.4647822380066
D4:22:CD:00:49:AA,-168.1242218017578,-78.60800170898438,93.76849365234375,1.4237749576568604,-3.8161368370056152,-2.242283344268799,2446.4647822380066
D4:22:CD:00:05:6E,79.0549087524414,-47.97163391113281,99.78296661376953,1.6107828617095947,-14.059808731079102,18.5948486328125,2446.4647822380066
D4:22:CD:00:05:5E,162.12257385253906,-69.65416717529297,84.05712127685547,-1.3159077167510986,-3.7943382263183594,1.1839027404785156,2446.4647822380066
D4:22:CD:00:05:5D,166.3624267578125,-17.58537483215332,-131.7511444091797,-16.392498016357422,-12.068534851074219,19.839595794677734,2446.494781732559
D4:22:CD:00:05:6B,-30.626773834228516,-39.84820556640625,-95.66304016113281,-12.745882034301758,-26.34375762939453,12.730539321899414,2446.494781732559
D4:22:CD:00:49:AA,-172.84913635253906,-77.88978576660156,97.41978454589844,1.7794294357299805,1.854156494140625,8.899269104003906,2446.494781732559
D4:22:CD:00:05:6E,75.72906494140625,-34.89536666870117,100.5218505859375,8.913764953613281,-12.322637557983398,22.736202239990234,2446.494781732559
D4:22:CD:00:05:5E,156.92137145996094,-70.82100677490234,89.88188934326172,-0.2471807897090912,-4.293709754943848,2.050210952758789,2446.494781732559
D4:22:CD:00:05:5D,162.26321411132812,-7.412083148956299,-128.02850341796875,-7.094391822814941,-13.078815460205078,7.130186080932617,2446.524798631668
D4:22:CD:00:05:6B,-36.464237213134766,-25.551816940307617,-92.12369537353516,-0.9668540954589844,-19.403076171875,3.4682674407958984,2446.524798631668
D4:22:CD:00:49:AA,-177.9215850830078,-77.7452163696289,100.96991729736328,-2.6096181869506836,0.5876777172088623,6.655982971191406,2446.524798631668
D4:22:CD:00:05:6E,66.50718688964844,-18.398496627807617,101.93618774414062,9.716455459594727,-1.7653334140777588,23.57416534423828,2446.524798631668
D4:22:CD:00:05:5E,148.39093017578125,-73.69551849365234,98.2372055053711,0.5776001214981079,-4.072661399841309,3.8729000091552734,2446.524798631668
D4:22:CD:00:05:5D,160.3865509033203,0.7594926953315735,-127.59569549560547,-4.618349075317383,-5.816135406494141,-5.099835395812988,2446.5553212165833
D4:22:CD:00:05:6B,-38.105804443359375,-15.41458797454834,-94.53819274902344,-2.8590216636657715,-11.843648910522461,-4.165342330932617,2446.5553212165833
D4:22:CD:00:49:AA,178.02293395996094,-77.81346130371094,106.05699157714844,0.21128231287002563,2.6300082206726074,8.917549133300781,2446.5553212165833
D4:22:CD:00:05:6E,51.01437759399414,-0.024981416761875153,102.48269653320312,5.151246070861816,9.162899017333984,12.576704025268555,2446.5553212165833
D4:22:CD:00:05:5E,131.20181274414062,-77.64795684814453,113.90921020507812,2.927154064178467,-4.203339576721191,5.273434638977051,2446.5553212165833
D4:22:CD:00:05:5D,160.63978576660156,4.3555803298950195,-128.44178771972656,-2.713005542755127,0.1019911915063858,-10.443840026855469,2446.614324092865
D4:22:CD:00:05:6B,-43.76055908203125,-11.2371826171875,-96.97021484375,-7.943533897399902,-0.4277615547180176,-8.181018829345703,2446.614324092865
D4:22:CD:00:49:AA,173.95570373535156,-77.10871124267578,110.92073822021484,5.904107093811035,1.8261280059814453,9.777608871459961,2446.614324092865
D4:22:CD:00:05:6E,35.93918991088867,15.644695281982422,101.69229888916016,2.0735392570495605,7.563625335693359,4.134235382080078,2446.614324092865
D4:22:CD:00:05:5E,83.99823760986328,-80.96882629394531,157.43960571289062,4.280505180358887,-1.581874132156372,5.805660247802734,2446.614324092865
D4:22:CD:00:05:5D,161.3574981689453,2.3944287300109863,-129.32421875,-2.3084897994995117,2.1206722259521484,-16.223159790039062,2446.644871711731
D4:22:CD:00:05:6B,-48.652793884277344,-14.275872230529785,-99.21568298339844,-5.1283063888549805,3.644932746887207,-1.4370689392089844,2446.644871711731
D4:22:CD:00:49:AA,169.8469696044922,-76.32367706298828,114.97369384765625,5.006050109863281,1.8920443058013916,6.05171012878418,2446.644871711731
D4:22:CD:00:05:6E,26.07310676574707,26.398128509521484,100.08269500732422,-4.42131233215332,3.2260289192199707,2.399942398071289,2446.644871711731
D4:22:CD:00:05:5E,54.1391487121582,-78.18355560302734,-174.26776123046875,-0.4855106472969055,-4.977456092834473,-7.279707908630371,2446.644871711731
D4:22:CD:00:05:5D,161.27777099609375,-5.666248321533203,-129.57672119140625,-4.317464828491211,-0.5357315540313721,-21.71319580078125,2446.6748785972595
D4:22:CD:00:05:6B,-50.27069854736328,-20.728891372680664,-101.2243423461914,-3.119737148284912,2.872316837310791,-2.748323917388916,2446.6748785972595
D4:22:CD:00:49:AA,165.72250366210938,-75.685791015625,118.38449096679688,3.235138416290283,1.7482619285583496,1.9716682434082031,2446.6748785972595
D4:22:CD:00:05:6E,24.275842666625977,33.455711364746094,97.24263000488281,-8.13975715637207,0.6110115051269531,-2.4497179985046387,2446.6748785972595
D4:22:CD:00:05:5E,54.994991302490234,-76.06023406982422,-169.62860107421875,-9.75672721862793,-16.93274688720703,-10.957906723022461,2446.6748785972595
D4:22:CD:00:05:5D,160.2810516357422,-18.98322868347168,-129.10585021972656,-6.901196479797363,-7.478301048278809,-20.63825225830078,2446.705009460449
D4:22:CD:00:05:6B,-52.034828186035156,-27.697063446044922,-103.30242919921875,-1.5158133506774902,1.1924724578857422,-3.5234251022338867,2446.705009460449
D4:22:CD:00:49:AA,163.3748016357422,-74.58058166503906,119.53766632080078,2.1818885803222656,0.20461207628250122,-5.079014778137207,2446.705009460449
D4:22:CD:00:05:6E,29.119972229003906,38.86726760864258,95.90373229980469,-0.7661714553833008,-2.2275867462158203,-9.64521598815918,2446.705009460449
D4:22:CD:00:05:5E,70.78030395507812,-77.73151397705078,175.87750244140625,1.235649824142456,-4.62716007232666,-9.15007209777832,2446.705009460449
D4:22:CD:00:05:5D,160.31234741210938,-35.97372817993164,-128.15992736816406,-7.739049911499023,-10.654685974121094,-12.934427261352539,2446.734550714493
D4:22:CD:00:05:6B,-52.40200424194336,-33.24462890625,-106.80916595458984,-1.0773756504058838,2.6450514793395996,-4.841314315795898,2446.734550714493
D4:22:CD:00:49:AA,161.6733856201172,-72.92012023925781,119.73321533203125,0.9384948015213013,0.9579432010650635,-10.516700744628906,2446.734550714493
D4:22:CD:00:05:6E,36.825462341308594,42.63877487182617,98.46531677246094,-5.1402997970581055,-3.5408053398132324,-12.079809188842773,2446.734550714493
D4:22:CD:00:05:5E,83.13044738769531,-79.07252502441406,158.78326416015625,0.11796566843986511,11.464441299438477,-4.182750701904297,2446.734550714493
D4:22:CD:00:05:5D,159.73135375976562,-56.251434326171875,-127.76112365722656,-6.422328948974609,-5.962637901306152,-0.8665752410888672,2446.764830827713
D4:22:CD:00:05:6B,-54.2452278137207,-37.09981918334961,-110.01789093017578,1.3665475845336914,2.424147129058838,-5.912153244018555,2446.764830827713
D4:22:CD:00:49:AA,160.41404724121094,-70.90507507324219,119.23159790039062,-0.6717534065246582,1.4460327625274658,-10.477214813232422,2446.764830827713
D4:22:CD:00:05:6E,39.43674087524414,43.85643005371094,105.50816345214844,-6.515841484069824,-2.6278905868530273,-11.581684112548828,2446.764830827713
D4:22:CD:00:05:5E,79.69014739990234,-78.35749053955078,163.84530639648438,-7.8896989822387695,1.4065322875976562,-1.234858512878418,2446.764830827713
D4:22:CD:00:05:5D,158.0816192626953,-79.19033813476562,-130.32081604003906,-1.6600341796875,2.927450180053711,14.269266128540039,2446.7948474884033
D4:22:CD:00:05:6B,-56.12882995605469,-39.8229866027832,-113.05514526367188,3.0923538208007812,2.527346611022949,-6.140883445739746,2446.7948474884033
D4:22:CD:00:49:AA,158.79164123535156,-69.84680938720703,118.97003936767578,-2.472540855407715,-0.5751389265060425,-7.571576118469238,2446.7948474884033
D4:22:CD:00:05:6E,37.007720947265625,42.154693603515625,117.0911636352539,-5.8527021408081055,-2.222153663635254,-13.520771026611328,2446.7948474884033
D4:22:CD:00:05:5E,88.94102478027344,-79.03060913085938,154.22450256347656,7.249446868896484,1.1294896602630615,-2.4542274475097656,2446.7948474884033
D4:22:CD:00:05:5D,-35.62295913696289,-77.65614318847656,57.11994171142578,12.740608215332031,12.356191635131836,25.101394653320312,2446.8248448371887
D4:22:CD:00:05:6B,-55.88145065307617,-42.06996536254883,-116.29866790771484,2.9868388175964355,2.2408928871154785,-6.672163009643555,2446.8248448371887
D4:22:CD:00:49:AA,156.1580810546875,-70.16242218017578,120.18733978271484,-0.44263923168182373,1.6941633224487305,-7.817586898803711,2446.8248448371887
D4:22:CD:00:05:6E,32.31502914428711,37.861507415771484,132.18223571777344,-10.753324508666992,1.922351360321045,-17.05739974975586,2446.8248448371887
D4:22:CD:00:05:5E,112.19585418701172,-79.90364837646484,125.99153900146484,1.7181696891784668,0.15073466300964355,0.6971855163574219,2446.8248448371887
D4:22:CD:00:05:5D,-28.784347534179688,-61.25727462768555,50.30417251586914,18.29620361328125,32.58985137939453,-1.8995985984802246,2446.8543803691864
D4:22:CD:00:05:6B,-53.6859245300293,-44.60653305053711,-119.54100036621094,2.028292655944824,1.6076395511627197,-4.888970375061035,2446.8543803691864
D4:22:CD:00:49:AA,152.14109802246094,-71.00914001464844,122.44416046142578,1.3388874530792236,1.8780715465545654,-7.216669082641602,2446.8543803691864
D4:22:CD:00:05:6E,23.877857208251953,34.42258834838867,146.6258087158203,-22.561141967773438,5.264544486999512,-20.516204833984375,2446.8543803691864
D4:22:CD:00:05:5E,132.09083557128906,-79.19910430908203,103.54729461669922,6.195206642150879,-4.879580497741699,5.73918342590332,2446.8543803691864
D4:22:CD:00:05:5D,-23.580488204956055,-60.81638717651367,44.224430084228516,17.952713012695312,7.48514461517334,-7.144845962524414,2446.9153802394867
D4:22:CD:00:05:6B,-49.3656005859375,-48.18735885620117,-123.08674621582031,1.4047176837921143,0.7261561155319214,-1.5774831771850586,2446.9153802394867
D4:22:CD:00:49:AA,154.14962768554688,-70.62493896484375,120.63945007324219,-2.3802428245544434,-6.023524284362793,-2.7249345779418945,2446.9153802394867
D4:22:CD:00:05:6E,16.75857925415039,36.234703063964844,149.83267211914062,12.385122299194336,5.0709123611450195,-11.608404159545898,2446.9153802394867
D4:22:CD:00:05:5E,142.9846954345703,-78.94192504882812,93.05130767822266,-6.078638076782227,0.24106094241142273,4.972380638122559,2446.9153802394867
D4:22:CD:00:05:5D,-29.6805362701416,-64.20683288574219,44.86922073364258,14.269550323486328,5.058162689208984,-8.733854293823242,2446.9443504810333
D4:22:CD:00:05:6B,-42.92689514160156,-52.75602340698242,-127.41132354736328,0.21636977791786194,-1.2788286209106445,0.43538951873779297,2446.9443504810333
D4:22:CD:00:49:AA,165.59593200683594,-68.6229248046875,113.90038299560547,2.41972017288208,-3.2319350242614746,7.646326065063477,2446.9443504810333
D4:22:CD:00:05:6E,23.67844581604004,40.94241714477539,137.69915771484375,-7.592620849609375,-4.352762222290039,-5.602068901062012,2446.9443504810333
D4:22:CD:00:05:5E,150.88267517089844,-79.21867370605469,84.54207611083984,1.681044340133667,-1.2953531742095947,6.241888046264648,2446.9443504810333
D4:22:CD:00:05:5D,-30.671354293823242,-71.9283676147461,45.43313980102539,11.261747360229492,-1.4094581604003906,8.059659957885742,2446.9746029376984
D4:22:CD:00:05:6B,-38.56379318237305,-58.674903869628906,-130.64114379882812,-1.2488398551940918,-5.038995742797852,4.668574333190918,2446.9746029376984
D4:22:CD:00:49:AA,169.2108154296875,-70.41825866699219,112.53767395019531,5.289440155029297,7.416913986206055,7.902278900146484,2446.9746029376984
D4:22:CD:00:05:6E,19.098495483398438,44.68328094482422,118.12861633300781,-13.996759414672852,5.654284477233887,-9.659255981445312,2446.9746029376984
D4:22:CD:00:05:5E,157.64710998535156,-80.63846588134766,79.3906021118164,-0.7158657312393188,-0.875579833984375,4.811302185058594,2446.9746029376984
D4:22:CD:00:05:5D,-36.645973205566406,-80.46170806884766,58.18410873413086,11.168272018432617,-0.3129670023918152,1.9693222045898438,2447.004605293274
D4:22:CD:00:05:6B,-41.14898681640625,-66.23885345458984,-129.4811248779297,0.22394323348999023,-4.790683746337891,10.479955673217773,2447.004605293274
D4:22:CD:00:49:AA,169.85488891601562,-71.01915740966797,110.05706787109375,5.048919677734375,3.0997142791748047,3.890562057495117,2447.004605293274
D4:22:CD:00:05:6E,8.654295921325684,45.3837776184082,92.39459228515625,-9.766134262084961,15.908573150634766,-9.42048454284668,2447.004605293274
D4:22:CD:00:05:5E,166.47366333007812,-82.65422821044922,73.15746307373047,0.5531719923019409,0.44374942779541016,4.085918426513672,2447.004605293274
D4:22:CD:00:05:5D,-98.57648468017578,-86.61759948730469,131.79489135742188,-6.480064392089844,5.515390396118164,7.6682586669921875,2447.035158395767
D4:22:CD:00:05:6B,-42.01724624633789,-73.29216766357422,-126.71997833251953,2.742030620574951,-1.806239366531372,14.042278289794922,2447.035158395767
D4:22:CD:00:49:AA,170.0419158935547,-71.09124755859375,109.06951904296875,1.6516025066375732,0.5787440538406372,7.440649032592773,2447.035158395767
D4:22:CD:00:05:6E,-1.7178782224655151,44.43415451049805,70.32183074951172,-3.448662281036377,7.170246124267578,-2.1843032836914062,2447.035158395767
D4:22:CD:00:05:5E,-173.48171997070312,-84.96853637695312,57.72926330566406,8.048727035522461,4.171806335449219,5.9539690017700195,2447.035158395767
D4:22:CD:00:05:5D,-151.30123901367188,-83.86080932617188,-174.75868225097656,-16.166553497314453,-11.813142776489258,7.404119491577148,2447.065158843994
D4:22:CD:00:05:6B,-41.91423797607422,-76.30256652832031,-124.30437469482422,3.0548715591430664,0.552615761756897,9.922847747802734,2447.065158843994
D4:22:CD:00:49:AA,170.53338623046875,-71.34638214111328,109.98040771484375,1.4187431335449219,-0.21406817436218262,1.475193977355957,2447.065158843994
D4:22:CD:00:05:6E,-9.259334564208984,42.28368377685547,53.13323974609375,8.489112854003906,-7.240513801574707,2.459148406982422,2447.065158843994
D4:22:CD:00:05:5E,-156.85580444335938,-82.19017791748047,54.10025405883789,4.319557189941406,-31.89160919189453,6.588090896606445,2447.065158843994
D4:22:CD:00:05:5D,-143.24227905273438,-82.71573638916016,178.0310821533203,-11.190940856933594,-7.969869613647461,-0.2580881118774414,2447.0951750278473
D4:22:CD:00:05:6B,-46.552799224853516,-76.2948226928711,-119.58060455322266,1.799377679824829,0.5956981182098389,3.1730241775512695,2447.0951750278473
D4:22:CD:00:49:AA,172.3784637451172,-70.9939193725586,110.49047088623047,-0.14328521490097046,-1.8175406455993652,-1.3844108581542969,2447.0951750278473
D4:22:CD:00:05:6E,8.995676040649414,40.20857238769531,45.67488479614258,28.356826782226562,-38.64227294921875,-0.9625139236450195,2447.0951750278473
D4:22:CD:00:05:5E,-162.76339721679688,-70.8665771484375,65.57577514648438,3.1038198471069336,-23.711666107177734,13.97867202758789,2447.0951750278473
D4:22:CD:00:05:5D,-141.5206756591797,-81.90956115722656,-177.65399169921875,-0.24330881237983704,1.5560433864593506,-1.6510114669799805,2447.1251990795135
D4:22:CD:00:05:6B,-46.29449462890625,-75.0113754272461,-113.95306396484375,-1.7538304328918457,-0.4258314371109009,-4.028648376464844,2447.1251990795135
D4:22:CD:00:49:AA,174.19212341308594,-70.14997100830078,111.92404174804688,-3.1567506790161133,-5.747426986694336,-3.6750898361206055,2447.1251990795135
D4:22:CD:00:05:6E,53.153282165527344,38.650054931640625,49.506160736083984,-11.902816772460938,-10.535028457641602,-24.614242553710938,2447.1251990795135
D4:22:CD:00:05:5E,-165.99691772460938,-57.497596740722656,71.34718322753906,6.951068878173828,-7.361109733581543,-3.8112640380859375,2447.1251990795135
D4:22:CD:00:05:5D,-142.65695190429688,-80.0792465209961,-175.39695739746094,-3.1860270500183105,-0.2951117157936096,0.037384033203125,2447.1547112464905
D4:22:CD:00:05:6B,-48.22874450683594,-71.94944763183594,-106.27313995361328,-2.607196807861328,-2.284339427947998,-6.950990676879883,2447.1547112464905
D4:22:CD:00:49:AA,176.5683135986328,-69.12019348144531,115.2064437866211,-5.036044120788574,-3.665523052215576,-8.774864196777344,2447.1547112464905
D4:22:CD:00:05:6E,88.84043884277344,35.51873779296875,57.38974380493164,-10.202995300292969,8.185970306396484,-0.8484325408935547,2447.1547112464905
D4:22:CD:00:05:5E,-170.03807067871094,-45.634647369384766,76.20487976074219,1.211670160293579,-3.8753418922424316,-20.354755401611328,2447.1547112464905
D4:22:CD:00:05:5D,-151.3252716064453,-77.6032485961914,-167.76060485839844,0.924126148223877,3.4028334617614746,-0.2536334991455078,2447.2147693634033
D4:22:CD:00:05:6B,-51.32958984375,-68.26290130615234,-101.22322082519531,-4.296232223510742,-1.8382229804992676,-6.737519264221191,2447.2147693634033
D4:22:CD:00:49:AA,-179.52285766601562,-68.03648376464844,116.75418853759766,-3.621849536895752,3.295520782470703,-7.5625200271606445,2447.2147693634033
D4:22:CD:00:05:6E,109.48844909667969,29.589427947998047,64.64176940917969,-7.700615882873535,-1.1447885036468506,2.891238212585449,2447.2147693634033
D4:22:CD:00:05:5E,-173.79666137695312,-36.271339416503906,80.16193389892578,-7.271419525146484,-6.242059707641602,-25.819244384765625,2447.2147693634033
D4:22:CD:00:05:5D,-157.61492919921875,-75.28639221191406,-161.21713256835938,0.028176937252283096,0.7378371953964233,0.6736879348754883,2447.244322538376
D4:22:CD:00:05:6B,-53.474754333496094,-65.58678436279297,-101.07725524902344,-6.026548385620117,-0.7721438407897949,-7.481804847717285,2447.244322538376
D4:22:CD:00:49:AA,-176.12716674804688,-66.18706512451172,113.41168212890625,4.9582109451293945,5.248848915100098,1.279719352722168,2447.244322538376
D4:22:CD:00:05:6E,122.67491149902344,21.613567352294922,66.51727294921875,-13.465431213378906,-1.2021112442016602,4.259267807006836,2447.244322538376
D4:22:CD:00:05:5E,-176.80050659179688,-30.025724411010742,83.65941619873047,-4.330443382263184,-3.0229177474975586,-19.280811309814453,2447.244322538376
D4:22:CD:00:05:5D,-160.03477478027344,-73.35343933105469,-158.4738006591797,-0.2508423328399658,1.5187242031097412,0.8944482803344727,2447.2753159999847
D4:22:CD:00:05:6B,-54.712223052978516,-64.48357391357422,-103.73509979248047,-8.046646118164062,2.21920108795166,-1.4600954055786133,2447.2753159999847
D4:22:CD:00:49:AA,-175.20840454101562,-64.85780334472656,111.78551483154297,0.5830522775650024,0.5167802572250366,7.171760559082031,2447.2753159999847
D4:22:CD:00:05:6E,134.1556854248047,12.070003509521484,63.28498840332031,-4.716652870178223,1.9862887859344482,8.127569198608398,2447.2753159999847
D4:22:CD:00:05:5E,179.36524963378906,-27.95520782470703,87.48430633544922,-3.858809471130371,-0.3001129627227783,-13.53483772277832,2447.2753159999847
D4:22:CD:00:05:5D,-159.41612243652344,-72.02285766601562,-159.16131591796875,-0.7098491191864014,2.721978187561035,1.0079679489135742,2447.3056280612946
D4:22:CD:00:05:6B,-51.398231506347656,-63.824039459228516,-108.36602783203125,-7.131834030151367,0.7311768531799316,3.399812698364258,2447.3056280612946
D4:22:CD:00:49:AA,-177.96800231933594,-64.87765502929688,113.459716796875,-3.804919719696045,3.0831503868103027,3.015427589416504,2447.3056280612946
D4:22:CD:00:05:6E,141.36378479003906,1.493799090385437,57.7892951965332,5.490541458129883,-1.3217501640319824,8.026617050170898,2447.3056280612946
D4:22:CD:00:05:5E,176.52037048339844,-30.89642333984375,91.946044921875,-0.610729455947876,2.7137770652770996,-4.718997955322266,2447.3056280612946
D4:22:CD:00:05:5D,-157.9445343017578,-71.001220703125,-161.1923828125,-0.499968945980072,0.7562716007232666,0.46897315979003906,2447.3351488113403
D4:22:CD:00:05:6B,-47.09868621826172,-62.44906234741211,-113.35003662109375,-5.4370012283325195,-2.6650562286376953,3.373826026916504,2447.3351488113403
D4:22:CD:00:49:AA,178.62718200683594,-65.05955505371094,115.26563262939453,-1.0694589614868164,1.3604538440704346,1.816361427307129,2447.3351488113403
D4:22:CD:00:05:6E,141.40414428710938,-10.777776718139648,51.22626876831055,5.492836952209473,-0.5336031913757324,5.561501502990723,2447.3351488113403
D4:22:CD:00:05:5E,173.820556640625,-38.993255615234375,97.67733764648438,-2.1383047103881836,11.34080696105957,-1.314436912536621,2447.3351488113403
D4:22:CD:00:05:5D,-157.3429412841797,-69.97116088867188,-161.75743103027344,0.32708972692489624,-1.5140643119812012,0.1927356719970703,2447.3646874427795
D4:22:CD:00:05:6B,-47.716766357421875,-60.15085983276367,-116.9522933959961,-3.444582462310791,-2.2804012298583984,-0.3851661682128906,2447.3646874427795
D4:22:CD:00:49:AA,173.74017333984375,-65.61640167236328,118.6887435913086,-1.4740815162658691,0.9915859699249268,2.484238624572754,2447.3646874427795
D4:22:CD:00:05:6E,139.41258239746094,-24.637502670288086,43.43312454223633,3.9429516792297363,2.8356380462646484,2.144808769226074,2447.3646874427795
D4:22:CD:00:05:5E,173.6035919189453,-50.06999206542969,104.76979064941406,-9.9835205078125,-13.69412612915039,26.312042236328125,2447.3646874427795
D4:22:CD:00:05:5D,-159.9096221923828,-68.6577377319336,-158.47463989257812,1.6830437183380127,-3.6856417655944824,-0.1972827911376953,2447.3946871757507
D4:22:CD:00:05:6B,-51.05971145629883,-57.172916412353516,-120.43840789794922,-0.9416356086730957,0.8666538000106812,-2.191582679748535,2447.3946871757507
D4:22:CD:00:49:AA,167.7920379638672,-66.5658950805664,122.74785614013672,-1.5920119285583496,-0.06413033604621887,-2.5280537605285645,2447.3946871757507
D4:22:CD:00:05:6E,138.24591064453125,-40.20731735229492,34.098899841308594,12.385137557983398,0.34604722261428833,5.293695449829102,2447.3946871757507
D4:22:CD:00:05:5E,169.85748291015625,-51.50152587890625,105.08844757080078,5.939111709594727,25.143611907958984,-13.88442611694336,2447.3946871757507
D4:22:CD:00:05:5D,-165.52857971191406,-66.78568267822266,-151.48875427246094,-0.3985803723335266,-2.7506327629089355,-0.3067350387573242,2447.424700021744
D4:22:CD:00:05:6B,-52.01435852050781,-53.71427917480469,-124.74418640136719,1.3301324844360352,1.753392219543457,-4.523215293884277,2447.424700021744
D4:22:CD:00:49:AA,162.62124633789062,-67.69522094726562,127.04875946044922,-0.9002249240875244,-1.6303448677062988,-3.5848684310913086,2447.424700021744
D4:22:CD:00:05:6E,133.57615661621094,-56.4223747253418,23.646814346313477,15.139644622802734,-7.961948394775391,18.14785385131836,2447.424700021744
D4:22:CD:00:05:5E,163.57508850097656,-53.31571578979492,106.19146728515625,-1.4075002670288086,10.590127944946289,8.501468658447266,2447.424700021744
D4:22:CD:00:05:5D,-171.90382385253906,-63.51114273071289,-142.06114196777344,-5.353196144104004,2.098456382751465,1.2520856857299805,2447.455240011215
D4:22:CD:00:05:6B,-52.97566223144531,-49.600189208984375,-129.39743041992188,6.102270126342773,-2.7847418785095215,-6.251684188842773,2447.455240011215
D4:22:CD:00:49:AA,157.7725830078125,-69.46133422851562,132.83062744140625,-1.2083051204681396,-1.2734527587890625,-4.638828277587891,2447.455240011215
D4:22:CD:00:05:6E,120.86280822753906,-65.8470458984375,21.263946533203125,9.476375579833984,3.3082876205444336,-0.9972600936889648,2447.455240011215
D4:22:CD:00:05:5E,157.90756225585938,-55.77149200439453,105.91432189941406,-0.5146416425704956,8.307365417480469,11.269632339477539,2447.455240011215
