Device,EulerX,EulerY,EulerZ,FreeAccX,FreeAccY,FreeAccZ,Timestamp
D4:22:CD:00:05:5D,179.52740478515625,-57.35910415649414,-54.883934020996094,-2.04335880279541,0.13877269625663757,1.7331361770629883,1581.4688565731049
D4:22:CD:00:05:6B,-60.903438568115234,-28.03163719177246,-43.14577102661133,-4.900197982788086,11.749040603637695,22.043140411376953,1581.4688565731049
D4:22:CD:00:49:AA,145.60403442382812,-70.70367431640625,139.59512329101562,0.30918455123901367,0.8732273578643799,7.144477844238281,1581.4688565731049
D4:22:CD:00:05:6E,89.22040557861328,-33.92506408691406,33.89359664916992,10.386533737182617,11.01089859008789,3.3632049560546875,1581.4688565731049
D4:22:CD:00:05:5E,-143.50588989257812,-15.085468292236328,-62.84196090698242,0.2929718494415283,-14.784303665161133,3.1296844482421875,1581.4688565731049
D4:22:CD:00:05:6B,-45.96492385864258,-12.030752182006836,-32.84486389160156,-4.836385726928711,-0.12615180015563965,14.881879806518555,1581.4772837162018
D4:22:CD:00:49:AA,147.52783203125,-71.69784545898438,137.8072052001953,-3.6510820388793945,-0.4285293221473694,5.287909507751465,1581.4772837162018
D4:22:CD:00:05:6E,89.57488250732422,-31.127901077270508,33.74156188964844,10.297258377075195,9.963254928588867,2.353388786315918,1581.4772837162018
D4:22:CD:00:05:5E,-139.05300903320312,-13.030747413635254,-63.90322494506836,5.852301597595215,-8.89202880859375,-1.3107709884643555,1581.4772837162018
D4:22:CD:00:05:5D,154.08192443847656,-83.43033599853516,-111.99617004394531,0.5343989133834839,-2.530259132385254,-0.8060522079467773,1581.4812800884247
D4:22:CD:00:05:6E,91.70513916015625,-29.717023849487305,34.985347747802734,7.3631486892700195,7.693671226501465,1.942826271057129,1581.4812800884247
D4:22:CD:00:05:5E,-138.27061462402344,-12.42125415802002,-66.3058853149414,2.591434955596924,-4.408136367797852,-4.185286521911621,1581.4812800884247
D4:22:CD:00:05:5D,171.574462890625,-84.44342803955078,-130.91566467285156,2.013119697570801,-3.661843776702881,-0.9628019332885742,1581.484279870987
D4:22:CD:00:05:6B,-77.68526458740234,-40.23423385620117,-57.72685241699219,-0.6025168895721436,-0.7381308078765869,-2.443971633911133,1581.484279870987
D4:22:CD:00:05:6E,93.96633911132812,-30.843252182006836,38.548404693603516,4.830438613891602,6.228910446166992,0.2473592758178711,1581.484279870987
D4:22:CD:00:05:5E,-140.6772918701172,-13.724187850952148,-70.07803344726562,3.4724483489990234,-1.686537504196167,-5.872870445251465,1581.484279870987
D4:22:CD:00:05:5D,-164.98863220214844,-70.43318176269531,-148.0105438232422,4.305291175842285,4.001270294189453,0.9102964401245117,1581.4872736930847
D4:22:CD:00:05:6B,-78.0505599975586,-15.028946876525879,-49.294471740722656,-0.35551130771636963,-0.5811609029769897,10.366476058959961,1581.4872736930847
D4:22:CD:00:49:AA,-152.07022094726562,-82.35835266113281,61.94929885864258,5.051117897033691,3.3758835792541504,3.6662473678588867,1581.4872736930847
D4:22:CD:00:05:6E,17.254037857055664,-60.94322967529297,26.04498863220215,5.591047286987305,-3.8300747871398926,7.463712692260742,1581.4872736930847
D4:22:CD:00:05:5D,-168.2755126953125,-66.91505432128906,-144.32809448242188,0.9589841365814209,2.5261831283569336,0.5450973510742188,1581.5360145568848
D4:22:CD:00:05:6B,-72.89196014404297,-3.627304792404175,-43.89698791503906,4.401506423950195,-3.664580821990967,11.608680725097656,1581.5360145568848
D4:22:CD:00:49:AA,127.09721374511719,-83.9106674194336,141.8433074951172,-1.9543967247009277,-3.1575446128845215,7.294864654541016,1581.5360145568848
D4:22:CD:00:05:6E,-35.42277526855469,-63.86246109008789,70.41439056396484,-4.824865341186523,2.984785556793213,14.448091506958008,1581.5360145568848
D4:22:CD:00:05:5E,-178.92633056640625,-72.77203369140625,-15.756011962890625,4.907575607299805,0.7747973203659058,14.259052276611328,1581.5360145568848
D4:22:CD:00:05:5D,-169.82550048828125,-64.63980102539062,-142.0862274169922,1.6192917823791504,2.7026333808898926,1.2067022323608398,1581.5662705898285
D4:22:CD:00:05:6B,-63.15749740600586,6.340109825134277,-37.68253707885742,12.175546646118164,-4.180591583251953,16.006202697753906,1581.5662705898285
D4:22:CD:00:49:AA,118.31998443603516,-81.7984390258789,150.17755126953125,-1.0283782482147217,-1.5138211250305176,5.655038833618164,1581.5662705898285
D4:22:CD:00:05:6E,-36.85460662841797,-65.34909057617188,71.20832061767578,-1.0027174949645996,2.462311267852783,8.296186447143555,1581.5662705898285
D4:22:CD:00:05:5E,-179.41567993164062,-76.35004425048828,-15.93330192565918,3.301788330078125,-1.3030784130096436,7.726804733276367,1581.5662705898285
D4:22:CD:00:05:5D,-170.63966369628906,-64.01731872558594,-140.1377716064453,1.093052864074707,2.7617006301879883,1.5727272033691406,1581.596004486084
D4:22:CD:00:05:6B,-45.44911575317383,15.252336502075195,-32.105709075927734,14.676372528076172,-6.802070617675781,12.935043334960938,1581.596004486084
D4:22:CD:00:49:AA,125.15670013427734,-81.4031753540039,144.01785278320312,-1.2143945693969727,0.1688913106918335,8.029714584350586,1581.596004486084
D4:22:CD:00:05:6E,-37.697608947753906,-65.70807647705078,77.02965545654297,0.16441121697425842,6.026950836181641,5.160737037658691,1581.596004486084
D4:22:CD:00:05:5E,-175.2683868408203,-77.62152862548828,-19.068166732788086,-0.9005707502365112,6.488430023193359,6.0054121017456055,1581.596004486084
D4:22:CD:00:05:5D,-171.39100646972656,-64.77539825439453,-138.2050018310547,-0.07151944935321808,3.112720489501953,1.3461666107177734,1581.6260392665863
D4:22:CD:00:05:6B,-24.423282623291016,22.851364135742188,-26.886402130126953,14.067541122436523,-7.881438255310059,7.363456726074219,1581.6260392665863
D4:22:CD:00:49:AA,131.8410186767578,-81.65470886230469,138.7035675048828,-0.5884219408035278,1.2705178260803223,3.16001033782959,1581.6260392665863
D4:22:CD:00:05:6E,-40.29850387573242,-64.97005462646484,84.80903625488281,-0.661587119102478,8.231571197509766,2.976914405822754,1581.6260392665863
D4:22:CD:00:05:5E,-143.18714904785156,-75.88068389892578,-45.22275161743164,2.0381250381469727,8.560585021972656,3.3410940170288086,1581.6260392665863
D4:22:CD:00:05:5D,-172.09332275390625,-66.70474243164062,-136.4196014404297,-0.9904848337173462,3.4348440170288086,0.8094711303710938,1581.6560609340668
D4:22:CD:00:05:6B,-0.3592980206012726,29.31136703491211,-24.22577667236328,10.673742294311523,-5.0171966552734375,5.7120866775512695,1581.6560609340668
D4:22:CD:00:49:AA,137.5821075439453,-82.12406158447266,134.26226806640625,-1.9878408908843994,0.29933565855026245,3.336515426635742,1581.6560609340668
D4:22:CD:00:05:6E,-42.21129608154297,-63.6046142578125,92.8411865234375,-0.8344614505767822,6.617393493652344,0.5696287155151367,1581.6560609340668
D4:22:CD:00:05:5E,-108.29634094238281,-72.16045379638672,-74.98448181152344,-1.2133967876434326,4.683322906494141,-0.8489828109741211,1581.6560609340668
D4:22:CD:00:05:5D,-172.26377868652344,-69.46276092529297,-135.7159423828125,-1.704042911529541,2.921980857849121,0.5578279495239258,1581.6865322589874
D4:22:CD:00:05:6B,22.33865737915039,36.54555892944336,-24.64638900756836,3.3580613136291504,-6.380828857421875,1.40777587890625,1581.6865322589874
D4:22:CD:00:49:AA,144.50799560546875,-83.06271362304688,128.92333984375,-1.786754846572876,1.0081961154937744,0.9138507843017578,1581.6865322589874
D4:22:CD:00:05:6E,-40.86137390136719,-62.213905334472656,100.61905670166016,-5.258467674255371,6.2563886642456055,-1.153182029724121,1581.6865322589874
D4:22:CD:00:05:5E,-84.49781036376953,-67.35140991210938,-96.1280746459961,-0.08319811522960663,3.1591100692749023,-4.0708208084106445,1581.6865322589874
D4:22:CD:00:05:5D,-171.6357879638672,-72.43148040771484,-136.33322143554688,-0.5087977647781372,0.8859521150588989,-0.02161693572998047,1581.7166118621826
D4:22:CD:00:05:6B,33.47336959838867,42.559478759765625,-25.48274040222168,-1.2086687088012695,-10.176950454711914,-2.114579677581787,1581.7166118621826
D4:22:CD:00:49:AA,153.53651428222656,-83.8734359741211,121.89566802978516,-0.266221821308136,1.3046514987945557,-2.9423270225524902,1581.7166118621826
D4:22:CD:00:05:6E,-35.26063537597656,-61.26111602783203,105.32013702392578,-4.847904205322266,4.808584213256836,-3.8988895416259766,1581.7166118621826
D4:22:CD:00:05:5E,-64.61454772949219,-61.4149169921875,-115.30247497558594,-0.6467993259429932,0.44296711683273315,-3.927783489227295,1581.7166118621826
D4:22:CD:00:05:5D,-170.07192993164062,-75.02442932128906,-138.7555694580078,-0.08534617722034454,0.13814184069633484,-0.4880485534667969,1581.7762196063995
D4:22:CD:00:05:6B,37.417118072509766,47.447933197021484,-27.81182098388672,-3.808295726776123,-8.150117874145508,-4.347309112548828,1581.7762196063995
D4:22:CD:00:49:AA,163.5936737060547,-84.21605682373047,113.37554931640625,0.5350126028060913,0.7373231649398804,-4.918845176696777,1581.7762196063995
D4:22:CD:00:05:6E,-27.622379302978516,-60.86808395385742,107.13882446289062,-4.223117828369141,3.746427059173584,-5.577085494995117,1581.7762196063995
D4:22:CD:00:05:5E,-48.06853103637695,-53.89760208129883,-132.07383728027344,-5.119336128234863,-3.7702503204345703,-4.669888496398926,1581.7762196063995
D4:22:CD:00:05:5D,-169.462158203125,-76.84141540527344,-141.36740112304688,-0.1226140558719635,-1.3112287521362305,-2.266456127166748,1581.8062040805817
D4:22:CD:00:05:6B,36.010841369628906,50.687931060791016,-32.48944091796875,-4.696022033691406,-5.225797653198242,-6.194631576538086,1581.8062040805817
D4:22:CD:00:49:AA,170.03366088867188,-84.35590362548828,108.00768280029297,-0.9428576231002808,0.35009944438934326,-6.002586364746094,1581.8062040805817
D4:22:CD:00:05:6E,-19.031700134277344,-60.93375778198242,106.4251708984375,-3.9356307983398438,3.4065771102905273,-5.886096954345703,1581.8062040805817
D4:22:CD:00:05:5E,-38.0845947265625,-46.139427185058594,-145.33497619628906,-11.146249771118164,-7.653163909912109,-7.777144432067871,1581.8062040805817
D4:22:CD:00:05:5D,-172.74020385742188,-77.68355560302734,-139.43458557128906,1.0552940368652344,-1.7789101600646973,-2.9479246139526367,1581.8361413478851
D4:22:CD:00:05:6B,29.223968505859375,52.333980560302734,-40.895565032958984,-4.040789604187012,-6.15132999420166,-8.986406326293945,1581.8361413478851
D4:22:CD:00:49:AA,174.02352905273438,-84.19261932373047,104.87791442871094,-2.294097900390625,-0.20450261235237122,-4.797450065612793,1581.8361413478851
D4:22:CD:00:05:6E,-9.934659004211426,-61.099552154541016,104.23188781738281,-3.9893789291381836,3.6462488174438477,-5.580206871032715,1581.8361413478851
D4:22:CD:00:05:5E,-38.25920104980469,-41.346412658691406,-154.51876831054688,-18.913482666015625,-8.963088989257812,-15.154457092285156,1581.8361413478851
D4:22:CD:00:05:5D,179.26307678222656,-77.61041259765625,-131.64797973632812,0.4299396872520447,-3.117733955383301,-0.27682018280029297,1581.8661408424377
D4:22:CD:00:05:6B,20.362567901611328,53.48084259033203,-54.258907318115234,-2.208071231842041,-5.05177116394043,-11.294858932495117,1581.8661408424377
D4:22:CD:00:49:AA,-177.66452026367188,-84.20979309082031,97.06729125976562,-2.9045181274414062,-1.4486236572265625,-3.5021705627441406,1581.8661408424377
D4:22:CD:00:05:6E,-1.3887333869934082,-61.182029724121094,101.82144927978516,-5.304609298706055,3.2589011192321777,-4.824882507324219,1581.8661408424377
D4:22:CD:00:05:5E,-50.56121826171875,-41.5261116027832,-158.80532836914062,-20.57004165649414,-4.047454833984375,-21.953022003173828,1581.8661408424377
D4:22:CD:00:05:5D,169.48374938964844,-76.06016540527344,-120.85742950439453,-1.0255649089813232,-1.6690285205841064,0.03217887878417969,1581.8973152637482
D4:22:CD:00:05:6B,9.300525665283203,53.48762893676758,-72.07787322998047,-1.8722984790802002,-6.084715843200684,-15.136520385742188,1581.8973152637482
D4:22:CD:00:49:AA,-166.66542053222656,-84.13860321044922,86.86861419677734,-2.404971122741699,-1.8846828937530518,-2.8070201873779297,1581.8973152637482
D4:22:CD:00:05:6E,4.602082252502441,-61.158443450927734,100.61470031738281,-5.797904014587402,2.7911601066589355,-3.07602596282959,1581.8973152637482
D4:22:CD:00:05:5E,-65.52947235107422,-45.29350662231445,-157.7259521484375,-16.126110076904297,7.7292022705078125,-19.50448989868164,1581.8973152637482
D4:22:CD:00:05:5D,161.55987548828125,-73.77412414550781,-111.30379486083984,-0.7910192012786865,3.0454416275024414,0.17171192169189453,1581.9259405136108
D4:22:CD:00:05:6B,-3.9062352180480957,50.72734451293945,-91.32119750976562,-1.7428686618804932,-5.4529314041137695,-18.51885986328125,1581.9259405136108
D4:22:CD:00:49:AA,-161.5712432861328,-83.72586822509766,81.8029556274414,-1.3411519527435303,-1.4483351707458496,-0.8535060882568359,1581.9259405136108
D4:22:CD:00:05:6E,7.897712707519531,-61.29420852661133,101.57884979248047,-5.934491157531738,1.3904473781585693,-2.7039270401000977,1581.9259405136108
D4:22:CD:00:05:5E,-73.1225814819336,-50.432674407958984,-150.2659149169922,-11.626754760742188,-5.114837646484375,-8.891376495361328,1581.9259405136108
D4:22:CD:00:05:5D,154.359375,-72.26470947265625,-103.74620056152344,-0.5455929040908813,3.6367406845092773,2.0474929809570312,1581.9564731121063
D4:22:CD:00:05:6B,-17.723573684692383,46.12764358520508,-105.86508178710938,-4.866263389587402,-3.8027267456054688,-17.141075134277344,1581.9564731121063
D4:22:CD:00:49:AA,-155.6026611328125,-83.24227905273438,74.32083892822266,-2.148836612701416,-0.5054628849029541,0.6467971801757812,1581.9564731121063
D4:22:CD:00:05:6E,8.610386848449707,-61.86445999145508,104.99137878417969,-5.068068504333496,1.67033052444458,-0.6713199615478516,1581.9564731121063
D4:22:CD:00:05:5E,-76.20504760742188,-56.61343765258789,-142.98541259765625,0.1660444140434265,-14.567798614501953,0.0482635498046875,1581.9564731121063
D4:22:CD:00:05:5D,145.76316833496094,-71.81476593017578,-95.51925659179688,0.856541633605957,1.3670597076416016,1.6045541763305664,1581.986097574234
D4:22:CD:00:05:6B,-24.449430465698242,43.327301025390625,-113.68097686767578,-6.289130210876465,11.870138168334961,-9.149703979492188,1581.986097574234
D4:22:CD:00:49:AA,-147.54257202148438,-83.31375885009766,65.25031280517578,-1.851637601852417,0.6758953332901001,2.2326316833496094,1581.986097574234
D4:22:CD:00:05:6E,7.725404262542725,-63.54232406616211,110.02623748779297,-5.810669898986816,1.03411865234375,1.4926204681396484,1581.986097574234
D4:22:CD:00:05:5E,-84.06478881835938,-61.71705627441406,-133.8978271484375,-5.213982582092285,-4.807626724243164,5.297911643981934,1581.986097574234
D4:22:CD:00:05:5D,136.9976348876953,-71.85115051269531,-85.89356231689453,0.9494539499282837,1.517256259918213,2.8839941024780273,1582.0165255069733
D4:22:CD:00:05:6B,-22.551389694213867,44.102928161621094,-109.28255462646484,5.919600486755371,6.39430046081543,-6.611571311950684,1582.0165255069733
D4:22:CD:00:49:AA,-148.8983612060547,-83.1478271484375,64.74027252197266,2.72928524017334,-0.21786901354789734,2.9551258087158203,1582.0165255069733
D4:22:CD:00:05:6E,3.429375171661377,-67.11940002441406,115.20748138427734,-9.087215423583984,-2.5473828315734863,3.9260730743408203,1582.0165255069733
D4:22:CD:00:05:5E,-94.41045379638672,-63.95305633544922,-125.96552276611328,-5.63386344909668,-8.525918960571289,6.671802520751953,1582.0165255069733
D4:22:CD:00:05:5D,127.98766326904297,-72.36629486083984,-77.31851959228516,0.3086981773376465,-0.25040286779403687,7.806299209594727,1582.0764558315277
D4:22:CD:00:05:6B,-21.403627395629883,45.23819351196289,-98.41438293457031,-9.272317886352539,1.8012018203735352,-1.0964040756225586,1582.0764558315277
D4:22:CD:00:49:AA,-156.40542602539062,-81.93671417236328,68.4555435180664,3.5985794067382812,-3.2664451599121094,4.09182071685791,1582.0764558315277
D4:22:CD:00:05:6E,-6.786683559417725,-71.68934631347656,118.44247436523438,-6.688054084777832,-1.0203123092651367,4.305113792419434,1582.0764558315277
D4:22:CD:00:05:5E,-93.6661376953125,-66.32777404785156,-125.49117279052734,-6.148836135864258,2.4014673233032227,-1.9262075424194336,1582.0764558315277
D4:22:CD:00:05:5D,118.04998779296875,-73.65074920654297,-71.69120788574219,-0.19754967093467712,-3.931224822998047,4.638908386230469,1582.1084561347961
D4:22:CD:00:05:6B,-8.318714141845703,43.40802001953125,-83.66232299804688,-3.233699321746826,-0.6913095712661743,-8.08172607421875,1582.1084561347961
D4:22:CD:00:49:AA,-162.61172485351562,-81.19547271728516,72.46302032470703,2.2993593215942383,-0.4049283266067505,3.1688547134399414,1582.1084561347961
D4:22:CD:00:05:6E,-18.619461059570312,-75.19892120361328,120.09524536132812,3.7975807189941406,2.283895492553711,5.635550498962402,1582.1084561347961
D4:22:CD:00:05:5E,-95.55715942382812,-67.59242248535156,-123.0700912475586,-4.709731101989746,1.8416295051574707,2.2331628799438477,1582.1084561347961
D4:22:CD:00:05:5D,107.27877807617188,-75.45136260986328,-69.85344696044922,14.311075210571289,9.6641845703125,-0.5999956130981445,1582.1367645263672
D4:22:CD:00:05:6B,-0.18522222340106964,35.7224235534668,-65.9866943359375,-5.506525039672852,-5.459256172180176,-10.831811904907227,1582.1367645263672
D4:22:CD:00:49:AA,-170.74681091308594,-81.07179260253906,79.93667602539062,3.978083610534668,1.6596827507019043,1.0428199768066406,1582.1367645263672
D4:22:CD:00:05:6E,-25.06643295288086,-76.26681518554688,122.25787353515625,8.186563491821289,1.4174294471740723,2.413872718811035,1582.1367645263672
D4:22:CD:00:05:5E,-96.09539794921875,-69.49353790283203,-123.00160217285156,-4.693346977233887,0.0813654214143753,0.5071849822998047,1582.1367645263672
D4:22:CD:00:05:5D,127.98915100097656,-70.76123046875,-91.4448471069336,24.39183807373047,6.23964786529541,0.5060443878173828,1582.1658599376678
D4:22:CD:00:05:6B,6.644924640655518,25.281827926635742,-50.677555084228516,-7.37176513671875,-15.800819396972656,-5.630870819091797,1582.1658599376678
D4:22:CD:00:49:AA,-177.23106384277344,-80.17293548583984,85.5991439819336,4.893985748291016,1.1659033298492432,1.000229835510254,1582.1658599376678
D4:22:CD:00:05:6E,-23.521574020385742,-75.76253509521484,123.32869720458984,2.5625505447387695,2.75900936126709,-1.3295326232910156,1582.1658599376678
D4:22:CD:00:05:5E,-94.94340515136719,-71.45784759521484,-125.30606079101562,-5.853096961975098,-1.0533182621002197,-1.415914535522461,1582.1658599376678
D4:22:CD:00:05:5D,148.7206268310547,-61.76937484741211,-109.79448699951172,9.553644180297852,3.984011650085449,3.3426742553710938,1582.196017742157
D4:22:CD:00:05:6B,19.51536750793457,16.634944915771484,-36.44200134277344,1.987936019897461,-13.292665481567383,0.28613948822021484,1582.196017742157
D4:22:CD:00:49:AA,178.77101135253906,-79.95011138916016,90.86918640136719,3.3146157264709473,1.0004427433013916,-0.020341873168945312,1582.196017742157
D4:22:CD:00:05:6E,-18.79863166809082,-74.79850006103516,122.80973815917969,-0.48001623153686523,5.917853355407715,-1.5416374206542969,1582.196017742157
D4:22:CD:00:05:5E,-95.95398712158203,-72.4892578125,-126.7945785522461,-4.978987693786621,-2.3523478507995605,-1.783416748046875,1582.196017742157
D4:22:CD:00:05:5D,157.0618438720703,-51.610450744628906,-120.98009490966797,0.4569845199584961,-0.616077184677124,-1.4099998474121094,1582.2260053157806
D4:22:CD:00:05:6B,29.580060958862305,9.896245956420898,-20.641427993774414,11.85489273071289,3.0747036933898926,3.3223724365234375,1582.2260053157806
D4:22:CD:00:49:AA,175.66522216796875,-79.73500061035156,95.95903015136719,3.013644218444824,0.7751365900039673,-0.6543083190917969,1582.2260053157806
D4:22:CD:00:05:6E,-14.878011703491211,-74.22250366210938,122.41825866699219,-2.5048751831054688,6.316119194030762,-2.402271270751953,1582.2260053157806
D4:22:CD:00:05:5E,-97.95231628417969,-72.92251586914062,-127.577880859375,-3.857450485229492,-2.2862534523010254,-1.2063913345336914,1582.2260053157806
D4:22:CD:00:05:5D,160.51516723632812,-42.26217269897461,-127.41609954833984,-0.7106667757034302,-3.5537519454956055,-6.956386566162109,1582.2565405368805
D4:22:CD:00:05:6B,23.9617919921875,4.564550399780273,-4.538509368896484,0.18425273895263672,18.570419311523438,6.153617858886719,1582.2565405368805
D4:22:CD:00:49:AA,172.68194580078125,-79.63853454589844,99.98588562011719,4.991572380065918,0.44981151819229126,-0.5487604141235352,1582.2565405368805
D4:22:CD:00:05:6E,-12.130943298339844,-74.6497573852539,121.96302795410156,-3.7884511947631836,3.532748222351074,-3.4859676361083984,1582.2565405368805
D4:22:CD:00:05:5E,-97.86219024658203,-73.39160919189453,-129.31204223632812,-3.6172866821289062,-2.543274402618408,-1.2971124649047852,1582.2565405368805
D4:22:CD:00:05:5D,164.5639190673828,-34.75953674316406,-132.02719116210938,-1.5996334552764893,-2.1643261909484863,-9.786724090576172,1582.2861742973328
D4:22:CD:00:05:6B,2.579369306564331,0.4741646647453308,8.784936904907227,-10.95718765258789,18.158424377441406,-4.8962860107421875,1582.2861742973328
D4:22:CD:00:49:AA,168.34622192382812,-79.78423309326172,104.54901123046875,3.1770896911621094,-0.3366546034812927,-2.585294723510742,1582.2861742973328
D4:22:CD:00:05:6E,-9.549139976501465,-76.02890014648438,119.75906372070312,-3.690314292907715,2.637073040008545,-4.839106559753418,1582.2861742973328
D4:22:CD:00:05:5E,-98.5851058959961,-73.94072723388672,-129.61105346679688,-2.551959991455078,-2.051637649536133,-1.6203413009643555,1582.2861742973328
D4:22:CD:00:05:5D,168.0613250732422,-29.830196380615234,-135.91543579101562,-2.8811845779418945,0.48881030082702637,-8.575122833251953,1582.3163077831268
D4:22:CD:00:05:6B,-18.680768966674805,-2.9967217445373535,15.770078659057617,-1.9668467044830322,-4.878787994384766,-7.792448043823242,1582.3163077831268
D4:22:CD:00:49:AA,164.56808471679688,-80.42172241210938,108.15634155273438,1.5696334838867188,-0.753922700881958,-3.304306983947754,1582.3163077831268
D4:22:CD:00:05:6E,-4.319515705108643,-77.90316009521484,113.60176086425781,-1.9088358879089355,2.015456199645996,-5.775332450866699,1582.3163077831268
D4:22:CD:00:05:5E,-102.33016967773438,-74.1450424194336,-126.04723358154297,-2.54202938079834,-2.913647174835205,-2.512702465057373,1582.3163077831268
D4:22:CD:00:05:5D,170.08905029296875,-27.091938018798828,-139.3268585205078,-6.329474449157715,0.12113440036773682,-7.350411415100098,1582.34627699852
D4:22:CD:00:05:6B,-26.334636688232422,-8.242443084716797,16.59508514404297,-2.521054744720459,3.029384136199951,-7.8528032302856445,1582.34627699852
D4:22:CD:00:49:AA,166.45379638671875,-81.18663787841797,106.7689208984375,0.7486832141876221,-0.09581641852855682,-4.793993949890137,1582.34627699852
D4:22:CD:00:05:6E,6.782934188842773,-79.30609130859375,102.23473358154297,-0.9954308271408081,1.199218988418579,-5.793317794799805,1582.34627699852
D4:22:CD:00:05:5E,-108.8521728515625,-73.41226196289062,-118.62959289550781,-2.792766571044922,-2.2880821228027344,-2.048389434814453,1582.34627699852
D4:22:CD:00:05:5D,171.90798950195312,-27.016565322875977,-141.50025939941406,-10.293399810791016,-2.4106664657592773,-8.497333526611328,1582.406614780426
D4:22:CD:00:05:6B,-30.676801681518555,-16.737529754638672,14.496841430664062,-0.45931077003479004,5.495091438293457,-12.020397186279297,1582.406614780426
D4:22:CD:00:49:AA,174.15394592285156,-81.34785461425781,100.05027770996094,1.4290692806243896,0.11169327795505524,-5.546307563781738,1582.406614780426
D4:22:CD:00:05:6E,24.630403518676758,-79.70539093017578,85.67752838134766,-1.8619410991668701,1.5950443744659424,-5.361882209777832,1582.406614780426
D4:22:CD:00:05:5E,-115.97362518310547,-71.6436996459961,-109.80720520019531,-4.637672424316406,-4.089962005615234,-2.7145910263061523,1582.406614780426
D4:22:CD:00:05:5D,175.55255126953125,-29.517915725708008,-142.12843322753906,-10.899524688720703,-2.812185764312744,-5.9837751388549805,1582.435961484909
D4:22:CD:00:05:6B,-33.29706954956055,-28.8850040435791,11.811291694641113,3.1397719383239746,-1.850923776626587,-5.597104072570801,1582.435961484909
D4:22:CD:00:49:AA,-177.42344665527344,-81.43397521972656,91.5607681274414,5.596212387084961,-1.8776884078979492,-3.6378440856933594,1582.435961484909
D4:22:CD:00:05:6E,44.780235290527344,-78.74369812011719,67.50120544433594,-1.9482288360595703,2.0767569541931152,-2.594210624694824,1582.435961484909
D4:22:CD:00:05:5E,-122.80099487304688,-68.82003784179688,-101.7791976928711,-4.758129119873047,-0.9081101417541504,-2.5333189964294434,1582.435961484909
D4:22:CD:00:05:5D,178.7226104736328,-30.605621337890625,-141.42742919921875,-5.269004821777344,19.218616485595703,30.014774322509766,1582.4658558368683
D4:22:CD:00:05:6B,-29.304384231567383,-43.86896514892578,6.404060363769531,6.380967140197754,0.27471494674682617,-0.10724163055419922,1582.4658558368683
D4:22:CD:00:49:AA,-173.03079223632812,-82.16173553466797,85.1226577758789,4.074925422668457,0.15062883496284485,-1.7714300155639648,1582.4658558368683
D4:22:CD:00:05:6E,60.101158142089844,-76.01074981689453,54.9345817565918,-2.614786148071289,0.9245510101318359,1.4373083114624023,1582.4658558368683
D4:22:CD:00:05:5E,-128.21971130371094,-66.01277923583984,-95.60637664794922,-5.768742561340332,-1.082324504852295,-0.6769704818725586,1582.4658558368683
D4:22:CD:00:05:5D,177.81179809570312,-27.8571834564209,-139.51698303222656,-13.441034317016602,-10.953845977783203,-5.405274391174316,1582.4960088729858
D4:22:CD:00:05:6B,-12.956914901733398,-61.04730987548828,-10.720691680908203,18.789417266845703,-0.1284008026123047,29.244945526123047,1582.4960088729858
D4:22:CD:00:49:AA,-171.68243408203125,-82.5937728881836,80.78671264648438,-2.7572531700134277,2.0454649925231934,0.26929569244384766,1582.4960088729858
D4:22:CD:00:05:6E,67.46964263916016,-71.60712432861328,50.41265869140625,0.001612422289326787,-2.2689905166625977,12.189359664916992,1582.4960088729858
D4:22:CD:00:05:5E,-132.0302734375,-63.69036865234375,-91.91683959960938,-5.0001325607299805,-1.2524616718292236,0.15165328979492188,1582.4960088729858
D4:22:CD:00:05:5D,179.07139587402344,-24.39521026611328,-138.8026885986328,-20.70987319946289,-5.075677871704102,3.2574405670166016,1582.5270240306854
D4:22:CD:00:05:6B,22.566692352294922,-67.99349212646484,-47.90987777709961,10.637054443359375,-11.419750213623047,38.00214385986328,1582.5270240306854
D4:22:CD:00:49:AA,-170.5522003173828,-82.66184997558594,79.2533187866211,-7.148342132568359,-0.9245760440826416,6.5335540771484375,1582.5270240306854
D4:22:CD:00:05:6E,79.62738800048828,-61.82722091674805,47.86066436767578,0.9572116136550903,-7.927534103393555,20.68982696533203,1582.5270240306854
D4:22:CD:00:05:5E,-133.9782257080078,-62.4316520690918,-89.72684478759766,-4.997161865234375,-0.4144488573074341,0.32244205474853516,1582.5270240306854
D4:22:CD:00:05:5D,175.37936401367188,-19.95810317993164,-139.0768280029297,-11.475526809692383,-3.660763740539551,10.788436889648438,1582.556042432785
D4:22:CD:00:05:6B,25.05307960510254,-68.4512939453125,-48.63013458251953,11.928722381591797,16.58999252319336,9.395021438598633,1582.556042432785
D4:22:CD:00:49:AA,-167.1011962890625,-83.3754653930664,76.78611755371094,4.866451263427734,3.0465736389160156,7.1645660400390625,1582.556042432785
D4:22:CD:00:05:6E,84.05538177490234,-45.33550262451172,45.56708908081055,1.7769947052001953,-12.702646255493164,32.399024963378906,1582.556042432785
D4:22:CD:00:05:5E,-134.41290283203125,-62.05097961425781,-89.27755737304688,-5.829167366027832,-1.1795353889465332,-0.13065052032470703,1582.556042432785
D4:22:CD:00:05:5D,170.7028045654297,-15.874319076538086,-140.0358428955078,-11.36593246459961,-3.349931240081787,5.73375129699707,1582.5861792564392
D4:22:CD:00:05:6B,-5.321805000305176,-66.49371337890625,-21.403905868530273,12.471780776977539,2.0209436416625977,5.115638732910156,1582.5861792564392
D4:22:CD:00:49:AA,-169.63327026367188,-83.96265411376953,79.28984069824219,6.607060432434082,0.9193373918533325,4.8773651123046875,1582.5861792564392
D4:22:CD:00:05:6E,78.41114807128906,-27.90431022644043,46.4678955078125,6.36637020111084,-6.080181121826172,17.14434814453125,1582.5861792564392
D4:22:CD:00:05:5E,-133.588623046875,-62.41084671020508,-90.88453674316406,-5.463387489318848,-0.5489448308944702,0.2952241897583008,1582.5861792564392
D4:22:CD:00:05:5D,167.97145080566406,-12.971124649047852,-140.1891632080078,-10.127384185791016,-0.39830005168914795,0.9346733093261719,1582.6162898540497
D4:22:CD:00:05:6B,-40.44868087768555,-58.635372161865234,0.4072265625,4.629655838012695,-7.215836524963379,12.334171295166016,1582.6162898540497
D4:22:CD:00:49:AA,-178.59739685058594,-84.5038833618164,87.20494079589844,3.306220531463623,2.435385227203369,5.198533058166504,1582.6162898540497
D4:22:CD:00:05:6E,75.18321228027344,-10.12902545928955,47.31126022338867,3.6853408813476562,0.6468867063522339,13.807640075683594,1582.6162898540497
D4:22:CD:00:05:5E,-131.49017333984375,-63.65461730957031,-94.24285125732422,-4.740874290466309,-0.6269345283508301,0.47513866424560547,1582.6162898540497
D4:22:CD:00:05:5D,166.24049377441406,-11.9611234664917,-139.94798278808594,-6.475762367248535,0.4828505516052246,-3.8936758041381836,1582.6459097862244
D4:22:CD:00:05:6B,-51.33623123168945,-51.6435661315918,5.7370805740356445,2.243401050567627,0.018574833869934082,4.224480628967285,1582.6459097862244
D4:22:CD:00:49:AA,172.63339233398438,-84.54105377197266,95.03279876708984,2.434267044067383,1.7781355381011963,3.9148130416870117,1582.6459097862244
D4:22:CD:00:05:6E,67.48895263671875,6.118721008300781,45.9110221862793,3.2861266136169434,10.14129638671875,6.000353813171387,1582.6459097862244
D4:22:CD:00:05:5E,-127.76782989501953,-65.78864288330078,-99.19882202148438,-4.585707664489746,-0.741783857345581,0.16826820373535156,1582.6459097862244
D4:22:CD:00:05:5D,163.69363403320312,-13.917509078979492,-139.8253173828125,-4.518643379211426,1.4758620262145996,-7.833559989929199,1582.7060770988464
D4:22:CD:00:05:6B,-49.41492462158203,-49.09152603149414,3.558933973312378,1.006387710571289,1.0988714694976807,-1.7427263259887695,1582.7060770988464
D4:22:CD:00:49:AA,166.5826416015625,-84.10319519042969,100.416748046875,1.9495923519134521,0.3153311610221863,0.07525157928466797,1582.7060770988464
D4:22:CD:00:05:6E,59.06464767456055,19.65442657470703,42.5594367980957,1.3191943168640137,9.700628280639648,-1.1544389724731445,1582.7060770988464
D4:22:CD:00:05:5E,-121.83905792236328,-68.42452239990234,-106.37098693847656,-4.492428779602051,-1.4782836437225342,-0.5450859069824219,1582.7060770988464
D4:22:CD:00:05:5D,159.9073486328125,-18.661815643310547,-139.51837158203125,-3.9059557914733887,1.2043793201446533,-10.47723388671875,1582.7358074188232
D4:22:CD:00:05:6B,-46.45657730102539,-49.70375442504883,-1.1533279418945312,1.766815185546875,1.069014549255371,-6.884840965270996,1582.7358074188232
D4:22:CD:00:49:AA,164.08607482910156,-83.23561096191406,102.83706665039062,0.7886886596679688,1.1833035945892334,-1.5767812728881836,1582.7358074188232
D4:22:CD:00:05:6E,51.573795318603516,29.98858070373535,38.37985610961914,-1.973238229751587,9.422943115234375,-5.275779724121094,1582.7358074188232
D4:22:CD:00:05:5E,-113.42674255371094,-70.87415313720703,-115.7786636352539,-4.119307518005371,-2.0027174949645996,-1.6060657501220703,1582.7358074188232
D4:22:CD:00:05:5D,155.71141052246094,-25.9936580657959,-138.6793212890625,-3.671935558319092,0.19402694702148438,-10.98398208618164,1582.766328573227
D4:22:CD:00:05:6B,-47.16334915161133,-52.72308349609375,-6.829138278961182,2.5680055618286133,1.234208345413208,-7.704732894897461,1582.766328573227
D4:22:CD:00:49:AA,162.71902465820312,-82.30007934570312,104.55448150634766,-0.021656282246112823,-0.07328833639621735,-4.149565696716309,1582.766328573227
D4:22:CD:00:05:6E,44.18218231201172,37.30551528930664,34.350860595703125,-2.872340202331543,7.161169052124023,-7.246884346008301,1582.766328573227
D4:22:CD:00:05:5E,-104.15189361572266,-72.4003677368164,-125.70767974853516,-3.3174824714660645,-2.293726921081543,-2.1864733695983887,1582.766328573227
D4:22:CD:00:05:5D,151.6311492919922,-35.37828063964844,-136.85585021972656,-2.874591827392578,-1.0052294731140137,-9.030311584472656,1582.8214280605316
D4:22:CD:00:05:6B,-51.12215805053711,-57.111019134521484,-13.38554859161377,2.3553261756896973,-0.04474472999572754,-5.819477081298828,1582.8214280605316
D4:22:CD:00:49:AA,160.97463989257812,-81.43634033203125,106.80545043945312,0.8373950719833374,-0.5790568590164185,-5.485578536987305,1582.8214280605316
D4:22:CD:00:05:6E,37.84727478027344,42.57440185546875,31.5483341217041,-2.918992519378662,3.2637109756469727,-9.890344619750977,1582.8214280605316
D4:22:CD:00:05:5E,-96.42686462402344,-72.73798370361328,-133.3979034423828,-2.351120948791504,-2.555396556854248,-3.3420519828796387,1582.8214280605316
D4:22:CD:00:05:5D,147.45726013183594,-46.32627868652344,-133.1663360595703,-3.227267265319824,-2.439988136291504,-7.188799858093262,1582.826556444168
D4:22:CD:00:05:6B,-54.06575012207031,-61.661109924316406,-22.29054832458496,-0.18872660398483276,-0.1483308970928192,-3.51387882232666,1582.826556444168
D4:22:CD:00:49:AA,159.10775756835938,-80.69414520263672,108.89643096923828,1.2762045860290527,-0.5040863752365112,-5.659615516662598,1582.826556444168
D4:22:CD:00:05:6E,36.423831939697266,46.299434661865234,32.06919860839844,-1.566431999206543,-2.630321502685547,-11.772741317749023,1582.826556444168
D4:22:CD:00:05:5E,-93.37042999267578,-71.94071197509766,-135.86041259765625,-3.2381834983825684,-4.031699180603027,-3.4631547927856445,1582.826556444168
D4:22:CD:00:05:5D,141.1669921875,-58.4266357421875,-125.6529312133789,-2.26949405670166,-3.064523696899414,-2.928708553314209,1582.8560659885406
D4:22:CD:00:05:6B,-53.154170989990234,-65.963623046875,-35.086326599121094,-0.9703203439712524,-0.5220717191696167,-3.9025464057922363,1582.8560659885406
D4:22:CD:00:49:AA,158.90196228027344,-80.12014770507812,109.25398254394531,1.133777379989624,-0.8329514265060425,-4.891730308532715,1582.8560659885406
D4:22:CD:00:05:6E,43.27128601074219,48.406898498535156,38.57956314086914,0.19309011101722717,-1.3827967643737793,-10.123779296875,1582.8560659885406
D4:22:CD:00:05:5E,-94.9286880493164,-70.37866973876953,-133.48025512695312,-3.2226152420043945,-2.870103359222412,-1.572190284729004,1582.8560659885406
D4:22:CD:00:05:5D,126.41244506835938,-70.5610580444336,-107.74776458740234,2.605544090270996,-7.510407447814941,6.657381057739258,1582.8860654830933
D4:22:CD:00:05:6B,-47.945491790771484,-69.9470443725586,-52.725242614746094,-1.6446406841278076,-0.7795569896697998,-3.5234885215759277,1582.8860654830933
D4:22:CD:00:49:AA,162.0633087158203,-79.68620300292969,106.51309967041016,2.4721155166625977,-0.8920489549636841,-3.0261406898498535,1582.8860654830933
D4:22:CD:00:05:6E,54.2939453125,48.33338165283203,53.990909576416016,1.618818998336792,4.70366096496582,-11.582086563110352,1582.8860654830933
D4:22:CD:00:05:5E,-98.36735534667969,-68.14086151123047,-128.4522247314453,-3.540879726409912,-2.531735420227051,-1.9187779426574707,1582.8860654830933
D4:22:CD:00:05:5D,94.94361877441406,-76.35218048095703,-63.89303207397461,18.07577133178711,-3.033855438232422,12.749748229980469,1582.9165394306183
D4:22:CD:00:05:6B,-38.91425704956055,-73.30606079101562,-75.62721252441406,-3.2145891189575195,-0.7366918325424194,-2.55610990524292,1582.9165394306183
D4:22:CD:00:49:AA,169.41639709472656,-79.63847351074219,100.1364974975586,2.927887439727783,-1.3050580024719238,-0.7219123840332031,1582.9165394306183
D4:22:CD:00:05:6E,58.74411392211914,42.7244987487793,74.56815338134766,-3.8843002319335938,26.29553985595703,-18.599048614501953,1582.9165394306183
D4:22:CD:00:05:5E,-102.0158462524414,-65.42138671875,-123.50316619873047,-4.903568267822266,-1.295506477355957,-0.1944894790649414,1582.9165394306183
D4:22:CD:00:05:5D,94.12096405029297,-73.34092712402344,-44.03928756713867,26.936100006103516,27.608871459960938,-2.7018938064575195,1582.9464316368103
D4:22:CD:00:05:6B,-24.122119903564453,-76.11337280273438,-104.65705108642578,-5.1547136306762695,0.9180173873901367,-1.6725854873657227,1582.9464316368103
D4:22:CD:00:49:AA,176.40013122558594,-79.8906478881836,94.99504089355469,5.231645584106445,-1.6652171611785889,0.2855958938598633,1582.9464316368103
D4:22:CD:00:05:6E,49.211185455322266,37.64455032348633,85.78374481201172,-10.917896270751953,-1.390826940536499,-14.176374435424805,1582.9464316368103
D4:22:CD:00:05:5E,-101.77293395996094,-63.17237854003906,-122.76859283447266,-6.143502235412598,1.8313889503479004,2.1629104614257812,1582.9464316368103
D4:22:CD:00:05:5D,114.20536804199219,-70.90901947021484,-58.241031646728516,5.689509391784668,-6.944287300109863,5.127695083618164,1583.0060522556305
D4:22:CD:00:05:6B,-0.26111602783203125,-78.02253723144531,-141.3370819091797,-5.075634002685547,4.528571128845215,1.4268550872802734,1583.0060522556305
D4:22:CD:00:49:AA,174.68734741210938,-80.38047790527344,97.65158081054688,7.793914794921875,0.10774008929729462,0.92645263671875,1583.0060522556305
D4:22:CD:00:05:6E,47.83982849121094,38.07215881347656,82.83292388916016,10.719856262207031,-8.16043472290039,-4.477068901062012,1583.0060522556305
D4:22:CD:00:05:5E,-95.72557830810547,-61.81708526611328,-128.30531311035156,-7.1628007888793945,-1.3507483005523682,2.4734058380126953,1583.0060522556305
D4:22:CD:00:05:5D,120.5222396850586,-72.45066833496094,-72.01612091064453,-0.4248194098472595,-10.113639831542969,4.411101341247559,1583.0365641117096
D4:22:CD:00:05:6B,30.849123001098633,-77.45751953125,179.9194793701172,-4.059303283691406,6.1175689697265625,9.35453987121582,1583.0365641117096
D4:22:CD:00:49:AA,173.98696899414062,-78.47134399414062,96.65567779541016,3.2543282508850098,0.9206029176712036,8.44894790649414,1583.0365641117096
D4:22:CD:00:05:6E,65.11358642578125,40.7071647644043,78.46206665039062,2.8688502311706543,3.1018805503845215,-3.8468270301818848,1583.0365641117096
D4:22:CD:00:05:5E,-85.23271942138672,-60.68978500366211,-138.13685607910156,-6.858931541442871,-4.677657127380371,4.180418014526367,1583.0365641117096
D4:22:CD:00:05:5D,132.9037628173828,-71.63980102539062,-82.3834457397461,-5.139830589294434,-0.6998382806777954,7.636041641235352,1583.066579580307
D4:22:CD:00:05:6B,55.33168411254883,-75.3413314819336,157.21511840820312,-6.686979293823242,8.526754379272461,11.065723419189453,1583.066579580307
D4:22:CD:00:49:AA,178.32211303710938,-78.36587524414062,92.74343872070312,-4.938109397888184,-1.6147563457489014,4.167363166809082,1583.066579580307
D4:22:CD:00:05:6E,75.4576644897461,42.941139221191406,74.38258361816406,-9.136760711669922,8.28774642944336,16.462921142578125,1583.066579580307
D4:22:CD:00:05:5E,-68.8758316040039,-59.20711135864258,-151.12991333007812,-6.76248836517334,-7.832451820373535,4.616262435913086,1583.066579580307
D4:22:CD:00:05:5D,146.31716918945312,-70.65345764160156,-90.66148376464844,-0.4156176447868347,3.9302144050598145,1.6033668518066406,1583.0965616703033
D4:22:CD:00:05:6B,74.31404113769531,-75.3307876586914,150.40234375,-6.03762149810791,4.750554084777832,5.384710311889648,1583.0965616703033
D4:22:CD:00:49:AA,-174.94398498535156,-78.06723022460938,91.00924682617188,-2.5889034271240234,-1.2911651134490967,-0.6415176391601562,1583.0965616703033
D4:22:CD:00:05:6E,67.13880920410156,46.855064392089844,62.35727310180664,-1.4025704860687256,6.391396522521973,-1.2026042938232422,1583.0965616703033
D4:22:CD:00:05:5E,-52.72886657714844,-56.34451675415039,-159.7288360595703,-18.09295654296875,7.761222839355469,-11.407146453857422,1583.0965616703033
D4:22:CD:00:05:5D,153.953125,-70.64907836914062,-97.87669372558594,1.440791130065918,0.6396453380584717,1.781559944152832,1583.1266424655914
D4:22:CD:00:05:6B,90.66915893554688,-78.44788360595703,149.71412658691406,-5.687960624694824,1.9145450592041016,3.891347885131836,1583.1266424655914
D4:22:CD:00:49:AA,-172.41632080078125,-76.87466430664062,90.6019058227539,-0.1442650854587555,1.8411064147949219,1.7394227981567383,1583.1266424655914
D4:22:CD:00:05:6E,57.58146667480469,51.427310943603516,40.63039779663086,2.3549628257751465,7.979265213012695,-8.636240005493164,1583.1266424655914
D4:22:CD:00:05:5E,-53.7102165222168,-56.58858871459961,-151.8988037109375,-25.322750091552734,1.1692092418670654,-11.94442367553711,1583.1266424655914
D4:22:CD:00:05:5D,160.097412109375,-71.21822357177734,-103.66099548339844,0.6865689754486084,1.4391582012176514,1.201584815979004,1583.1563630104065
D4:22:CD:00:05:6B,105.96700286865234,-83.49983215332031,148.1865234375,0.018480300903320312,-2.3005075454711914,2.6217041015625,1583.1563630104065
D4:22:CD:00:49:AA,-173.90444946289062,-76.02427673339844,92.59445190429688,-2.849001407623291,0.641085147857666,-1.568068504333496,1583.1563630104065
D4:22:CD:00:05:6E,46.36032485961914,52.55990982055664,13.623434066772461,-2.5088634490966797,5.4325666427612305,-5.65095329284668,1583.1563630104065
D4:22:CD:00:05:5E,-66.23026275634766,-58.4988899230957,-132.76901245117188,-21.903881072998047,-5.947333335876465,-2.9033055305480957,1583.1563630104065
D4:22:CD:00:05:5D,165.6078338623047,-72.48290252685547,-108.9682846069336,-1.0351359844207764,2.085057258605957,0.9145851135253906,1583.1863522529602
D4:22:CD:00:05:6B,147.99520874023438,-88.63685607910156,112.39024353027344,2.268342971801758,-2.63053560256958,-0.07058429718017578,1583.1863522529602
D4:22:CD:00:49:AA,-179.05165100097656,-74.5462646484375,97.36541748046875,-5.602020263671875,0.8841007947921753,0.06804084777832031,1583.1863522529602
D4:22:CD:00:05:6E,34.61271667480469,47.845977783203125,-12.714302062988281,-1.7348606586456299,3.1050658226013184,-8.098808288574219,1583.1863522529602
D4:22:CD:00:05:5E,-85.30403900146484,-58.97135543823242,-108.60780334472656,-10.097827911376953,-9.179723739624023,-1.182769775390625,1583.1863522529602
D4:22:CD:00:05:5D,171.6143341064453,-74.18399810791016,-115.82756805419922,-1.0536270141601562,0.6877193450927734,0.39694690704345703,1583.21635389328
D4:22:CD:00:05:6B,-85.32804107666016,-86.304931640625,-16.035568237304688,0.3852468729019165,-4.000371932983398,-2.744959831237793,1583.21635389328
D4:22:CD:00:49:AA,177.8953094482422,-73.4314956665039,101.14094543457031,-4.191798210144043,1.9565234184265137,1.3134698867797852,1583.21635389328
D4:22:CD:00:05:6E,26.58330535888672,39.147884368896484,-32.98836898803711,-0.8862571716308594,-9.210332870483398,-2.8288679122924805,1583.21635389328
D4:22:CD:00:05:5E,-105.07487487792969,-57.788368225097656,-85.67465209960938,-2.216590404510498,-8.569128036499023,-5.920535087585449,1583.21635389328
D4:22:CD:00:05:5D,178.5824432373047,-75.79244232177734,-124.5731201171875,0.03233516961336136,-0.4123561382293701,-0.09020423889160156,1583.245973110199
D4:22:CD:00:05:6B,-76.9805679321289,-83.04292297363281,-30.08101463317871,-3.8710241317749023,-4.10374641418457,-3.4270009994506836,1583.245973110199
D4:22:CD:00:49:AA,176.79319763183594,-72.95050811767578,102.77482604980469,-0.8556598424911499,0.37061238288879395,-0.016666412353515625,1583.245973110199
D4:22:CD:00:05:6E,29.407325744628906,31.13916778564453,-47.32689666748047,-9.454526901245117,-13.96603012084961,-3.0224814414978027,1583.245973110199
D4:22:CD:00:05:5E,-120.36572265625,-55.791778564453125,-67.59967041015625,1.1106750965118408,-4.815638542175293,-7.157033920288086,1583.245973110199
D4:22:CD:00:05:5D,-174.95892333984375,-76.76659393310547,-132.43630981445312,1.109734296798706,-1.1765336990356445,-0.33252811431884766,1583.30623960495
D4:22:CD:00:05:6B,-72.64251708984375,-80.96973419189453,-38.89459991455078,-4.2334442138671875,-2.750403881072998,-3.8128409385681152,1583.30623960495
D4:22:CD:00:49:AA,175.0659942626953,-72.75354766845703,104.84598541259766,-0.8265776634216309,0.5163649320602417,-1.035928726196289,1583.30623960495
D4:22:CD:00:05:6E,44.569759368896484,24.92560577392578,-55.46023178100586,-13.013387680053711,-5.292206764221191,-9.462263107299805,1583.30623960495
D4:22:CD:00:05:5E,-129.837890625,-53.98118209838867,-54.30309295654297,1.7695224285125732,-1.1025581359863281,-8.438909530639648,1583.30623960495
D4:22:CD:00:05:5D,-169.67523193359375,-77.23290252685547,-138.01580810546875,0.6239869594573975,-1.3189795017242432,-0.4802703857421875,1583.3357908725739
D4:22:CD:00:05:6B,-68.20117950439453,-79.78885650634766,-45.49655532836914,-2.3646254539489746,-1.5117979049682617,-3.0342960357666016,1583.3357908725739
D4:22:CD:00:49:AA,171.6269989013672,-72.81965637207031,108.99236297607422,-2.161886692047119,1.1156370639801025,-2.1898465156555176,1583.3357908725739
D4:22:CD:00:05:6E,65.00943756103516,18.25406837463379,-58.53353500366211,5.29170036315918,2.5032219886779785,-10.533292770385742,1583.3357908725739
D4:22:CD:00:05:5E,-137.58749389648438,-52.97699737548828,-43.98664474487305,1.3832676410675049,-1.189293384552002,-8.466970443725586,1583.3357908725739
D4:22:CD:00:05:5D,-165.2015838623047,-77.1957015991211,-141.62661743164062,-0.6289926767349243,-1.0901157855987549,-0.4032258987426758,1583.3660802841187
D4:22:CD:00:05:6B,-63.537193298339844,-78.80854034423828,-51.11878204345703,-1.5078082084655762,-0.8139288425445557,-2.57609224319458,1583.3660802841187
D4:22:CD:00:49:AA,166.05357360839844,-72.81958770751953,115.44554901123047,-2.8322372436523438,0.7828534841537476,-2.083125114440918,1583.3660802841187
D4:22:CD:00:05:6E,79.82679748535156,11.65563678741455,-60.372867584228516,15.481620788574219,5.68060302734375,4.395306587219238,1583.3660802841187
D4:22:CD:00:05:5E,-146.48342895507812,-53.296932220458984,-34.975181579589844,0.2690490484237671,-3.440880298614502,-7.287508964538574,1583.3660802841187
D4:22:CD:00:05:5D,-162.5055389404297,-76.48771667480469,-142.88616943359375,-0.6721959114074707,-1.394927978515625,-0.6254482269287109,1583.3965992927551
D4:22:CD:00:05:6B,-57.74288558959961,-77.34681701660156,-56.94921112060547,-1.335801362991333,-0.5441478490829468,-1.4514875411987305,1583.3965992927551
D4:22:CD:00:49:AA,158.319580078125,-72.81205749511719,123.88899230957031,-2.462606906890869,0.5889407396316528,-1.7672386169433594,1583.3965992927551
D4:22:CD:00:05:6E,85.29544067382812,5.179238796234131,-62.83856201171875,4.972947120666504,2.6692633628845215,-0.5686178207397461,1583.3965992927551
D4:22:CD:00:05:5E,-156.65914916992188,-55.41903305053711,-26.339879989624023,1.262970209121704,-4.063549995422363,-3.665646553039551,1583.3965992927551
D4:22:CD:00:05:5D,-164.29571533203125,-74.97054290771484,-140.33834838867188,-0.33571040630340576,-1.609257698059082,-1.3779287338256836,1583.4266247749329
D4:22:CD:00:05:6B,-50.92985153198242,-74.75926208496094,-63.35470962524414,-1.5037508010864258,-1.2325541973114014,-0.8687763214111328,1583.4266247749329
D4:22:CD:00:49:AA,149.70619201660156,-72.44369506835938,132.293701171875,-0.013743363320827484,0.9044004678726196,-2.6511435508728027,1583.4266247749329
D4:22:CD:00:05:6E,88.56798553466797,-2.4901211261749268,-64.84555053710938,4.255936622619629,0.739901065826416,-4.285362243652344,1583.4266247749329
D4:22:CD:00:05:5E,-166.03045654296875,-59.95174026489258,-18.093183517456055,7.7271270751953125,-4.297825813293457,-1.928706169128418,1583.4266247749329
D4:22:CD:00:05:5D,-170.1912384033203,-72.25125885009766,-134.62802124023438,0.21774810552597046,-4.2509307861328125,-0.7683906555175781,1583.456274986267
D4:22:CD:00:05:6B,-45.976470947265625,-70.979736328125,-68.2830581665039,-1.5823004245758057,-1.3338372707366943,-1.9056825637817383,1583.456274986267
D4:22:CD:00:49:AA,142.061279296875,-71.8011474609375,139.21255493164062,-0.6647228002548218,-0.19078069925308228,-2.1316795349121094,1583.456274986267
D4:22:CD:00:05:6E,90.68758392333984,-13.419636726379395,-66.02323150634766,5.8227081298828125,-1.6842739582061768,-0.3307304382324219,1583.456274986267
D4:22:CD:00:05:5E,-170.4866485595703,-65.50162506103516,-14.007896423339844,-15.240047454833984,19.12118911743164,17.418865203857422,1583.456274986267
D4:22:CD:00:05:5D,-175.6492156982422,-68.44446563720703,-127.96788787841797,1.935107946395874,-2.842273712158203,-2.460055351257324,1583.4862756729126
D4:22:CD:00:05:6B,-44.57466125488281,-66.6209945678711,-70.68965911865234,-2.47267484664917,0.2233107089996338,-1.851975440979004,1583.4862756729126
D4:22:CD:00:49:AA,135.81362915039062,-71.50346374511719,145.71510314941406,-2.843294143676758,-1.3216776847839355,-3.823843002319336,1583.4862756729126
D4:22:CD:00:05:6E,86.2020492553711,-26.9324951171875,-66.21532440185547,4.97801399230957,-3.710360050201416,10.246137619018555,1583.4862756729126
D4:22:CD:00:05:5E,-166.18988037109375,-66.19188690185547,-17.313154220581055,-0.9762545824050903,-1.2759935855865479,2.8976688385009766,1583.4862756729126
D4:22:CD:00:05:5D,-178.5310516357422,-64.46577453613281,-122.15959930419922,0.13525864481925964,3.093207836151123,1.2815170288085938,1583.5163736343384
D4:22:CD:00:05:6B,-45.60201644897461,-61.92381286621094,-70.81180572509766,-3.2489066123962402,1.3067102432250977,-0.9770107269287109,1583.5163736343384
D4:22:CD:00:49:AA,131.56056213378906,-71.34558868408203,151.69479370117188,-4.708026885986328,0.08856320381164551,-3.5108108520507812,1583.5163736343384
D4:22:CD:00:05:6E,66.43932342529297,-40.34730529785156,-60.58311462402344,5.239498138427734,-14.594339370727539,23.071552276611328,1583.5163736343384
D4:22:CD:00:05:5E,-169.1931610107422,-65.58134460449219,-17.996448516845703,3.616030216217041,-6.572272300720215,6.928691864013672,1583.5163736343384
D4:22:CD:00:05:5D,178.81619262695312,-61.020240783691406,-118.17372131347656,0.37342774868011475,0.8206183910369873,1.2929363250732422,1583.5459661483765
D4:22:CD:00:05:6B,-48.17927932739258,-56.81206512451172,-68.98262023925781,-5.623230934143066,4.068699836730957,2.202286720275879,1583.5459661483765
D4:22:CD:00:49:AA,127.06071472167969,-71.36695098876953,157.9506072998047,2.070242404937744,4.3194074630737305,0.8602237701416016,1583.5459661483765
D4:22:CD:00:05:6E,42.53403854370117,-44.38716506958008,-50.55393981933594,8.17367935180664,-18.32158660888672,16.98480987548828,1583.5459661483765
D4:22:CD:00:05:5E,-174.33180236816406,-63.36246871948242,-18.4689884185791,10.972806930541992,1.2443225383758545,11.40969467163086,1583.5459661483765
D4:22:CD:00:05:5D,177.52279663085938,-58.63695526123047,-115.93222045898438,-2.5056872367858887,3.2636094093322754,2.5591936111450195,1583.6066100597382
D4:22:CD:00:05:6B,-48.41341781616211,-50.390377044677734,-65.25857543945312,-8.04638671875,6.533621788024902,11.80726432800293,1583.6066100597382
D4:22:CD:00:49:AA,125.66160583496094,-71.72958374023438,160.19935607910156,5.968052864074707,1.4233505725860596,7.239921569824219,1583.6066100597382
D4:22:CD:00:05:6E,38.34822082519531,-41.68046569824219,-53.640872955322266,-3.8196558952331543,-24.137771606445312,5.101436614990234,1583.6066100597382
D4:22:CD:00:05:5E,-171.4959716796875,-62.441829681396484,-18.43808937072754,7.159765243530273,-7.2437543869018555,7.481166839599609,1583.6066100597382
D4:22:CD:00:05:5D,176.81541442871094,-57.56016159057617,-115.09595489501953,-0.571774959564209,1.9754250049591064,1.5635910034179688,1583.6365826129913
D4:22:CD:00:05:6B,-46.007991790771484,-42.713531494140625,-59.05598068237305,-2.0733137130737305,5.218189239501953,11.65894889831543,1583.6365826129913
D4:22:CD:00:49:AA,124.40823364257812,-72.11943054199219,160.41831970214844,-2.907320499420166,-0.4408133625984192,7.123497009277344,1583.6365826129913
D4:22:CD:00:05:6E,53.29373550415039,-36.441341400146484,-58.71419143676758,2.095271110534668,-21.557537078857422,-5.010322570800781,1583.6365826129913
D4:22:CD:00:05:5E,-168.2084503173828,-58.91883850097656,-17.830312728881836,3.556415557861328,-8.056480407714844,10.693099975585938,1583.6365826129913
