Device,EulerX,EulerY,EulerZ,FreeAccX,FreeAccY,FreeAccZ,Timestamp
D4:22:CD:00:05:5D,176.26126098632812,-53.96977233886719,29.983779907226562,-1.4949979782104492,0.13256394863128662,2.904125213623047,2470.4100952148438
D4:22:CD:00:05:6B,-24.119064331054688,3.3823800086975098,-20.61384391784668,-11.79865837097168,1.184096336364746,8.123437881469727,2470.4100952148438
D4:22:CD:00:49:AA,133.2345733642578,-70.58068084716797,151.18833923339844,-3.563180446624756,0.46850502490997314,10.670310974121094,2470.4100952148438
D4:22:CD:00:05:6E,107.4298095703125,-53.448787689208984,60.57515335083008,1.842587947845459,7.852557182312012,13.137544631958008,2470.4100952148438
D4:22:CD:00:05:5E,-98.83313751220703,-71.42729949951172,-78.24898529052734,10.643917083740234,-3.502915382385254,8.00390625,2470.4100952148438
D4:22:CD:00:05:5D,176.29541015625,-56.4885139465332,29.895915985107422,-2.5349807739257812,1.132079839706421,3.062549591064453,2470.4130952358246
D4:22:CD:00:05:6B,-8.631512641906738,0.00048035444342531264,-14.55635929107666,-6.983153343200684,-2.166195869445801,4.600132942199707,2470.4130952358246
D4:22:CD:00:49:AA,136.85902404785156,-73.07752227783203,150.01100158691406,-2.71441650390625,1.755948543548584,9.363168716430664,2470.4130952358246
D4:22:CD:00:05:6E,106.18968963623047,-53.733055114746094,71.2253189086914,1.2407660484313965,2.582883834838867,11.2393798828125,2470.4130952358246
D4:22:CD:00:05:5E,-30.69401741027832,-71.39068603515625,-146.9221954345703,-6.651059150695801,-7.52170467376709,22.967342376708984,2470.4130952358246
D4:22:CD:00:05:5D,175.01287841796875,-60.81543731689453,31.74155616760254,-1.015864372253418,0.370485782623291,4.01486873626709,2470.4160985946655
D4:22:CD:00:05:6B,5.32105827331543,-3.77704119682312,-14.196168899536133,-3.8153648376464844,-1.7953035831451416,-1.5121488571166992,2470.4160985946655
D4:22:CD:00:49:AA,144.1499481201172,-76.26426696777344,145.74160766601562,-2.41573429107666,0.7104882001876831,3.8806982040405273,2470.4160985946655
D4:22:CD:00:05:6E,103.84712982177734,-57.41420364379883,85.52764129638672,-4.197397232055664,-3.3619847297668457,7.977628707885742,2470.4160985946655
D4:22:CD:00:05:5E,-9.273677825927734,-59.1916618347168,-175.8444366455078,-24.557392120361328,-1.5349016189575195,5.595726013183594,2470.4160985946655
D4:22:CD:00:49:AA,157.912353515625,-78.50260162353516,135.5579071044922,-5.0212812423706055,-0.1835271418094635,-4.372894287109375,2470.419097185135
D4:22:CD:00:05:6E,98.32766723632812,-61.30514907836914,105.166748046875,-7.677968978881836,-10.58243179321289,-1.062912940979004,2470.419097185135
D4:22:CD:00:05:5E,-14.794135093688965,-51.672828674316406,178.7073516845703,-23.378509521484375,22.16185760498047,-26.876285552978516,2470.419097185135
D4:22:CD:00:05:5D,174.7513427734375,-48.34136199951172,-109.64483642578125,6.523533821105957,-2.882582664489746,2.246914863586426,2470.4210996627808
D4:22:CD:00:05:6B,-59.618160247802734,26.897348403930664,-61.50351333618164,9.238983154296875,-2.044433116912842,14.348020553588867,2470.4210996627808
D4:22:CD:00:49:AA,171.93272399902344,-78.11512756347656,126.1021499633789,-3.3040618896484375,-2.6681771278381348,-9.445724487304688,2470.4210996627808
D4:22:CD:00:05:5D,-171.33786010742188,-45.4544792175293,-119.0334243774414,-2.6520824432373047,2.8873085975646973,0.8945684432983398,2470.4946551322937
D4:22:CD:00:05:6B,-40.65470886230469,23.746232986450195,-49.0771369934082,0.880744218826294,-7.101292610168457,16.090282440185547,2470.4946551322937
D4:22:CD:00:49:AA,134.78843688964844,-64.50047302246094,156.89468383789062,-5.356851577758789,-2.36044979095459,10.84646224975586,2470.4946551322937
D4:22:CD:00:05:6E,-59.07938766479492,-64.11865997314453,-155.5623321533203,-15.101083755493164,-2.21877384185791,17.528831481933594,2470.4946551322937
D4:22:CD:00:05:5E,158.06130981445312,-72.68242645263672,-7.423047065734863,-2.8345656394958496,3.129861354827881,10.60544204711914,2470.4946551322937
D4:22:CD:00:05:5D,-169.5144500732422,-44.139495849609375,-119.20390319824219,-0.8472076654434204,0.10071359574794769,1.1446123123168945,2470.524653196335
D4:22:CD:00:05:6B,-31.639469146728516,22.89840316772461,-36.73023986816406,8.763357162475586,-2.802402973175049,17.926151275634766,2470.524653196335
D4:22:CD:00:49:AA,149.05397033691406,-70.03863525390625,142.5341796875,-1.9814610481262207,-0.7782469987869263,7.506139755249023,2470.524653196335
D4:22:CD:00:05:6E,-52.857177734375,-75.45735168457031,-150.86453247070312,-23.64220428466797,-9.925445556640625,14.226112365722656,2470.524653196335
D4:22:CD:00:05:5E,176.04051208496094,-61.78714370727539,-31.26128387451172,1.9755589962005615,5.351997375488281,5.924935340881348,2470.524653196335
D4:22:CD:00:05:5D,-168.17213439941406,-45.338436126708984,-118.93499755859375,-7.646522521972656,-0.45740586519241333,2.5910701751708984,2470.554668903351
D4:22:CD:00:05:6B,-17.17764663696289,22.806385040283203,-21.521400451660156,2.9310293197631836,-2.9814915657043457,16.000728607177734,2470.554668903351
D4:22:CD:00:49:AA,169.29531860351562,-71.34517669677734,120.92339324951172,1.5528900623321533,-0.11730317771434784,7.652809143066406,2470.554668903351
D4:22:CD:00:05:6E,153.1046142578125,-71.51311492919922,19.014598846435547,-7.716163635253906,-12.80784797668457,13.613685607910156,2470.554668903351
D4:22:CD:00:05:5E,-169.91018676757812,-55.94099044799805,-47.3996467590332,0.2306486964225769,5.745866775512695,1.616145133972168,2470.554668903351
D4:22:CD:00:05:5D,-167.79534912109375,-48.092044830322266,-119.08262634277344,-4.36557674407959,1.4957849979400635,1.854435920715332,2470.615205526352
D4:22:CD:00:05:6B,-1.6206960678100586,22.533966064453125,-8.50459098815918,-0.6364614963531494,-4.049064636230469,11.175201416015625,2470.615205526352
D4:22:CD:00:49:AA,175.1043701171875,-71.38285827636719,114.35984802246094,-3.5132384300231934,-0.5440216064453125,9.469669342041016,2470.615205526352
D4:22:CD:00:05:6E,157.24493408203125,-54.54454040527344,24.859663009643555,1.1860520839691162,-11.077264785766602,6.16495418548584,2470.615205526352
D4:22:CD:00:05:5E,-157.87989807128906,-51.88237380981445,-59.19168472290039,2.4695401191711426,3.1045002937316895,-4.481781959533691,2470.615205526352
D4:22:CD:00:05:5D,-168.2088623046875,-51.80824661254883,-119.88400268554688,-0.9753398895263672,0.10836668312549591,4.016050338745117,2470.644192457199
D4:22:CD:00:05:6B,10.731985092163086,22.285945892333984,0.12763340771198273,-4.028877258300781,-6.911184310913086,3.1620054244995117,2470.644192457199
D4:22:CD:00:49:AA,-175.02723693847656,-73.92996215820312,103.96299743652344,-2.973661422729492,0.10094068944454193,6.441371917724609,2470.644192457199
D4:22:CD:00:05:6E,170.53916931152344,-49.24555206298828,27.378427505493164,9.54153823852539,-5.94056510925293,1.4199199676513672,2470.644192457199
D4:22:CD:00:05:5E,-143.54161071777344,-51.443206787109375,-72.37823486328125,12.252388000488281,0.6137374639511108,-13.279468536376953,2470.644192457199
D4:22:CD:00:05:5D,-168.64576721191406,-57.72780227661133,-121.4021224975586,1.0813758373260498,-3.385218620300293,5.867889404296875,2470.6747415065765
D4:22:CD:00:05:6B,19.829023361206055,23.263132095336914,4.332366943359375,-3.808749198913574,-7.225552558898926,-3.562991142272949,2470.6747415065765
D4:22:CD:00:49:AA,-162.5042724609375,-75.83635711669922,91.83248901367188,1.2013235092163086,2.092756748199463,1.116119384765625,2470.6747415065765
D4:22:CD:00:05:6E,-175.047607421875,-51.36738586425781,29.642467498779297,4.622003555297852,-11.994098663330078,-6.99642276763916,2470.6747415065765
D4:22:CD:00:05:5E,-121.79605865478516,-53.821468353271484,-93.83091735839844,17.290096282958984,-4.475471496582031,-16.317516326904297,2470.6747415065765
D4:22:CD:00:05:5D,-173.37399291992188,-65.78087615966797,-122.47518157958984,1.2620294094085693,1.4352447986602783,3.529025077819824,2470.704749107361
D4:22:CD:00:05:6B,25.449981689453125,25.150339126586914,6.118999481201172,-2.3550472259521484,-5.03908634185791,-7.261923789978027,2470.704749107361
D4:22:CD:00:49:AA,-153.24407958984375,-76.6838607788086,84.50232696533203,2.7943034172058105,1.6715757846832275,-3.6212258338928223,2470.704749107361
D4:22:CD:00:05:6E,-165.61105346679688,-54.742645263671875,33.11430740356445,4.2314043045043945,-8.685646057128906,-11.749637603759766,2470.704749107361
D4:22:CD:00:05:5E,-92.49327087402344,-54.11974334716797,-126.67461395263672,7.859391212463379,-7.439070701599121,-8.0836181640625,2470.704749107361
D4:22:CD:00:05:5D,-176.00282287597656,-68.86170196533203,-116.60061645507812,1.1471610069274902,3.9523258209228516,-0.3415336608886719,2470.7347490787506
D4:22:CD:00:05:6B,30.61111831665039,27.617279052734375,5.779263496398926,-2.4139018058776855,-2.805236339569092,-8.40986442565918,2470.7347490787506
D4:22:CD:00:49:AA,-146.97213745117188,-77.62012481689453,79.58793640136719,-1.3268897533416748,0.12348476052284241,-8.210870742797852,2470.7347490787506
D4:22:CD:00:05:6E,-153.67169189453125,-58.67829132080078,35.951412200927734,3.2701549530029297,-7.369950294494629,-13.825742721557617,2470.7347490787506
D4:22:CD:00:05:5E,-64.07276153564453,-47.26246643066406,-161.47555541992188,-18.370014190673828,-4.894773483276367,1.9756755828857422,2470.7347490787506
D4:22:CD:00:05:5D,-178.7422637939453,-65.16055297851562,-106.30685424804688,3.2381820678710938,1.6703226566314697,-3.039018154144287,2470.7642953395844
D4:22:CD:00:05:6B,35.319576263427734,31.241573333740234,2.2737810611724854,-1.9942688941955566,2.2595505714416504,-7.972413063049316,2470.7642953395844
D4:22:CD:00:49:AA,-138.74667358398438,-78.83838653564453,72.81059265136719,-0.03275301307439804,-0.34440696239471436,-10.240341186523438,2470.7642953395844
D4:22:CD:00:05:6E,-140.32022094726562,-62.23811340332031,37.140201568603516,9.41511344909668,-7.393179893493652,-14.025171279907227,2470.7642953395844
D4:22:CD:00:05:5E,-50.99794387817383,-37.72904968261719,174.16746520996094,-43.089393615722656,5.032876968383789,-7.065694808959961,2470.7642953395844
D4:22:CD:00:05:5D,-179.7496795654297,-62.74431228637695,-100.16051483154297,1.055236577987671,-11.482330322265625,-16.090900421142578,2470.795284509659
D4:22:CD:00:05:6B,36.12557601928711,35.95027160644531,-6.50295352935791,-0.3993344306945801,11.240236282348633,-4.789831161499023,2470.795284509659
D4:22:CD:00:49:AA,-127.10125732421875,-80.52496337890625,62.0947380065918,1.8942971229553223,1.2792882919311523,-9.822004318237305,2470.795284509659
D4:22:CD:00:05:6E,-137.5720672607422,-64.90160369873047,37.432254791259766,7.545403480529785,-1.524906873703003,-12.00326156616211,2470.795284509659
D4:22:CD:00:05:5E,-49.898860931396484,-33.38792419433594,159.6252899169922,-18.422611236572266,25.321834564208984,-15.342405319213867,2470.795284509659
D4:22:CD:00:05:5D,-176.29275512695312,-64.03185272216797,-99.76892852783203,0.6086471080780029,9.74350357055664,4.978046417236328,2470.8243021965027
D4:22:CD:00:05:6B,29.7109375,40.752967834472656,-22.949752807617188,2.9036264419555664,11.37887954711914,-4.543759346008301,2470.8243021965027
D4:22:CD:00:49:AA,-116.37272644042969,-81.8438491821289,53.39746856689453,-1.2118134498596191,-0.24158576130867004,-8.069280624389648,2470.8243021965027
D4:22:CD:00:05:6E,-139.31884765625,-67.27698516845703,39.142398834228516,6.271331787109375,-1.3825781345367432,-9.20051383972168,2470.8243021965027
D4:22:CD:00:05:5E,-34.894222259521484,-32.03340148925781,155.37445068359375,-7.620163917541504,18.913578033447266,-25.404441833496094,2470.8243021965027
D4:22:CD:00:05:5D,-174.8349151611328,-63.58765411376953,-98.72877502441406,0.1668531894683838,-0.5452849864959717,-4.493782997131348,2470.8543071746826
D4:22:CD:00:05:6B,13.795326232910156,42.271331787109375,-46.98844909667969,4.096925735473633,0.8673006296157837,-15.297101974487305,2470.8543071746826
D4:22:CD:00:49:AA,-109.16365051269531,-82.58450317382812,48.693397521972656,-0.16428670287132263,-0.9098801612854004,-4.077737808227539,2470.8543071746826
D4:22:CD:00:05:6E,-142.5707244873047,-68.10753631591797,41.44729232788086,8.374786376953125,-2.060924530029297,-5.095396041870117,2470.8543071746826
D4:22:CD:00:05:5E,-31.32575035095215,-37.035804748535156,161.2816925048828,-14.818290710449219,2.0852880477905273,-19.261672973632812,2470.8543071746826
D4:22:CD:00:05:5D,-174.5807647705078,-62.71879959106445,-96.73330688476562,-1.0887620449066162,-3.7152228355407715,1.320688247680664,2470.914844274521
D4:22:CD:00:05:6B,-4.403995513916016,37.46298599243164,-74.05017852783203,3.747002601623535,-22.7171630859375,-32.130210876464844,2470.914844274521
D4:22:CD:00:49:AA,-103.08253479003906,-83.0965805053711,42.53761291503906,2.4520134925842285,0.24172401428222656,-0.5983943939208984,2470.914844274521
D4:22:CD:00:05:6E,-145.70040893554688,-66.59158325195312,41.19094467163086,11.045186996459961,1.131025791168213,-0.3506031036376953,2470.914844274521
D4:22:CD:00:05:5E,-41.908287048339844,-46.1776123046875,173.4004669189453,-19.513343811035156,2.7171006202697754,-8.210330963134766,2470.914844274521
D4:22:CD:00:05:5D,-174.1811981201172,-62.33585739135742,-92.8155288696289,-1.2106163501739502,-5.038944244384766,2.6629867553710938,2470.9448449611664
D4:22:CD:00:05:6B,-7.341134548187256,33.54303741455078,-93.7870864868164,-11.232305526733398,-2.28045654296875,-15.817264556884766,2470.9448449611664
D4:22:CD:00:49:AA,-99.87444305419922,-83.66333770751953,37.555789947509766,-1.6830966472625732,-5.12888240814209,3.8175344467163086,2470.9448449611664
D4:22:CD:00:05:6E,-146.4154510498047,-63.571842193603516,40.016483306884766,12.949220657348633,4.221469879150391,4.181469917297363,2470.9448449611664
D4:22:CD:00:05:5E,-74.12393188476562,-56.249656677246094,-165.11961364746094,-15.084251403808594,-2.3792572021484375,-5.988002777099609,2470.9448449611664
D4:22:CD:00:05:5D,-175.64068603515625,-62.15394973754883,-88.62154388427734,-0.22276374697685242,-2.4499311447143555,6.214944839477539,2470.9753878116608
D4:22:CD:00:05:6B,-25.33592987060547,34.214447021484375,-86.49559020996094,4.278413772583008,16.84005355834961,-7.466036796569824,2470.9753878116608
D4:22:CD:00:49:AA,-103.47699737548828,-83.58069610595703,40.823158264160156,-1.0738003253936768,-0.3701298236846924,10.224681854248047,2470.9753878116608
D4:22:CD:00:05:6E,-146.32229614257812,-59.89240646362305,40.846553802490234,12.514039993286133,6.8185625076293945,1.889918327331543,2470.9753878116608
D4:22:CD:00:05:5E,-109.95321655273438,-59.36891174316406,-140.2079620361328,-1.452678918838501,4.376501083374023,10.991962432861328,2470.9753878116608
D4:22:CD:00:05:5D,-179.51016235351562,-62.89870834350586,-85.28759002685547,-3.681793689727783,-1.6485722064971924,5.163293838500977,2471.005380630493
D4:22:CD:00:05:6B,-31.536653518676758,37.38214111328125,-68.54681396484375,-15.586311340332031,-29.560253143310547,0.009647369384765625,2471.005380630493
D4:22:CD:00:49:AA,-103.72807312011719,-83.53267669677734,40.40419387817383,0.9288206100463867,0.07254716753959656,2.751527786254883,2471.005380630493
D4:22:CD:00:05:6E,-151.20799255371094,-55.7376708984375,42.15549087524414,15.378511428833008,1.501537799835205,-3.144174098968506,2471.005380630493
D4:22:CD:00:05:5E,-110.07249450683594,-60.763877868652344,-137.58079528808594,-6.733503341674805,-8.993776321411133,-6.585444450378418,2471.005380630493
D4:22:CD:00:05:5D,175.62234497070312,-64.85270690917969,-82.05939483642578,-0.5951986312866211,-2.331766128540039,3.499081611633301,2471.0343899726868
D4:22:CD:00:05:6B,-16.599321365356445,35.89896774291992,-51.11634063720703,-2.205817222595215,-9.461078643798828,-15.285707473754883,2471.0343899726868
D4:22:CD:00:49:AA,-108.77849578857422,-83.67863464355469,43.31623840332031,0.2681623101234436,0.6336272954940796,1.4620685577392578,2471.0343899726868
D4:22:CD:00:05:6E,-165.47996520996094,-50.82307815551758,45.11381149291992,4.3808794021606445,7.452075958251953,-3.3368935585021973,2471.0343899726868
D4:22:CD:00:05:5E,-115.18842315673828,-63.57946014404297,-134.7266082763672,0.919861912727356,-3.5812315940856934,5.745170593261719,2471.0343899726868
D4:22:CD:00:05:5D,167.67047119140625,-67.86089324951172,-77.71829223632812,0.14276644587516785,-3.0793728828430176,1.2566165924072266,2471.0650248527527
D4:22:CD:00:05:6B,-6.642081260681152,30.234601974487305,-36.323482513427734,-3.560807228088379,-6.989408493041992,-3.208252429962158,2471.0650248527527
D4:22:CD:00:49:AA,-119.02915954589844,-83.42257690429688,50.102867126464844,1.4044981002807617,-0.03893483430147171,-0.12217521667480469,2471.0650248527527
D4:22:CD:00:05:6E,-166.30029296875,-49.219608306884766,45.75706100463867,15.005781173706055,10.569568634033203,-10.867603302001953,2471.0650248527527
D4:22:CD:00:05:5E,-120.2374496459961,-64.8041000366211,-132.3934326171875,-3.048980236053467,-1.9371025562286377,-2.77923583984375,2471.0650248527527
D4:22:CD:00:05:5D,154.72509765625,-69.0606918334961,-72.28366088867188,7.744227409362793,-1.812864065170288,-2.6675190925598145,2471.0941162109375
D4:22:CD:00:05:6B,1.2502000331878662,22.61827850341797,-26.292104721069336,-2.438960552215576,2.395193099975586,-5.584664344787598,2471.0941162109375
D4:22:CD:00:49:AA,-138.0404815673828,-82.12620544433594,63.25996398925781,5.1798906326293945,-2.348987102508545,-6.240865707397461,2471.0941162109375
D4:22:CD:00:05:6E,-178.21641540527344,-48.85543441772461,46.41544723510742,0.41392868757247925,2.3426990509033203,-10.908880233764648,2471.0941162109375
D4:22:CD:00:05:5E,-127.40876770019531,-64.90731811523438,-127.0354995727539,-9.047374725341797,-7.838654518127441,-5.276792526245117,2471.0941162109375
D4:22:CD:00:05:5D,146.4418487548828,-66.56537628173828,-72.70475769042969,6.39199161529541,13.102483749389648,5.345337867736816,2471.125116586685
D4:22:CD:00:05:6B,0.7779159545898438,13.801548957824707,-17.506649017333984,-1.6404871940612793,4.313342094421387,-8.660022735595703,2471.125116586685
D4:22:CD:00:49:AA,-156.72271728515625,-80.2654037475586,76.40156555175781,4.647495269775391,-2.004897117614746,-8.3253173828125,2471.125116586685
D4:22:CD:00:05:6E,174.29180908203125,-48.04465103149414,49.205848693847656,-1.22261381149292,-0.030790474265813828,-4.456730842590332,2471.125116586685
D4:22:CD:00:05:5E,-135.78076171875,-62.78141784667969,-120.42389678955078,-5.028746604919434,-4.331610679626465,4.296796798706055,2471.125116586685
D4:22:CD:00:05:5D,144.00823974609375,-59.035518646240234,-81.16101837158203,12.234317779541016,11.314554214477539,13.542972564697266,2471.155138731003
D4:22:CD:00:05:6B,-3.8134171962738037,4.743722915649414,-9.403255462646484,1.5774075984954834,8.945104598999023,-8.412374496459961,2471.155138731003
D4:22:CD:00:49:AA,-163.7489776611328,-78.47949981689453,79.97511291503906,-1.9845268726348877,-1.5229127407073975,-1.739105224609375,2471.155138731003
D4:22:CD:00:05:6E,172.59461975097656,-47.77098083496094,52.165931701660156,-3.16933536529541,2.9266467094421387,1.1277885437011719,2471.155138731003
D4:22:CD:00:05:5E,-141.9687957763672,-58.83610534667969,-114.93689727783203,-3.381194591522217,-0.20162364840507507,0.09472274780273438,2471.155138731003
D4:22:CD:00:05:5D,144.5111083984375,-48.083526611328125,-90.73590087890625,10.046154022216797,3.198556900024414,4.498520851135254,2471.214817047119
D4:22:CD:00:05:6B,-18.57002067565918,-1.994102954864502,-2.9384350776672363,1.7049102783203125,17.42007064819336,-8.095600128173828,2471.214817047119
D4:22:CD:00:49:AA,-161.53346252441406,-77.95465850830078,77.09805297851562,-4.126222610473633,0.03865499794483185,-1.7723617553710938,2471.214817047119
D4:22:CD:00:05:6E,173.7997283935547,-48.26658248901367,55.22443771362305,-1.5671546459197998,1.163254737854004,2.656827926635742,2471.214817047119
D4:22:CD:00:05:5E,-144.78140258789062,-56.30337142944336,-111.35891723632812,-3.7383437156677246,-2.109355926513672,0.5391883850097656,2471.214817047119
D4:22:CD:00:05:5D,145.8838348388672,-37.099037170410156,-99.33256530761719,5.741157531738281,-2.076723098754883,-5.06137752532959,2471.2449214458466
D4:22:CD:00:05:6B,-34.2342414855957,-5.417536735534668,-0.8619623184204102,-0.43843042850494385,2.002256393432617,5.696680068969727,2471.2449214458466
D4:22:CD:00:49:AA,-157.13119506835938,-77.57614135742188,74.76679992675781,1.7888121604919434,0.6173434257507324,0.8810958862304688,2471.2449214458466
D4:22:CD:00:05:6E,175.6979217529297,-48.831539154052734,58.55754089355469,4.067010879516602,4.324733734130859,4.672126770019531,2471.2449214458466
D4:22:CD:00:05:5E,-146.5245361328125,-54.46784591674805,-108.98584747314453,-4.658149719238281,-1.758526086807251,-0.23970794677734375,2471.2449214458466
D4:22:CD:00:05:5D,149.75074768066406,-27.199979782104492,-105.62555694580078,0.3030484914779663,-0.11408372223377228,-11.662450790405273,2471.2744722366333
D4:22:CD:00:05:6B,-40.725990295410156,-8.760175704956055,-3.1756796836853027,-5.6546783447265625,8.39011001586914,2.043429374694824,2471.2744722366333
D4:22:CD:00:49:AA,-156.04107666015625,-77.7330551147461,75.28485870361328,10.42213249206543,2.7374682426452637,4.808055877685547,2471.2744722366333
D4:22:CD:00:05:6E,177.75086975097656,-48.8033561706543,62.930850982666016,5.497061729431152,4.144104957580566,1.6651725769042969,2471.2744722366333
D4:22:CD:00:05:5E,-148.13365173339844,-53.2060661315918,-107.37133026123047,-3.5976381301879883,-2.4857120513916016,-0.11004161834716797,2471.2744722366333
D4:22:CD:00:05:5D,155.3872833251953,-19.054319381713867,-110.24974822998047,1.1500489711761475,1.6247444152832031,-11.734367370605469,2471.3045620918274
D4:22:CD:00:05:6B,-47.708152770996094,-13.552300453186035,-6.320359706878662,-6.382198333740234,4.21730899810791,-1.499587059020996,2471.3045620918274
D4:22:CD:00:49:AA,-157.97332763671875,-78.72554779052734,77.1532211303711,6.088602066040039,3.807422161102295,-0.8404178619384766,2471.3045620918274
D4:22:CD:00:05:6E,177.67355346679688,-47.56623458862305,67.91749572753906,6.558622360229492,4.065542221069336,-1.0860404968261719,2471.3045620918274
D4:22:CD:00:05:5E,-148.72410583496094,-51.92705154418945,-106.09252166748047,-4.95936393737793,-2.3816614151000977,-2.897552967071533,2471.3045620918274
D4:22:CD:00:05:5D,160.7783660888672,-13.520345687866211,-114.37918853759766,-4.080185890197754,0.46509242057800293,-9.612661361694336,2471.3345646858215
D4:22:CD:00:05:6B,-53.25254821777344,-21.66801643371582,-6.955993175506592,-7.311399459838867,1.605161190032959,-5.01711368560791,2471.3345646858215
D4:22:CD:00:49:AA,-158.30995178222656,-79.41954040527344,76.86749267578125,0.40640532970428467,2.225484848022461,1.5168952941894531,2471.3345646858215
D4:22:CD:00:05:6E,174.46331787109375,-45.71233367919922,72.109130859375,7.352011680603027,3.389035224914551,-3.1008901596069336,2471.3345646858215
D4:22:CD:00:05:5E,-149.210693359375,-50.646392822265625,-104.90927124023438,-3.5000314712524414,-2.348841667175293,-0.3567008972167969,2471.3345646858215
D4:22:CD:00:05:5D,161.87045288085938,-12.10102367401123,-118.02422332763672,-5.162555694580078,0.4781460762023926,-9.739265441894531,2471.3651056289673
D4:22:CD:00:05:6B,-59.86979293823242,-35.247093200683594,-1.7305032014846802,0.027799129486083984,-0.8320013284683228,-6.487608909606934,2471.3651056289673
D4:22:CD:00:49:AA,-155.20285034179688,-79.99076080322266,74.43496704101562,1.623713493347168,-0.004215900786221027,1.2826271057128906,2471.3651056289673
D4:22:CD:00:05:6E,168.65135192871094,-44.06877136230469,75.21942901611328,9.048175811767578,2.1743950843811035,-5.207799911499023,2471.3651056289673
D4:22:CD:00:05:5E,-149.912109375,-48.79291915893555,-104.45555877685547,-5.533551216125488,-2.169081211090088,-3.272327423095703,2471.3651056289673
D4:22:CD:00:05:5D,159.25726318359375,-14.655069351196289,-121.43546295166016,-7.06689453125,-2.4785008430480957,-10.313924789428711,2471.395104408264
D4:22:CD:00:05:6B,-68.6146469116211,-54.28755187988281,13.201288223266602,7.9379472732543945,0.6569795608520508,8.676769256591797,2471.395104408264
D4:22:CD:00:49:AA,-149.8995361328125,-80.87887573242188,70.11622619628906,5.01695442199707,0.7542916536331177,-3.889824867248535,2471.395104408264
D4:22:CD:00:05:6E,160.73892211914062,-42.25528335571289,79.612060546875,10.702978134155273,0.09032627940177917,-0.08364391326904297,2471.395104408264
D4:22:CD:00:05:5E,-150.70632934570312,-46.920074462890625,-104.43656158447266,-3.817225456237793,-2.065476894378662,0.23113727569580078,2471.395104408264
D4:22:CD:00:05:5D,153.54551696777344,-21.42730140686035,-124.17771911621094,-10.937215805053711,-7.06144905090332,-10.011354446411133,2471.425096511841
D4:22:CD:00:05:6B,-81.0917739868164,-75.12871551513672,39.96062469482422,3.4781293869018555,26.947490692138672,58.32141876220703,2471.425096511841
D4:22:CD:00:49:AA,-145.6679229736328,-81.71605682373047,65.02371215820312,8.031017303466797,2.5041184425354004,0.08099651336669922,2471.425096511841
D4:22:CD:00:05:6E,145.41098022460938,-37.6598014831543,87.22010040283203,20.770435333251953,7.503819465637207,11.906368255615234,2471.425096511841
D4:22:CD:00:05:5E,-151.23486328125,-46.25339889526367,-104.19861602783203,-4.973366737365723,-1.4510927200317383,0.3811349868774414,2471.425096511841
D4:22:CD:00:05:5D,152.73175048828125,-29.686317443847656,-126.07701873779297,5.6016645431518555,-10.033971786499023,24.054763793945312,2471.455127954483
D4:22:CD:00:05:6B,-51.2589111328125,-83.8118896484375,28.479949951171875,4.794173240661621,-7.3908538818359375,11.30134391784668,2471.455127954483
D4:22:CD:00:49:AA,-146.02088928222656,-81.6817626953125,62.6730842590332,1.5476579666137695,-0.6455346345901489,-3.1735267639160156,2471.455127954483
D4:22:CD:00:05:6E,132.39642333984375,-27.83350372314453,104.10107421875,19.6998291015625,15.147176742553711,14.132192611694336,2471.455127954483
D4:22:CD:00:05:5E,-152.09324645996094,-47.24577713012695,-103.6064682006836,-3.233081817626953,-1.8298020362854004,1.2199735641479492,2471.455127954483
D4:22:CD:00:05:5D,151.8753662109375,-33.35530471801758,-126.40003967285156,-17.646549224853516,-10.302106857299805,18.35279083251953,2471.514664888382
D4:22:CD:00:05:6B,-49.13058090209961,-74.49441528320312,28.594385147094727,10.454278945922852,16.764450073242188,3.816584587097168,2471.514664888382
D4:22:CD:00:49:AA,-157.45530700683594,-79.66374206542969,72.84040069580078,-1.168125867843628,-1.937161922454834,2.456660270690918,2471.514664888382
D4:22:CD:00:05:6E,118.63318634033203,-15.311417579650879,120.98206329345703,14.132823944091797,13.994569778442383,9.612123489379883,2471.514664888382
D4:22:CD:00:05:5E,-153.37872314453125,-50.08240509033203,-102.50660705566406,-5.464089393615723,-0.7013158798217773,1.7083349227905273,2471.514664888382
D4:22:CD:00:05:5D,154.1830596923828,-30.732255935668945,-124.60350799560547,-17.820568084716797,-3.782308578491211,19.58945083618164,2471.544665813446
D4:22:CD:00:05:6B,-66.02101135253906,-58.89300537109375,26.884733200073242,8.00091552734375,2.1316237449645996,28.396011352539062,2471.544665813446
D4:22:CD:00:49:AA,-165.59274291992188,-78.35468292236328,80.13932037353516,4.199638366699219,1.2660341262817383,10.851476669311523,2471.544665813446
D4:22:CD:00:05:6E,105.74119567871094,-2.1644058227539062,134.92144775390625,12.762788772583008,12.737932205200195,0.3382253646850586,2471.544665813446
D4:22:CD:00:05:5E,-153.61001586914062,-54.96234893798828,-103.30977630615234,-6.688572883605957,-0.4983788728713989,2.653231620788574,2471.544665813446
D4:22:CD:00:05:5D,157.03773498535156,-23.73894691467285,-123.30078887939453,-7.742218017578125,-13.581901550292969,12.743839263916016,2471.5752079486847
D4:22:CD:00:05:6B,-61.386470794677734,-47.24169921875,18.16556167602539,10.280302047729492,0.9393200874328613,10.928010940551758,2471.5752079486847
D4:22:CD:00:49:AA,-174.19801330566406,-76.01992797851562,86.22144317626953,1.1276516914367676,-2.6032896041870117,6.684028625488281,2471.5752079486847
D4:22:CD:00:05:6E,92.12190246582031,11.691341400146484,146.1614990234375,8.26698112487793,11.465595245361328,-5.112157821655273,2471.5752079486847
D4:22:CD:00:05:5E,-150.3445281982422,-62.1893424987793,-107.73204803466797,-6.435125350952148,-4.351259231567383,5.685065269470215,2471.5752079486847
D4:22:CD:00:05:5D,155.34210205078125,-17.542343139648438,-124.92572021484375,-9.752519607543945,-10.200077056884766,9.75676155090332,2471.60520863533
D4:22:CD:00:05:6B,-54.55023193359375,-40.07117462158203,10.1946382522583,9.887361526489258,1.0487060546875,-4.688726425170898,2471.60520863533
D4:22:CD:00:49:AA,178.61734008789062,-75.81434631347656,92.3154296875,4.050158500671387,1.884514570236206,9.226724624633789,2471.60520863533
D4:22:CD:00:05:6E,82.0567855834961,25.067636489868164,153.9921112060547,5.21304988861084,6.176250457763672,-3.2137556076049805,2471.60520863533
D4:22:CD:00:05:5E,-141.56214904785156,-69.91702270507812,-115.57945251464844,-4.454958915710449,-13.106939315795898,7.0343170166015625,2471.60520863533
D4:22:CD:00:05:5D,149.8123321533203,-14.170663833618164,-127.20126342773438,-3.3394827842712402,-6.060227394104004,-3.513521194458008,2471.6352002620697
D4:22:CD:00:05:6B,-56.40558624267578,-36.93914794921875,3.7148587703704834,3.7641830444335938,-1.470041036605835,-7.5858259201049805,2471.6352002620697
D4:22:CD:00:49:AA,172.09271240234375,-74.71626281738281,97.29788208007812,4.749713897705078,0.46226632595062256,6.206089019775391,2471.6352002620697
D4:22:CD:00:05:6E,80.26679229736328,36.66685485839844,159.03012084960938,2.093846321105957,6.322141647338867,0.09916114807128906,2471.6352002620697
D4:22:CD:00:05:5E,-116.10748291015625,-76.06964111328125,-133.8274383544922,-3.1765856742858887,12.503862380981445,-7.766219139099121,2471.6352002620697
D4:22:CD:00:05:5D,150.93328857421875,-13.446802139282227,-128.27516174316406,-1.7350947856903076,-2.150118350982666,-13.201234817504883,2471.6648399829865
D4:22:CD:00:05:6B,-60.54555130004883,-37.654022216796875,-1.6841685771942139,-0.2777961492538452,-1.1489791870117188,-3.1019372940063477,2471.6648399829865
D4:22:CD:00:49:AA,167.62417602539062,-73.70558166503906,99.94103240966797,4.045061111450195,-0.748416543006897,-0.9295406341552734,2471.6648399829865
D4:22:CD:00:05:6E,89.71222686767578,47.67743682861328,162.26634216308594,-0.5964701175689697,-0.42665183544158936,-0.736180305480957,2471.6648399829865
D4:22:CD:00:05:5E,-113.99622344970703,-74.12598419189453,-129.63673400878906,-16.118816375732422,18.565536499023438,-8.774839401245117,2471.6648399829865
D4:22:CD:00:05:5D,156.21400451660156,-16.121448516845703,-127.98014831542969,-3.069967746734619,0.14650291204452515,-20.03976058959961,2471.6948487758636
D4:22:CD:00:05:6B,-59.946468353271484,-40.56257629394531,-6.78819465637207,-0.0554526150226593,-0.8254507780075073,-5.107331275939941,2471.6948487758636
D4:22:CD:00:49:AA,162.984619140625,-72.48262023925781,102.65703582763672,1.8625078201293945,-0.0714084804058075,-5.783124923706055,2471.6948487758636
D4:22:CD:00:05:6E,107.53363800048828,58.04867172241211,166.30096435546875,-1.3027830123901367,-2.9867920875549316,-2.2951202392578125,2471.6948487758636
D4:22:CD:00:05:5E,-133.5920867919922,-68.36341857910156,-113.62821197509766,-2.958747386932373,-7.305813789367676,-10.989034652709961,2471.6948487758636
D4:22:CD:00:05:5D,159.8693084716797,-23.373659133911133,-126.73003387451172,-5.965217590332031,0.17552092671394348,-22.89322280883789,2471.7250401973724
D4:22:CD:00:05:6B,-58.723876953125,-44.495548248291016,-11.561807632446289,1.1335349082946777,-1.8928864002227783,-8.603902816772461,2471.7250401973724
D4:22:CD:00:49:AA,161.0763702392578,-71.0895767211914,103.5771255493164,-3.2646265029907227,0.4739232063293457,-5.817686080932617,2471.7250401973724
D4:22:CD:00:05:6E,120.27151489257812,64.92826080322266,171.95074462890625,-2.6748857498168945,-2.176973819732666,-6.619132995605469,2471.7250401973724
D4:22:CD:00:05:5E,-143.06407165527344,-65.4365005493164,-109.15560150146484,6.719504356384277,-8.009906768798828,-11.409997940063477,2471.7250401973724
D4:22:CD:00:05:5D,158.66004943847656,-35.63837814331055,-124.54645538330078,-8.297163009643555,-4.128748893737793,-21.411205291748047,2471.784598350525
D4:22:CD:00:05:6B,-59.69208908081055,-48.648468017578125,-16.344680786132812,-0.5769199132919312,-2.665123462677002,-8.130987167358398,2471.784598350525
D4:22:CD:00:49:AA,163.44717407226562,-70.72028350830078,102.35601043701172,-2.901742935180664,1.3127050399780273,-9.150047302246094,2471.784598350525
D4:22:CD:00:05:6E,114.38098907470703,66.32117462158203,175.32437133789062,-1.6888518333435059,-2.4261302947998047,-8.420989990234375,2471.784598350525
D4:22:CD:00:05:5E,-146.42892456054688,-66.00430297851562,-107.33031463623047,-4.780542373657227,-1.4365718364715576,1.5545892715454102,2471.784598350525
D4:22:CD:00:05:5D,154.10308837890625,-52.444435119628906,-120.5197982788086,-6.416165351867676,-5.937641143798828,-8.599205017089844,2471.814599275589
D4:22:CD:00:05:6B,-59.63207244873047,-53.05613327026367,-21.964317321777344,-1.5005571842193604,-2.135253429412842,-7.318723678588867,2471.814599275589
D4:22:CD:00:49:AA,164.37200927734375,-71.3815689086914,101.32212829589844,0.390444815158844,3.1927781105041504,-8.006637573242188,2471.814599275589
D4:22:CD:00:05:6E,102.0066146850586,63.17291259765625,178.5319061279297,3.998814582824707,-1.666236400604248,-8.826681137084961,2471.814599275589
D4:22:CD:00:05:5E,-150.67459106445312,-63.7905387878418,-105.38919067382812,0.5859192609786987,-6.6270551681518555,-5.838661193847656,2471.814599275589
D4:22:CD:00:05:5D,142.56930541992188,-72.5306396484375,-110.83574676513672,-1.6827144622802734,-4.967649459838867,9.873685836791992,2471.844603538513
D4:22:CD:00:05:6B,-58.16799545288086,-57.38115692138672,-28.95699691772461,-1.222388505935669,-0.39159756898880005,-7.703069686889648,2471.844603538513
D4:22:CD:00:49:AA,162.53668212890625,-73.0802993774414,101.48590850830078,1.5782365798950195,2.1372127532958984,-8.898855209350586,2471.844603538513
D4:22:CD:00:05:6E,97.0562973022461,56.17767333984375,-176.25094604492188,4.802760124206543,1.209717035293579,-12.015153884887695,2471.844603538513
D4:22:CD:00:05:5E,-155.97923278808594,-59.266746520996094,-104.83241271972656,-1.1086335182189941,-7.376340866088867,1.6832809448242188,2471.844603538513
D4:22:CD:00:05:5D,12.594970703125,-83.73997497558594,18.594074249267578,10.430719375610352,1.4464936256408691,28.978240966796875,2471.8741478919983
D4:22:CD:00:05:6B,-56.51982498168945,-61.7990608215332,-37.206424713134766,-2.871016502380371,1.5833261013031006,-7.1050920486450195,2471.8741478919983
D4:22:CD:00:49:AA,158.79360961914062,-73.90618896484375,102.6136474609375,2.2401514053344727,0.20377972722053528,-9.543451309204102,2471.8741478919983
D4:22:CD:00:05:6E,98.23949432373047,44.68373489379883,-169.5746307373047,-4.716482162475586,-1.868513822555542,-12.914020538330078,2471.8741478919983
D4:22:CD:00:05:5E,-161.3367156982422,-54.8958854675293,-104.82158660888672,-8.639482498168945,-5.869869232177734,2.327273368835449,2471.8741478919983
D4:22:CD:00:05:5D,-7.66212272644043,-68.62344360351562,44.47526931762695,18.09451675415039,27.568912506103516,-2.8042125701904297,2471.9051480293274
D4:22:CD:00:05:6B,-52.4402961730957,-67.07630920410156,-47.034027099609375,-4.800743103027344,5.463456153869629,-5.400901794433594,2471.9051480293274
D4:22:CD:00:49:AA,157.87831115722656,-73.96664428710938,102.06744384765625,-2.714780330657959,-2.793558120727539,-2.464773178100586,2471.9051480293274
D4:22:CD:00:05:6E,99.70580291748047,30.410612106323242,-165.3455047607422,-14.113149642944336,-9.666210174560547,-15.792854309082031,2471.9051480293274
D4:22:CD:00:05:5E,-160.10565185546875,-53.65742492675781,-105.64923095703125,-3.832559585571289,-4.427432060241699,6.2233123779296875,2471.9051480293274
D4:22:CD:00:05:5D,-2.527994155883789,-67.90006256103516,40.4360237121582,13.556886672973633,3.233010768890381,-3.4979844093322754,2471.934148311615
D4:22:CD:00:05:6B,-44.53985595703125,-72.38325500488281,-58.629032135009766,-4.579249382019043,7.223416328430176,-3.6927456855773926,2471.934148311615
D4:22:CD:00:49:AA,167.4478302001953,-73.93061828613281,96.62902069091797,-1.3783764839172363,-6.832786560058594,1.1670751571655273,2471.934148311615
D4:22:CD:00:05:6E,100.2533187866211,19.56564712524414,-162.6129608154297,-2.1971688270568848,-1.033949613571167,-7.79646110534668,2471.934148311615
D4:22:CD:00:05:5E,-158.292236328125,-53.18093490600586,-107.65193939208984,-4.335420608520508,-4.826135635375977,5.06596565246582,2471.934148311615
D4:22:CD:00:05:5D,7.6319732666015625,-72.13116455078125,33.25724792480469,13.758186340332031,12.93903923034668,-7.546025276184082,2471.964677095413
D4:22:CD:00:05:6B,-36.10643005371094,-77.21861267089844,-70.15313720703125,-4.230914115905762,8.786632537841797,-1.8940305709838867,2471.964677095413
D4:22:CD:00:49:AA,175.6378631591797,-73.49207305908203,91.79906463623047,8.012571334838867,3.3910183906555176,9.361381530761719,2471.964677095413
D4:22:CD:00:05:6E,111.73738861083984,19.047710418701172,-163.2283477783203,14.914836883544922,1.2276527881622314,-3.377476215362549,2471.964677095413
D4:22:CD:00:05:5E,-154.2502899169922,-54.41042709350586,-110.33821105957031,-4.283210754394531,-4.80772590637207,4.054384231567383,2471.964677095413
D4:22:CD:00:05:5D,34.885318756103516,-78.60140228271484,10.494677543640137,14.270727157592773,5.162839889526367,7.749368667602539,2471.994697332382
D4:22:CD:00:05:6B,-28.252132415771484,-82.79320526123047,-81.0587158203125,-6.384829521179199,12.392240524291992,3.672318458557129,2471.994697332382
D4:22:CD:00:49:AA,176.85740661621094,-74.40898895263672,90.83761596679688,8.921554565429688,1.6452796459197998,10.127315521240234,2471.994697332382
D4:22:CD:00:05:6E,120.65972900390625,26.77080726623535,-167.44239807128906,-6.003814697265625,6.251008987426758,13.734415054321289,2471.994697332382
D4:22:CD:00:05:5E,-147.037109375,-56.628997802734375,-114.73321533203125,-5.398402214050293,-5.960697174072266,3.071660041809082,2471.994697332382
D4:22:CD:00:05:5D,74.60115051269531,-82.4701156616211,-25.788040161132812,-0.26669561862945557,-2.452775478363037,6.552480697631836,2472.024692773819
D4:22:CD:00:05:6B,61.167972564697266,-88.60984802246094,-167.9276885986328,-4.181604385375977,13.722738265991211,10.186962127685547,2472.024692773819
D4:22:CD:00:49:AA,-179.82362365722656,-74.70594787597656,88.08869171142578,4.655337333679199,0.743425726890564,7.856298446655273,2472.024692773819
D4:22:CD:00:05:6E,115.3033218383789,39.27812194824219,-175.63690185546875,-14.724559783935547,-1.5756661891937256,-2.051966667175293,2472.024692773819
D4:22:CD:00:05:5E,-136.44967651367188,-59.04795455932617,-121.75885009765625,-3.6937599182128906,-5.617413520812988,-3.0483713150024414,2472.024692773819
D4:22:CD:00:05:5D,108.38990783691406,-83.2560806274414,-60.98031234741211,-8.112920761108398,-7.768845558166504,9.60610580444336,2472.0852060317993
D4:22:CD:00:05:6B,144.29127502441406,-83.71784210205078,115.09468841552734,-0.6361055374145508,8.851564407348633,10.081796646118164,2472.0852060317993
D4:22:CD:00:49:AA,-178.3385009765625,-75.15228271484375,87.79894256591797,2.5492663383483887,1.6372709274291992,3.9224672317504883,2472.0852060317993
D4:22:CD:00:05:6E,96.61531829833984,51.40726089477539,170.52532958984375,-16.21963119506836,-1.3511528968811035,-1.9229836463928223,2472.0852060317993
D4:22:CD:00:05:5E,-122.55419158935547,-59.760223388671875,-128.48631286621094,-9.567615509033203,1.6397390365600586,-4.439085006713867,2472.0852060317993
D4:22:CD:00:05:5D,131.1741485595703,-83.22590637207031,-83.52799987792969,-8.771825790405273,-3.943248748779297,0.024160385131835938,2472.114206790924
D4:22:CD:00:05:6B,157.7026824951172,-80.93391418457031,103.23435974121094,2.9631729125976562,8.130380630493164,6.069489479064941,2472.114206790924
D4:22:CD:00:49:AA,-176.18753051757812,-75.12107849121094,87.78675079345703,-1.3186397552490234,1.1762471199035645,-1.4409914016723633,2472.114206790924
D4:22:CD:00:05:6E,59.31519317626953,59.0949821472168,148.6459503173828,-4.300182342529297,-0.917382001876831,-12.741216659545898,2472.114206790924
D4:22:CD:00:05:5E,-107.93029022216797,-57.48629379272461,-127.93923950195312,-32.989044189453125,16.711265563964844,-0.528564453125,2472.114206790924
D4:22:CD:00:05:5D,143.13316345214844,-84.44522094726562,-92.60868835449219,-1.2348134517669678,4.013840675354004,-0.37510108947753906,2472.145199775696
D4:22:CD:00:05:6B,169.91030883789062,-80.72044372558594,92.54682159423828,-1.179577112197876,5.906488418579102,-0.8971471786499023,2472.145199775696
D4:22:CD:00:49:AA,-174.5048065185547,-74.31268310546875,89.28099060058594,-3.0741991996765137,-1.3591723442077637,-4.4449872970581055,2472.145199775696
D4:22:CD:00:05:6E,21.464954376220703,62.10831832885742,121.72755432128906,5.098857879638672,4.303770065307617,-12.211893081665039,2472.145199775696
D4:22:CD:00:05:5E,-104.81929779052734,-52.77246856689453,-116.49039459228516,-25.26950454711914,4.871033668518066,-4.915928840637207,2472.145199775696
D4:22:CD:00:05:5D,163.30819702148438,-85.17513275146484,-111.04438018798828,-2.083008289337158,-3.9175453186035156,0.9229764938354492,2472.1747529506683
D4:22:CD:00:05:6B,-161.64476013183594,-80.73511505126953,68.26805877685547,-2.0162606239318848,0.9023163318634033,-3.832587718963623,2472.1747529506683
D4:22:CD:00:49:AA,-173.78152465820312,-73.90557861328125,93.6629409790039,-1.605656385421753,-3.2926440238952637,-7.389703750610352,2472.1747529506683
D4:22:CD:00:05:6E,1.2667502164840698,61.79592514038086,93.98362731933594,13.4327392578125,3.802957057952881,-7.811702728271484,2472.1747529506683
D4:22:CD:00:05:5E,-112.32726287841797,-47.0389518737793,-100.42382049560547,-16.332523345947266,1.514965295791626,-14.898721694946289,2472.1747529506683
D4:22:CD:00:05:5D,-177.165283203125,-84.15863800048828,-130.83404541015625,-1.0299489498138428,-1.7857906818389893,-0.4155435562133789,2472.2047526836395
D4:22:CD:00:05:6B,-130.84161376953125,-79.02354431152344,41.72711944580078,-1.0185520648956299,-2.300088405609131,-4.754046440124512,2472.2047526836395
D4:22:CD:00:49:AA,-174.8109588623047,-72.23959350585938,99.59365844726562,-1.4061148166656494,2.67397403717041,-5.828157424926758,2472.2047526836395
D4:22:CD:00:05:6E,3.202023983001709,59.51458740234375,74.30062866210938,16.725963592529297,-3.880887031555176,-2.2641305923461914,2472.2047526836395
D4:22:CD:00:05:5E,-126.11669921875,-41.60247039794922,-84.46430206298828,-2.747591972351074,2.072950839996338,-14.058582305908203,2472.2047526836395
D4:22:CD:00:05:5D,-167.9268341064453,-81.86660766601562,-140.4256134033203,1.9624128341674805,-1.249509334564209,0.35796356201171875,2472.234752893448
D4:22:CD:00:05:6B,-114.97232818603516,-77.10222625732422,26.956823348999023,-1.8874540328979492,-3.6693544387817383,-3.4512100219726562,2472.234752893448
D4:22:CD:00:49:AA,-177.5152587890625,-71.17394256591797,104.03691864013672,0.4540732502937317,1.6896913051605225,3.6390085220336914,2472.234752893448
D4:22:CD:00:05:6E,17.98638343811035,57.13676834106445,65.93922424316406,8.239387512207031,-2.1482276916503906,0.6926240921020508,2472.234752893448
D4:22:CD:00:05:5E,-136.30215454101562,-37.38792037963867,-73.71669006347656,4.734722137451172,3.7996912002563477,-11.021615982055664,2472.234752893448
D4:22:CD:00:05:5D,-164.60720825195312,-79.85336303710938,-142.89453125,0.939757227897644,0.6224161386489868,0.7290210723876953,2472.2647676467896
D4:22:CD:00:05:6B,-105.28759765625,-76.81254577636719,16.452823638916016,-5.011438369750977,-3.155485153198242,1.1864423751831055,2472.2647676467896
D4:22:CD:00:49:AA,-179.95401000976562,-71.06805419921875,106.56073760986328,2.194742202758789,1.1194593906402588,4.8959808349609375,2472.2647676467896
D4:22:CD:00:05:6E,34.78297805786133,53.492244720458984,66.5336685180664,7.342608451843262,3.0053653717041016,3.2130727767944336,2472.2647676467896
D4:22:CD:00:05:5E,-142.1015167236328,-35.38530731201172,-67.32154846191406,-1.2190911769866943,2.3778467178344727,-7.805210113525391,2472.2647676467896
D4:22:CD:00:05:5D,-163.00411987304688,-78.56492614746094,-143.99990844726562,-0.21596401929855347,0.9517027139663696,0.7538366317749023,2472.295296192169
D4:22:CD:00:05:6B,-91.55877685546875,-76.94806671142578,2.502392053604126,-3.059939384460449,-1.726527452468872,3.1108856201171875,2472.295296192169
D4:22:CD:00:49:AA,177.1482696533203,-71.8026351928711,110.26250457763672,-2.7774930000305176,2.275184154510498,0.4405231475830078,2472.295296192169
D4:22:CD:00:05:6E,55.312923431396484,47.05211639404297,70.56791687011719,7.2439985275268555,1.9294028282165527,-6.889575004577637,2472.295296192169
D4:22:CD:00:05:5E,-145.52403259277344,-36.19955825805664,-63.5330810546875,8.21915054321289,-2.5628223419189453,-3.8441381454467773,2472.295296192169
D4:22:CD:00:05:5D,-161.73704528808594,-77.46389770507812,-144.91970825195312,0.01942729949951172,-0.9310281276702881,-0.0902395248413086,2472.324303150177
D4:22:CD:00:05:6B,-77.84269714355469,-75.0793685913086,-13.880791664123535,1.0445895195007324,-1.1695756912231445,0.7850408554077148,2472.324303150177
D4:22:CD:00:49:AA,171.87669372558594,-72.70549774169922,115.96234130859375,-3.2602896690368652,2.514939308166504,-3.381051540374756,2472.324303150177
D4:22:CD:00:05:6E,73.82119750976562,36.48841094970703,72.68427276611328,1.014503002166748,3.5084691047668457,-6.470475196838379,2472.324303150177
D4:22:CD:00:05:5E,-144.49493408203125,-40.63087463378906,-63.71833801269531,7.706928253173828,-10.652326583862305,-9.642402648925781,2472.324303150177
D4:22:CD:00:05:5D,-162.77659606933594,-76.01737976074219,-142.7602081298828,0.6221232414245605,-2.4407358169555664,-0.5766687393188477,2472.3849415779114
D4:22:CD:00:05:6B,-72.7005844116211,-71.04407501220703,-26.200098037719727,-1.103916883468628,-0.16960692405700684,-2.7087721824645996,2472.3849415779114
D4:22:CD:00:49:AA,165.1956787109375,-73.2555923461914,121.98445892333984,-0.3204857110977173,0.3873257040977478,-4.394224166870117,2472.3849415779114
D4:22:CD:00:05:6E,88.68746948242188,20.23199462890625,70.461669921875,-1.1187593936920166,4.440401077270508,-14.23908805847168,2472.3849415779114
D4:22:CD:00:05:5E,-143.93551635742188,-44.47819900512695,-64.00624084472656,-36.06995391845703,9.989629745483398,56.34137725830078,2472.3849415779114
D4:22:CD:00:05:5D,-166.6143798828125,-74.0497055053711,-136.7259979248047,0.5760267972946167,-1.7130615711212158,-1.1151742935180664,2472.414941549301
D4:22:CD:00:05:6B,-69.02995300292969,-66.59405517578125,-35.9538688659668,-1.7913751602172852,1.2927002906799316,-5.321399688720703,2472.414941549301
D4:22:CD:00:49:AA,157.71278381347656,-72.63188934326172,126.89632415771484,2.17073917388916,1.6669857501983643,-6.396306991577148,2472.414941549301
D4:22:CD:00:05:6E,87.16017150878906,-1.907371997833252,60.90336227416992,6.297895431518555,18.875133514404297,-3.0134096145629883,2472.414941549301
D4:22:CD:00:05:5E,-152.3796844482422,-44.92985153198242,-62.5521240234375,3.750542640686035,-4.056698799133301,-8.044139862060547,2472.414941549301
D4:22:CD:00:05:5D,-171.56427001953125,-71.35906219482422,-130.2733154296875,-1.6291227340698242,-0.3965640664100647,0.6012020111083984,2472.4449412822723
D4:22:CD:00:05:6B,-66.57552337646484,-62.46267318725586,-43.18697738647461,0.28707683086395264,1.882289171218872,-9.106538772583008,2472.4449412822723
D4:22:CD:00:49:AA,150.101806640625,-71.27194213867188,131.4972686767578,-0.4574226140975952,-0.556867241859436,-2.617175579071045,2472.4449412822723
D4:22:CD:00:05:6E,68.79173278808594,-24.889068603515625,51.425350189208984,34.31896209716797,35.03917694091797,18.848407745361328,2472.4449412822723
D4:22:CD:00:05:5E,-154.85446166992188,-48.16764450073242,-64.08454895019531,13.38037109375,-12.013378143310547,9.735540390014648,2472.4449412822723
D4:22:CD:00:05:5D,-178.58811950683594,-67.57950592041016,-122.16619873046875,-3.51839017868042,0.4332183599472046,0.8431339263916016,2472.4751393795013
D4:22:CD:00:05:6B,-69.6761245727539,-58.61381530761719,-47.26823043823242,4.526764869689941,3.898709297180176,-6.823142051696777,2472.4751393795013
D4:22:CD:00:49:AA,143.18881225585938,-71.07159423828125,136.66578674316406,-2.1937079429626465,-3.121769428253174,-0.9704856872558594,2472.4751393795013
D4:22:CD:00:05:6E,59.33640670776367,-28.88426971435547,49.76742172241211,12.566917419433594,10.115867614746094,-17.937721252441406,2472.4751393795013
D4:22:CD:00:05:5E,-156.39463806152344,-49.42285919189453,-64.47647094726562,7.919179916381836,-7.003904342651367,10.311004638671875,2472.4751393795013
D4:22:CD:00:05:5D,176.85357666015625,-63.00920486450195,-113.93257904052734,4.245771408081055,0.2630123496055603,-1.6580076217651367,2472.505139350891
D4:22:CD:00:05:6B,-70.82920837402344,-54.47700881958008,-52.17687225341797,-0.4793837070465088,7.549485206604004,6.498929977416992,2472.505139350891
D4:22:CD:00:49:AA,137.83087158203125,-71.55209350585938,141.9637451171875,-0.61187744140625,3.73203182220459,-4.92198371887207,2472.505139350891
D4:22:CD:00:05:6E,58.95881652832031,-26.202777862548828,45.829833984375,13.225923538208008,7.213720321655273,3.1865243911743164,2472.505139350891
D4:22:CD:00:05:5E,-159.63751220703125,-45.715999603271484,-65.55325317382812,-3.9236693382263184,-16.263309478759766,6.840435028076172,2472.505139350891
D4:22:CD:00:05:5D,175.1982421875,-59.001243591308594,-109.79510498046875,3.030763626098633,-1.2196364402770996,0.5553808212280273,2472.5351407527924
D4:22:CD:00:05:6B,-71.13874053955078,-49.29988479614258,-57.214290618896484,0.5112342834472656,15.041645050048828,11.889949798583984,2472.5351407527924
D4:22:CD:00:49:AA,136.39906311035156,-70.2791519165039,142.78793334960938,-0.26806801557540894,1.8668878078460693,4.363241195678711,2472.5351407527924
D4:22:CD:00:05:6E,64.52005004882812,-25.087547302246094,47.492042541503906,19.92873764038086,7.581362724304199,-13.28834342956543,2472.5351407527924
D4:22:CD:00:05:5E,-156.46080017089844,-43.074432373046875,-66.33990478515625,-2.324709892272949,-19.58123779296875,6.661169052124023,2472.5351407527924
D4:22:CD:00:05:5D,175.09207153320312,-55.971893310546875,-108.8891372680664,-1.39054536819458,2.0393223762512207,1.6008939743041992,2472.564145088196
D4:22:CD:00:05:6B,-72.9928207397461,-41.80070877075195,-58.72642517089844,-8.839006423950195,30.62407684326172,24.013851165771484,2472.564145088196
D4:22:CD:00:49:AA,137.0832977294922,-68.67379760742188,141.9578857421875,-5.500954627990723,-0.926813006401062,9.000268936157227,2472.564145088196
D4:22:CD:00:05:6E,79.82659149169922,-26.274259567260742,51.28473663330078,4.765894889831543,22.761531829833984,-1.4526681900024414,2472.564145088196
D4:22:CD:00:05:5E,-147.71072387695312,-38.912200927734375,-67.2862319946289,0.43274879455566406,-20.594398498535156,9.933813095092773,2472.564145088196
D4:22:CD:00:05:5D,176.2205352783203,-54.27585983276367,-108.90435028076172,1.132098913192749,0.9320179224014282,1.5893354415893555,2472.594671010971
D4:22:CD:00:05:6B,-69.1385498046875,-29.975830078125,-54.11269760131836,-6.483197212219238,23.238693237304688,24.287315368652344,2472.594671010971
D4:22:CD:00:49:AA,138.738525390625,-69.00592803955078,141.4228515625,-4.704451560974121,1.2431111335754395,12.267866134643555,2472.594671010971
D4:22:CD:00:05:6E,85.20723724365234,-27.923110961914062,52.08539962768555,7.484247207641602,24.628372192382812,-0.00151824951171875,2472.594671010971
D4:22:CD:00:05:5E,-146.48089599609375,-33.61336898803711,-66.11133575439453,-1.5007522106170654,-15.983551025390625,1.8407783508300781,2472.594671010971
