Device,EulerX,EulerY,EulerZ,FreeAccX,FreeAccY,FreeAccZ,Timestamp
D4:22:CD:00:05:5D,176.81924438476562,-56.41083908081055,-120.69477081298828,0.06096024811267853,2.6402249336242676,-0.1514110565185547,1351.7600712776184
D4:22:CD:00:05:6B,-56.84231185913086,-37.47584915161133,-89.91759490966797,-4.236240386962891,10.23552131652832,18.78579330444336,1351.7600712776184
D4:22:CD:00:49:AA,138.0026397705078,-67.97412872314453,134.85389709472656,0.7192803621292114,1.7488596439361572,6.939586639404297,1351.7600712776184
D4:22:CD:00:05:6E,91.35247039794922,-36.37128829956055,31.029491424560547,16.5545654296875,16.34070587158203,0.7618312835693359,1351.7600712776184
D4:22:CD:00:05:5E,151.89674377441406,-72.62252807617188,41.106693267822266,0.8871959447860718,-7.892879486083984,14.050182342529297,1351.7600712776184
D4:22:CD:00:05:6B,-60.944236755371094,-22.90717887878418,-85.60799407958984,-2.111630439758301,18.814884185791016,37.52342987060547,1351.7725036144257
D4:22:CD:00:49:AA,138.062744140625,-67.33294677734375,134.9510040283203,-3.980541229248047,1.2434978485107422,13.514760971069336,1351.7725036144257
D4:22:CD:00:05:6E,96.10840606689453,-34.33885192871094,30.997699737548828,14.929008483886719,19.567424774169922,4.156238555908203,1351.7725036144257
D4:22:CD:00:05:5E,161.5681915283203,-69.96038055419922,35.62681198120117,0.3944498300552368,-1.5688891410827637,20.942096710205078,1351.7725036144257
D4:22:CD:00:05:5D,-174.05853271484375,-68.29270935058594,-119.12129974365234,-0.8869836330413818,-0.4944819211959839,0.21255207061767578,1351.7765052318573
D4:22:CD:00:49:AA,141.4860382080078,-67.42522430419922,132.01791381835938,-4.858981132507324,0.38987451791763306,13.090087890625,1351.7765052318573
D4:22:CD:00:05:6E,103.59369659423828,-36.37080383300781,32.61296463012695,7.868807792663574,19.23070526123047,8.017492294311523,1351.7765052318573
D4:22:CD:00:05:5E,176.00550842285156,-67.90019226074219,31.53555679321289,17.01748275756836,7.155571937561035,16.257282257080078,1351.7765052318573
D4:22:CD:00:05:5D,-175.13516235351562,-69.15703582763672,-118.15739440917969,-0.6759480237960815,-0.7504808902740479,-0.21259593963623047,1351.780487537384
D4:22:CD:00:49:AA,143.9048614501953,-67.1304702758789,130.20632934570312,-3.2938618659973145,-1.6301093101501465,6.278291702270508,1351.780487537384
D4:22:CD:00:05:6E,113.63220977783203,-42.561859130859375,34.767311096191406,0.1363208293914795,8.218399047851562,11.074081420898438,1351.780487537384
D4:22:CD:00:05:5E,-179.28602600097656,-63.6843147277832,27.149324417114258,0.591568112373352,-4.878972053527832,6.175100326538086,1351.780487537384
D4:22:CD:00:05:5D,176.65785217285156,-66.40304565429688,-111.20158386230469,0.23474669456481934,-1.916532278060913,0.3186769485473633,1351.7854721546173
D4:22:CD:00:05:6B,-63.56123733520508,-48.42554473876953,-113.08876037597656,-0.19955533742904663,2.240473747253418,-2.4758410453796387,1351.7854721546173
D4:22:CD:00:49:AA,50.59040832519531,9.518392562866211,-176.6106719970703,-10.594808578491211,-0.4469364881515503,-14.086811065673828,1351.7854721546173
D4:22:CD:00:05:6E,-50.616546630859375,-33.58881378173828,-156.68800354003906,-8.056938171386719,10.057222366333008,-0.5459451675415039,1351.7854721546173
D4:22:CD:00:05:5D,177.35353088378906,-62.7132453918457,-110.23865509033203,0.8299084901809692,1.5823802947998047,-0.04387187957763672,1351.8278551101685
D4:22:CD:00:05:6B,-69.59748077392578,-40.65074920654297,-114.61426544189453,4.780742645263672,11.422607421875,6.41901969909668,1351.8278551101685
D4:22:CD:00:49:AA,51.03573989868164,-8.098876953125,-177.2976531982422,-14.006263732910156,-4.001282691955566,-11.510883331298828,1351.8278551101685
D4:22:CD:00:05:6E,-87.9813232421875,-37.03868865966797,-133.7010040283203,-12.439325332641602,-4.79646110534668,1.1989259719848633,1351.8278551101685
D4:22:CD:00:05:5E,160.898681640625,-79.47544860839844,18.42545509338379,-3.34254789352417,-1.1612696647644043,17.500102996826172,1351.8278551101685
D4:22:CD:00:05:5D,178.1062469482422,-59.41017532348633,-109.19628143310547,0.4539896845817566,2.9415197372436523,0.8198757171630859,1351.8576800823212
D4:22:CD:00:05:6B,-75.08238983154297,-26.255788803100586,-115.79051971435547,11.343393325805664,14.582847595214844,17.70709228515625,1351.8576800823212
D4:22:CD:00:49:AA,54.8198127746582,-26.152870178222656,179.98712158203125,-12.098854064941406,-5.72681999206543,-1.1882514953613281,1351.8576800823212
D4:22:CD:00:05:6E,-112.75386047363281,-46.31315231323242,-117.46395874023438,-4.094569206237793,-12.982778549194336,15.99135971069336,1351.8576800823212
D4:22:CD:00:05:5E,171.76515197753906,-74.86848449707031,10.211206436157227,0.1958458125591278,-3.6950483322143555,22.143264770507812,1351.8576800823212
D4:22:CD:00:05:5D,178.99700927734375,-57.775150299072266,-108.94636535644531,-0.34509438276290894,1.860628604888916,2.2691946029663086,1351.8879516124725
D4:22:CD:00:05:6B,-73.63076782226562,-5.750148296356201,-116.64948272705078,16.76693344116211,0.6082806587219238,25.657512664794922,1351.8879516124725
D4:22:CD:00:49:AA,61.43574142456055,-40.61130905151367,175.0566864013672,-17.913734436035156,-7.101593971252441,3.434971809387207,1351.8879516124725
D4:22:CD:00:05:6E,-120.36980438232422,-55.520416259765625,-105.97606658935547,-7.060650825500488,-15.259708404541016,18.198257446289062,1351.8879516124725
D4:22:CD:00:05:5E,169.57235717773438,-72.68001556396484,20.410463333129883,9.611520767211914,1.5311458110809326,14.348068237304688,1351.8879516124725
D4:22:CD:00:05:5D,179.9364776611328,-57.85834884643555,-109.42147064208984,-0.8321011066436768,2.1914119720458984,2.036696434020996,1351.9180285930634
D4:22:CD:00:05:6B,-61.8169059753418,17.30319595336914,-115.18254852294922,6.662599563598633,-15.258102416992188,27.762989044189453,1351.9180285930634
D4:22:CD:00:49:AA,71.12698364257812,-52.96768569946289,167.30552673339844,-13.640111923217773,-4.069523811340332,-0.46985721588134766,1351.9180285930634
D4:22:CD:00:05:6E,-127.0771713256836,-64.61111450195312,-93.55760192871094,-11.5770263671875,-18.3223876953125,14.705068588256836,1351.9180285930634
D4:22:CD:00:05:5E,163.916748046875,-73.18327331542969,25.67106056213379,2.4969825744628906,-0.2907012104988098,7.10725212097168,1351.9180285930634
D4:22:CD:00:05:5D,-179.34915161132812,-59.05016326904297,-110.79556274414062,-1.519944429397583,2.1191649436950684,1.8722410202026367,1351.9473192691803
D4:22:CD:00:05:6B,-36.70045852661133,36.439815521240234,-108.61282348632812,-5.753877639770508,-12.028192520141602,10.154060363769531,1351.9473192691803
D4:22:CD:00:49:AA,83.79110717773438,-62.341922760009766,156.88885498046875,-11.060394287109375,-0.7626686096191406,6.060795783996582,1351.9473192691803
D4:22:CD:00:05:6E,-135.87387084960938,-72.50092315673828,-77.29947662353516,-8.564247131347656,-12.83253288269043,7.425348281860352,1351.9473192691803
D4:22:CD:00:05:5E,159.48870849609375,-77.39531707763672,31.157697677612305,-0.19755738973617554,9.095617294311523,1.9376554489135742,1351.9473192691803
D4:22:CD:00:05:5D,-178.4692840576172,-61.54753112792969,-112.862060546875,0.4509974718093872,1.8607583045959473,2.7355422973632812,1351.978477716446
D4:22:CD:00:05:6B,-9.038780212402344,48.431800842285156,-96.23212432861328,-10.171443939208984,-4.409196853637695,1.3055477142333984,1351.978477716446
D4:22:CD:00:49:AA,98.04608917236328,-69.07102966308594,146.5830841064453,-12.435613632202148,-0.03830698877573013,7.894878387451172,1351.978477716446
D4:22:CD:00:05:6E,-137.8047637939453,-77.75035095214844,-61.16563415527344,-7.946963310241699,-14.63102912902832,-1.0093631744384766,1351.978477716446
D4:22:CD:00:05:5E,143.7431182861328,-87.168212890625,48.109893798828125,-1.8010749816894531,6.569108009338379,-1.7480554580688477,1351.978477716446
D4:22:CD:00:05:5D,-177.0611572265625,-65.92484283447266,-115.18513488769531,0.4703409671783447,1.271589994430542,5.926441192626953,1352.007770061493
D4:22:CD:00:05:6B,15.498882293701172,54.087432861328125,-84.64079284667969,-7.818672180175781,3.293156623840332,-2.632174491882324,1352.007770061493
D4:22:CD:00:49:AA,114.08824157714844,-74.42861938476562,135.94061279296875,-8.104183197021484,1.276655912399292,5.588536262512207,1352.007770061493
D4:22:CD:00:05:6E,-134.9772186279297,-81.21711730957031,-45.56090545654297,-5.1413469314575195,-11.373407363891602,-3.8751883506774902,1352.007770061493
D4:22:CD:00:05:5E,-0.57938551902771,-78.61092376708984,-166.46917724609375,4.225991249084473,4.916167259216309,-1.7302913665771484,1352.007770061493
D4:22:CD:00:05:5D,-176.5633087158203,-72.34880065917969,-119.03116607666016,-7.476649284362793,-4.64897346496582,10.894210815429688,1352.06738114357
D4:22:CD:00:05:6B,23.44658851623535,55.94123077392578,-75.60933685302734,0.5405974388122559,3.6239352226257324,-1.5676326751708984,1352.06738114357
D4:22:CD:00:49:AA,130.23721313476562,-78.64106750488281,125.67094421386719,-1.9401731491088867,0.4209030270576477,-0.43642711639404297,1352.06738114357
D4:22:CD:00:05:6E,-129.46690368652344,-83.00731658935547,-30.623226165771484,-1.5817651748657227,-7.725377082824707,-7.317028045654297,1352.06738114357
D4:22:CD:00:05:5E,-1.7839335203170776,-59.0853157043457,-168.47315979003906,-2.015951633453369,-1.2393405437469482,4.437836647033691,1352.06738114357
D4:22:CD:00:05:5D,172.3404998779297,-78.49012756347656,-112.29666137695312,-1.5917153358459473,-4.961118698120117,1.3569135665893555,1352.0967881679535
D4:22:CD:00:05:6B,14.002795219421387,57.06522750854492,-69.92899322509766,-5.716220855712891,11.423837661743164,-10.153484344482422,1352.0967881679535
D4:22:CD:00:49:AA,157.83319091796875,-81.19904327392578,103.39090728759766,-0.4588428735733032,-1.0479860305786133,-5.0469970703125,1352.0967881679535
D4:22:CD:00:05:6E,-108.12212371826172,-85.54021453857422,-29.041053771972656,9.110023498535156,-10.497526168823242,-6.736570358276367,1352.0967881679535
D4:22:CD:00:05:5E,-7.660962104797363,-39.5775260925293,-173.72129821777344,-25.74820327758789,-9.255252838134766,-0.7596578598022461,1352.0967881679535
D4:22:CD:00:05:5D,152.92892456054688,-79.88189697265625,-84.94568634033203,14.093042373657227,0.06587238609790802,-9.334993362426758,1352.127370595932
D4:22:CD:00:05:6B,18.636577606201172,59.098514556884766,-74.6435775756836,-7.726792335510254,1.990699052810669,-6.252223014831543,1352.127370595932
D4:22:CD:00:49:AA,-170.5949249267578,-80.40392303466797,75.84811401367188,3.737471580505371,-1.596973180770874,-9.298149108886719,1352.127370595932
D4:22:CD:00:05:6E,-64.8451919555664,-86.6431655883789,-63.214111328125,3.9472503662109375,-7.369429588317871,-12.996816635131836,1352.127370595932
D4:22:CD:00:05:5E,-19.18538475036621,-29.54378890991211,-178.45997619628906,-37.080360412597656,-6.703701019287109,-21.543365478515625,1352.127370595932
D4:22:CD:00:05:5D,143.5449676513672,-78.92200469970703,-67.37529754638672,5.201596260070801,-4.058697700500488,-13.021339416503906,1352.1566994190216
D4:22:CD:00:05:6B,21.300962448120117,64.47830963134766,-93.37952423095703,14.626594543457031,-1.0793943405151367,-2.7806591987609863,1352.1566994190216
D4:22:CD:00:49:AA,-157.10977172851562,-79.4813232421875,65.55622863769531,3.672428607940674,2.4326772689819336,-12.180818557739258,1352.1566994190216
D4:22:CD:00:05:6E,-47.41861343383789,-86.04878997802734,-81.35635375976562,0.6903166770935059,-3.975989818572998,-12.342414855957031,1352.1566994190216
D4:22:CD:00:05:5E,-22.321996688842773,-26.720693588256836,179.3782958984375,-10.506919860839844,19.30670928955078,-28.586185455322266,1352.1566994190216
D4:22:CD:00:05:5D,134.0540313720703,-80.31497192382812,-52.65174865722656,9.772451400756836,7.145425796508789,-8.126787185668945,1352.1901700496674
D4:22:CD:00:05:6B,-8.571879386901855,67.40603637695312,-128.547607421875,2.4214887619018555,-4.601280212402344,-15.314973831176758,1352.1901700496674
D4:22:CD:00:49:AA,-148.0389862060547,-80.21568298339844,59.15447235107422,-2.5159239768981934,0.3993564248085022,-10.896329879760742,1352.1901700496674
D4:22:CD:00:05:6E,-40.724822998046875,-85.75448608398438,-89.71733093261719,0.040235735476017,-3.497220993041992,-8.698936462402344,1352.1901700496674
D4:22:CD:00:05:5E,-18.041059494018555,-27.752788543701172,-177.6811981201172,-8.867111206054688,0.4916045069694519,-28.988143920898438,1352.1901700496674
D4:22:CD:00:05:5D,136.73719787597656,-79.7099838256836,-55.01286315917969,-4.351716995239258,4.397496223449707,-0.29212379455566406,1352.2176322937012
D4:22:CD:00:05:6B,-44.745018005371094,59.63957214355469,-172.27430725097656,-16.395519256591797,0.8682284355163574,-33.12303924560547,1352.2176322937012
D4:22:CD:00:49:AA,-135.41824340820312,-80.4202880859375,49.78956604003906,-2.750082492828369,-3.8785133361816406,-6.3277997970581055,1352.2176322937012
D4:22:CD:00:05:6E,-34.920475006103516,-85.53060150146484,-97.57637023925781,1.8030810356140137,-5.4127197265625,-4.081058502197266,1352.2176322937012
D4:22:CD:00:05:5E,-20.447452545166016,-33.19895935058594,-171.0629119873047,-11.020334243774414,-0.0319514274597168,-14.716285705566406,1352.2176322937012
D4:22:CD:00:05:5D,138.79827880859375,-79.10980987548828,-60.2532844543457,-6.100895881652832,-5.741153717041016,3.8457441329956055,1352.246916294098
D4:22:CD:00:05:6B,-56.15656661987305,45.4015998840332,164.47593688964844,-20.430702209472656,10.40230941772461,-26.988300323486328,1352.246916294098
D4:22:CD:00:49:AA,-126.63091278076172,-80.55864715576172,43.852333068847656,2.1376752853393555,2.519343376159668,0.6417961120605469,1352.246916294098
D4:22:CD:00:05:6E,-35.4600715637207,-85.18952941894531,-100.16832733154297,1.4813778400421143,-5.094006538391113,-1.8401141166687012,1352.246916294098
D4:22:CD:00:05:5E,-25.899023056030273,-40.161834716796875,-163.08599853515625,-10.690637588500977,-6.222325325012207,-11.064014434814453,1352.246916294098
D4:22:CD:00:05:5D,137.8247528076172,-77.91009521484375,-57.720645904541016,-2.1447806358337402,-5.998258590698242,4.864834785461426,1352.2769131660461
D4:22:CD:00:05:6B,-66.8193588256836,48.831661224365234,165.77597045898438,8.839702606201172,2.8249707221984863,9.338733673095703,1352.2769131660461
D4:22:CD:00:49:AA,-119.28591918945312,-81.60328674316406,36.460384368896484,2.1428213119506836,-0.3697167634963989,-0.38703441619873047,1352.2769131660461
D4:22:CD:00:05:6E,-53.56031799316406,-84.68190002441406,-84.99417114257812,2.014497756958008,-3.2249298095703125,-1.6963424682617188,1352.2769131660461
D4:22:CD:00:05:5E,-35.34895706176758,-47.8466796875,-153.39962768554688,-10.683401107788086,-7.997777938842773,-8.701467514038086,1352.2769131660461
D4:22:CD:00:05:5D,134.03684997558594,-76.3453140258789,-52.03816223144531,1.2087070941925049,-3.194459915161133,2.728029251098633,1352.3075354099274
D4:22:CD:00:05:6B,-57.107688903808594,58.39649963378906,179.4701690673828,-17.50967788696289,11.115594863891602,-14.044195175170898,1352.3075354099274
D4:22:CD:00:49:AA,-123.00079345703125,-82.91989135742188,38.3424072265625,-3.1807079315185547,1.0718090534210205,0.6706991195678711,1352.3075354099274
D4:22:CD:00:05:6E,-87.35342407226562,-83.61788940429688,-55.49346923828125,8.934484481811523,-5.488677978515625,-0.01706981658935547,1352.3075354099274
D4:22:CD:00:05:5E,-43.92010498046875,-53.7685546875,-144.3147430419922,-6.92612361907959,-8.455259323120117,-3.8057990074157715,1352.3075354099274
D4:22:CD:00:05:5D,129.119384765625,-74.20992279052734,-45.88372802734375,3.5972118377685547,0.5038461685180664,0.7702169418334961,1352.3676342964172
D4:22:CD:00:05:6B,-27.680152893066406,65.7145004272461,-153.3009490966797,-5.953352928161621,0.16278982162475586,-25.859424591064453,1352.3676342964172
D4:22:CD:00:49:AA,-131.55706787109375,-84.08676147460938,43.348567962646484,-3.0109095573425293,0.9983624219894409,2.8207645416259766,1352.3676342964172
D4:22:CD:00:05:6E,-118.3528060913086,-81.56066131591797,-34.57929992675781,8.77015495300293,-6.547392845153809,-1.6673154830932617,1352.3676342964172
D4:22:CD:00:05:5E,-53.55192947387695,-59.05906677246094,-135.350830078125,-6.049925804138184,-12.209867477416992,-10.239501953125,1352.3676342964172
D4:22:CD:00:05:5D,123.25518035888672,-71.9403076171875,-39.53433609008789,2.326258659362793,3.7408323287963867,-2.576956272125244,1352.3978440761566
D4:22:CD:00:05:6B,2.0496349334716797,63.82770919799805,-119.75080108642578,-4.951333045959473,2.649636745452881,-17.013282775878906,1352.3978440761566
D4:22:CD:00:49:AA,-136.188720703125,-84.47319793701172,45.384586334228516,-3.639296531677246,-1.2226574420928955,-1.5034618377685547,1352.3978440761566
D4:22:CD:00:05:6E,-147.48434448242188,-80.08595275878906,-19.47575569152832,2.512937068939209,-1.7781965732574463,-3.55241060256958,1352.3978440761566
D4:22:CD:00:05:5E,-68.8696060180664,-63.65349197387695,-125.45980072021484,21.999629974365234,-12.916139602661133,14.818048477172852,1352.3978440761566
D4:22:CD:00:05:5D,117.02950286865234,-69.77052307128906,-35.03970718383789,-0.7435435056686401,2.0110878944396973,-0.8873090744018555,1352.4271295070648
D4:22:CD:00:05:6B,14.746216773986816,55.624839782714844,-103.47735595703125,3.3875207901000977,1.714188575744629,-10.08979606628418,1352.4271295070648
D4:22:CD:00:49:AA,-139.1240997314453,-84.47146606445312,46.58317184448242,-1.7501795291900635,-1.2363440990447998,-6.078330993652344,1352.4271295070648
D4:22:CD:00:05:6E,-173.76303100585938,-78.73892211914062,-3.6807312965393066,2.5822815895080566,4.767648696899414,-4.233003616333008,1352.4271295070648
D4:22:CD:00:05:5E,-65.90548706054688,-66.12210845947266,-122.83977508544922,-2.84183406829834,-10.359228134155273,4.174543380737305,1352.4271295070648
D4:22:CD:00:05:5D,109.81322479248047,-67.99146270751953,-32.789451599121094,3.749671459197998,-1.0064349174499512,-0.5734958648681641,1352.4572882652283
D4:22:CD:00:05:6B,9.387612342834473,47.09907531738281,-96.86141204833984,4.272615432739258,7.903865814208984,-0.26235389709472656,1352.4572882652283
D4:22:CD:00:49:AA,-144.18374633789062,-83.59966278076172,49.43801498413086,1.3247911930084229,-2.790886878967285,-6.2581787109375,1352.4572882652283
D4:22:CD:00:05:6E,168.53152465820312,-77.9710693359375,8.953442573547363,3.1024460792541504,4.015017509460449,-0.09851741790771484,1352.4572882652283
D4:22:CD:00:05:5E,-73.731689453125,-69.63092803955078,-115.40000915527344,-2.708888530731201,-3.6953353881835938,11.278463363647461,1352.4572882652283
D4:22:CD:00:05:5D,105.33914184570312,-66.48672485351562,-34.50532913208008,10.8232421875,3.113323211669922,-1.6675395965576172,1352.5118010044098
D4:22:CD:00:05:6B,0.4218166768550873,39.40017318725586,-92.38184356689453,-1.2519948482513428,3.587099075317383,6.9511566162109375,1352.5118010044098
D4:22:CD:00:49:AA,-150.78497314453125,-81.62863159179688,52.89902877807617,2.110245704650879,-6.270485877990723,-0.6447219848632812,1352.5118010044098
D4:22:CD:00:05:6E,155.81092834472656,-78.03682708740234,19.032377243041992,0.4645001292228699,3.0191774368286133,2.003973960876465,1352.5118010044098
D4:22:CD:00:05:5E,-85.32283020019531,-71.65362548828125,-103.69668579101562,-3.4606428146362305,-9.723678588867188,8.97182846069336,1352.5118010044098
D4:22:CD:00:05:5D,109.05377960205078,-63.762699127197266,-46.974098205566406,17.489063262939453,19.973304748535156,9.355844497680664,1352.5171337127686
D4:22:CD:00:05:6B,-8.734445571899414,34.609466552734375,-88.01170349121094,16.254352569580078,3.233884811401367,12.827619552612305,1352.5171337127686
D4:22:CD:00:49:AA,-155.564453125,-79.62335205078125,54.67768859863281,2.2158403396606445,-5.842474937438965,3.4223833084106445,1352.5171337127686
D4:22:CD:00:05:6E,144.32260131835938,-78.16364288330078,25.85679817199707,-3.8893585205078125,5.527732849121094,5.309772491455078,1352.5171337127686
D4:22:CD:00:05:5E,-95.08612060546875,-72.49574279785156,-93.18348693847656,-8.446317672729492,-1.0193939208984375,-3.016871452331543,1352.5171337127686
D4:22:CD:00:05:5D,121.09029388427734,-57.00016784667969,-68.35945129394531,20.31096649169922,9.972906112670898,11.623664855957031,1352.5473718643188
D4:22:CD:00:05:6B,-27.40138816833496,30.615135192871094,-83.55917358398438,-1.5018177032470703,2.999207019805908,8.404296875,1352.5473718643188
D4:22:CD:00:49:AA,-157.7235870361328,-78.60212707519531,55.61182403564453,4.171265602111816,0.27003562450408936,3.4367198944091797,1352.5473718643188
D4:22:CD:00:05:6E,137.97161865234375,-78.11764526367188,29.92711639404297,-1.756765365600586,10.134370803833008,4.419863700866699,1352.5473718643188
D4:22:CD:00:05:5E,-102.14679718017578,-72.05036163330078,-86.44148254394531,-6.610601425170898,-2.7488536834716797,-1.1537485122680664,1352.5473718643188
D4:22:CD:00:05:5D,131.58917236328125,-46.627201080322266,-88.61395263671875,10.264379501342773,-4.487469673156738,6.622781753540039,1352.577563047409
D4:22:CD:00:05:6B,-36.02049255371094,24.92613983154297,-79.33621215820312,0.4210395812988281,-5.413297653198242,12.237598419189453,1352.577563047409
D4:22:CD:00:49:AA,-157.55259704589844,-78.52954864501953,54.96187210083008,5.061771392822266,1.034212350845337,5.615629196166992,1352.577563047409
D4:22:CD:00:05:6E,138.62930297851562,-78.32202911376953,34.15348815917969,-2.963042736053467,4.358168601989746,5.583355903625488,1352.577563047409
D4:22:CD:00:05:5E,-106.11859893798828,-71.32305908203125,-83.40306854248047,-5.552196502685547,-1.4753751754760742,0.7084197998046875,1352.577563047409
D4:22:CD:00:05:5D,141.1394500732422,-35.166114807128906,-103.6153335571289,-1.9253559112548828,-5.682219505310059,-3.922430992126465,1352.6074287891388
D4:22:CD:00:05:6B,-41.018280029296875,17.6651668548584,-75.5460205078125,1.3725950717926025,3.4653897285461426,0.6883077621459961,1352.6074287891388
D4:22:CD:00:49:AA,-157.92152404785156,-78.39933013916016,54.20170974731445,6.038005828857422,-1.407698154449463,5.5502777099609375,1352.6074287891388
D4:22:CD:00:05:6E,140.4755401611328,-78.41602325439453,40.29191970825195,-3.8610587120056152,-2.226663112640381,7.711997985839844,1352.6074287891388
D4:22:CD:00:05:5E,-106.26818084716797,-71.62261962890625,-83.6484146118164,-5.053353309631348,-2.056532859802246,-0.48639488220214844,1352.6074287891388
D4:22:CD:00:05:5D,150.4423065185547,-24.682926177978516,-114.21128845214844,-6.961862564086914,-3.3606643676757812,-10.410726547241211,1352.6677162647247
D4:22:CD:00:05:6B,-47.544822692871094,8.510997772216797,-71.58084106445312,-6.721545219421387,-5.297910690307617,5.563940048217773,1352.6677162647247
D4:22:CD:00:49:AA,-159.39620971679688,-78.07963562011719,54.302364349365234,5.9716596603393555,-1.6131727695465088,5.348742485046387,1352.6677162647247
D4:22:CD:00:05:6E,137.91258239746094,-77.76184844970703,49.28490447998047,-0.4176163673400879,-3.17606782913208,5.289393424987793,1352.6677162647247
D4:22:CD:00:05:5E,-106.22936248779297,-72.22148895263672,-84.267333984375,-5.496589660644531,-3.469911575317383,-1.949995517730713,1352.6677162647247
D4:22:CD:00:05:5D,161.5722198486328,-16.822322845458984,-121.12223052978516,-6.10366153717041,0.5084680318832397,-11.010799407958984,1352.6969950199127
D4:22:CD:00:05:6B,-45.89522171020508,-2.3294477462768555,-68.405517578125,-1.9109978675842285,-5.210081100463867,0.8653602600097656,1352.6969950199127
D4:22:CD:00:49:AA,-161.49082946777344,-78.45649719238281,54.7078742980957,0.7440444231033325,1.66249418258667,3.8497304916381836,1352.6969950199127
D4:22:CD:00:05:6E,132.5202178955078,-76.81689453125,58.04549026489258,3.2228922843933105,-3.746946334838867,2.2921972274780273,1352.6969950199127
D4:22:CD:00:05:5E,-106.39607238769531,-72.40907287597656,-85.32015991210938,-4.754142761230469,-3.4361958503723145,-1.6229362487792969,1352.6969950199127
D4:22:CD:00:05:5D,170.18795776367188,-13.508633613586426,-126.0608139038086,-7.734344482421875,2.943337917327881,-12.707250595092773,1352.727192401886
D4:22:CD:00:05:6B,-44.93325424194336,-15.710371017456055,-64.45012664794922,-0.039397239685058594,-9.036748886108398,-3.2799220085144043,1352.727192401886
D4:22:CD:00:49:AA,-164.18968200683594,-78.79907989501953,56.439239501953125,1.2050859928131104,1.3797905445098877,1.0730924606323242,1352.727192401886
D4:22:CD:00:05:6E,125.59770202636719,-75.8885498046875,64.32554626464844,3.9832310676574707,-1.538517951965332,-0.5454931259155273,1352.727192401886
D4:22:CD:00:05:5E,-104.55619812011719,-72.73303985595703,-87.9758529663086,-4.492466926574707,-2.71775484085083,-0.9295949935913086,1352.727192401886
D4:22:CD:00:05:5D,170.8232879638672,-16.243244171142578,-130.66925048828125,-12.236751556396484,1.5530650615692139,-6.687482833862305,1352.7577412128448
D4:22:CD:00:05:6B,-44.76253128051758,-32.66155242919922,-61.13737106323242,6.010462760925293,-15.012762069702148,5.584676742553711,1352.7577412128448
D4:22:CD:00:49:AA,-166.3893585205078,-78.83036041259766,58.37834548950195,4.0601606369018555,-0.3967869281768799,-0.8614120483398438,1352.7577412128448
D4:22:CD:00:05:6E,120.21451568603516,-74.58589935302734,69.00452423095703,3.216681957244873,-1.3853673934936523,-2.001784324645996,1352.7577412128448
D4:22:CD:00:05:5E,-101.48798370361328,-73.23606872558594,-91.41724395751953,-3.91074275970459,-2.655867099761963,-1.0044517517089844,1352.7577412128448
D4:22:CD:00:05:5D,164.52879333496094,-24.581151962280273,-134.40347290039062,-10.028682708740234,0.06488357484340668,3.6966867446899414,1352.7879593372345
D4:22:CD:00:05:6B,-35.75242233276367,-47.457157135009766,-66.16984558105469,13.73646354675293,-12.951492309570312,20.32473373413086,1352.7879593372345
D4:22:CD:00:49:AA,-168.58900451660156,-78.53475189208984,60.5218505859375,2.233893871307373,-0.1594688892364502,-3.436361789703369,1352.7879593372345
D4:22:CD:00:05:6E,113.21212005615234,-72.20907592773438,75.53217315673828,4.097138404846191,-3.6599507331848145,-0.7729091644287109,1352.7879593372345
D4:22:CD:00:05:5E,-95.5960693359375,-74.15972900390625,-96.54537200927734,-3.8996081352233887,-2.2484960556030273,-1.1894712448120117,1352.7879593372345
D4:22:CD:00:05:5D,162.20191955566406,-29.085342407226562,-135.07748413085938,-10.033756256103516,-10.948453903198242,12.59147834777832,1352.817611694336
D4:22:CD:00:05:6B,-25.21233558654785,-54.71430206298828,-76.77214813232422,8.475183486938477,-13.357601165771484,7.877111434936523,1352.817611694336
D4:22:CD:00:49:AA,-168.17453002929688,-77.91737365722656,59.92985534667969,-1.715757131576538,-0.5664657354354858,-5.288854598999023,1352.817611694336
D4:22:CD:00:05:6E,102.55658721923828,-67.15573120117188,85.74798583984375,3.448502540588379,-4.349797248840332,0.9910669326782227,1352.817611694336
D4:22:CD:00:05:5E,-95.65090942382812,-73.88627624511719,-96.2816162109375,-2.7909679412841797,-2.5255699157714844,-3.49357271194458,1352.817611694336
D4:22:CD:00:05:5D,167.85035705566406,-33.11126708984375,-133.79708862304688,-10.71095085144043,-9.56243896484375,-4.0124969482421875,1352.8476099967957
D4:22:CD:00:05:6B,-31.542285919189453,-54.8510627746582,-76.7812728881836,5.808539390563965,-3.579287528991699,0.2545509338378906,1352.8476099967957
D4:22:CD:00:49:AA,-165.8715362548828,-76.84798431396484,57.89583206176758,-1.8160650730133057,-1.8123259544372559,-5.768013954162598,1352.8476099967957
D4:22:CD:00:05:6E,93.08682250976562,-57.42314910888672,94.12686920166016,3.2619504928588867,-1.2165286540985107,7.275821685791016,1352.8476099967957
D4:22:CD:00:05:5E,-103.91893768310547,-72.61909484863281,-90.5475845336914,-4.899624824523926,-2.991079807281494,-4.346373558044434,1352.8476099967957
D4:22:CD:00:05:5D,174.203369140625,-35.03750228881836,-133.4480743408203,-19.703353881835938,-3.6866135597229004,6.925809860229492,1352.877660036087
D4:22:CD:00:05:6B,-39.241695404052734,-47.923736572265625,-71.40309143066406,-0.7225632667541504,-9.966289520263672,5.157837867736816,1352.877660036087
D4:22:CD:00:49:AA,-164.67369079589844,-75.0228500366211,57.1042366027832,-0.660549521446228,0.2963193655014038,-0.4921121597290039,1352.877660036087
D4:22:CD:00:05:6E,90.14703369140625,-43.34461975097656,100.34385681152344,10.16176986694336,3.814713954925537,13.213495254516602,1352.877660036087
D4:22:CD:00:05:5E,-109.85720825195312,-72.27223205566406,-84.76513671875,-2.0301952362060547,-5.128971099853516,-0.6390209197998047,1352.877660036087
D4:22:CD:00:05:5D,169.93887329101562,-30.30158042907715,-130.74038696289062,-10.592376708984375,-14.582242965698242,14.48613166809082,1352.9071757793427
D4:22:CD:00:05:6B,-40.59834671020508,-37.45112228393555,-68.96760559082031,0.5011587142944336,-22.509769439697266,-2.2280187606811523,1352.9071757793427
D4:22:CD:00:49:AA,-165.86631774902344,-73.87237548828125,56.81240463256836,-3.376901149749756,-4.602246284484863,-1.2156000137329102,1352.9071757793427
D4:22:CD:00:05:6E,92.5107421875,-25.900455474853516,105.63741302490234,10.137332916259766,-2.2757463455200195,17.34799575805664,1352.9071757793427
D4:22:CD:00:05:5E,-116.2569351196289,-71.84284210205078,-78.30516052246094,-4.561577796936035,-5.603206634521484,-2.5190515518188477,1352.9071757793427
D4:22:CD:00:05:5D,166.3746795654297,-20.050561904907227,-128.0244903564453,-10.31849479675293,-17.781517028808594,17.08343505859375,1352.96737575531
D4:22:CD:00:05:6B,-46.74858093261719,-26.05019187927246,-69.16304016113281,-4.98626708984375,-17.728919982910156,-4.346672058105469,1352.96737575531
D4:22:CD:00:49:AA,-168.963623046875,-73.01634979248047,58.18770217895508,1.3444838523864746,-1.4315125942230225,0.8343114852905273,1352.96737575531
D4:22:CD:00:05:6E,94.530517578125,-5.2148542404174805,104.94580841064453,13.688823699951172,0.4161761999130249,12.925399780273438,1352.96737575531
D4:22:CD:00:05:5E,-120.54450988769531,-71.32972717285156,-74.48583221435547,-6.231339454650879,-3.5448155403137207,-1.0981521606445312,1352.96737575531
D4:22:CD:00:05:5D,162.22064208984375,-9.16536808013916,-127.21085357666016,-10.225135803222656,-13.781883239746094,6.919452667236328,1352.9979894161224
D4:22:CD:00:05:6B,-55.7699089050293,-16.5460262298584,-72.33501434326172,-10.193939208984375,-7.985955238342285,-3.07908296585083,1352.9979894161224
D4:22:CD:00:49:AA,-170.170654296875,-72.93983459472656,58.71549606323242,3.1929426193237305,1.948439598083496,6.547462463378906,1352.9979894161224
D4:22:CD:00:05:6E,90.99935913085938,15.072094917297363,99.0804443359375,10.934782028198242,6.515660285949707,14.65127182006836,1352.9979894161224
D4:22:CD:00:05:5E,-121.65693664550781,-71.49251556396484,-74.04457092285156,-5.672539710998535,-1.991222620010376,0.5538291931152344,1352.9979894161224
D4:22:CD:00:05:5D,161.42697143554688,-1.5994430780410767,-127.41490936279297,-3.2511563301086426,-3.2142300605773926,-5.6164960861206055,1353.0274217128754
D4:22:CD:00:05:6B,-61.59931945800781,-12.557642936706543,-77.53038787841797,-7.749961853027344,0.9714145660400391,-0.025954246520996094,1353.0274217128754
D4:22:CD:00:49:AA,-170.53785705566406,-72.65577697753906,57.98959732055664,4.109501838684082,-1.352175235748291,7.018486022949219,1353.0274217128754
D4:22:CD:00:05:6E,81.0242919921875,30.163314819335938,90.5715103149414,-6.373782157897949,2.1468048095703125,16.190147399902344,1353.0274217128754
D4:22:CD:00:05:5E,-118.76038360595703,-72.99654388427734,-77.51782989501953,-6.885335922241211,-2.5027694702148438,0.7950878143310547,1353.0274217128754
D4:22:CD:00:05:5D,162.60568237304688,-0.35041865706443787,-128.37228393554688,0.7709826231002808,4.950676918029785,-13.482349395751953,1353.0574209690094
D4:22:CD:00:05:6B,-66.52547454833984,-14.320928573608398,-83.3110580444336,-1.7355139255523682,3.8064374923706055,4.003368377685547,1353.0574209690094
D4:22:CD:00:49:AA,-172.9861297607422,-72.10884094238281,59.52303695678711,6.370148658752441,-1.3620574474334717,10.934850692749023,1353.0574209690094
D4:22:CD:00:05:6E,62.49665451049805,38.54192352294922,82.29299926757812,-19.84764862060547,6.3237810134887695,5.945365905761719,1353.0574209690094
D4:22:CD:00:05:5E,-107.72090148925781,-75.32467651367188,-89.75374603271484,-7.947168350219727,-3.2161006927490234,1.0207901000976562,1353.0574209690094
D4:22:CD:00:05:5D,163.55880737304688,-6.373739242553711,-129.57015991210938,-1.3662786483764648,4.539786338806152,-18.371383666992188,1353.0875642299652
D4:22:CD:00:05:6B,-71.54019927978516,-20.528684616088867,-89.46198272705078,-1.7873563766479492,5.439681053161621,2.9623632431030273,1353.0875642299652
D4:22:CD:00:49:AA,-176.00245666503906,-72.59503936767578,61.15337371826172,3.047954559326172,1.0318596363067627,10.606729507446289,1353.0875642299652
D4:22:CD:00:05:6E,39.940242767333984,43.18223190307617,77.51901245117188,-5.4134931564331055,-3.074002742767334,-12.859685897827148,1353.0875642299652
D4:22:CD:00:05:5E,-61.84734344482422,-76.65314483642578,-133.5304718017578,0.45475733280181885,-2.8622546195983887,8.456701278686523,1353.0875642299652
D4:22:CD:00:05:5D,162.6567840576172,-18.766454696655273,-130.92184448242188,-6.047421455383301,-1.2052257061004639,-17.94168472290039,1353.117635011673
D4:22:CD:00:05:6B,-75.66260528564453,-29.18376922607422,-94.4727554321289,0.7927091121673584,6.739276885986328,-0.16678333282470703,1353.117635011673
D4:22:CD:00:49:AA,-179.1739044189453,-73.49166107177734,62.81005859375,0.8819363117218018,0.22187259793281555,4.68602180480957,1353.117635011673
D4:22:CD:00:05:6E,30.087308883666992,47.356773376464844,78.62700653076172,8.081232070922852,-3.7860426902770996,-11.933691024780273,1353.117635011673
D4:22:CD:00:05:5E,-40.87506103515625,-73.3572998046875,-151.40139770507812,-7.066963195800781,-1.8653194904327393,2.8428239822387695,1353.117635011673
D4:22:CD:00:05:5D,160.03782653808594,-35.05147171020508,-132.00698852539062,-10.226734161376953,-3.639021873474121,-10.660188674926758,1353.176914215088
D4:22:CD:00:05:6B,-77.74603271484375,-38.412052154541016,-98.41691589355469,4.466794967651367,4.561148643493652,-4.061288833618164,1353.176914215088
D4:22:CD:00:49:AA,177.77267456054688,-74.57552337646484,64.72071075439453,2.0964694023132324,-1.2372701168060303,-4.337383270263672,1353.176914215088
D4:22:CD:00:05:6E,32.47793960571289,51.65467834472656,84.10987854003906,0.6731897592544556,-1.0305590629577637,-9.042150497436523,1353.176914215088
D4:22:CD:00:05:5E,-46.71977233886719,-73.90641021728516,-143.42782592773438,-28.392223358154297,4.167779922485352,-8.66594123840332,1353.176914215088
D4:22:CD:00:05:5D,157.5407257080078,-52.832435607910156,-132.5721893310547,-8.306417465209961,-5.439772605895996,-5.08796501159668,1353.182032585144
D4:22:CD:00:05:6B,-81.33219909667969,-46.275474548339844,-101.07212829589844,3.4612231254577637,2.2218241691589355,-6.579351425170898,1353.182032585144
D4:22:CD:00:49:AA,176.41452026367188,-75.44091033935547,64.65310668945312,-0.5420395135879517,-1.6302919387817383,-11.176361083984375,1353.182032585144
D4:22:CD:00:05:6E,37.25335693359375,55.50236129760742,93.61358642578125,-4.972574234008789,1.1471190452575684,-9.15186882019043,1353.182032585144
D4:22:CD:00:05:5E,-76.3223648071289,-74.36234283447266,-112.3974838256836,11.196676254272461,-2.2976250648498535,-8.872169494628906,1353.182032585144
D4:22:CD:00:05:5D,158.80001831054688,-71.95447540283203,-132.91285705566406,-4.197949409484863,-1.9043915271759033,9.862972259521484,1353.2075493335724
D4:22:CD:00:05:6B,-87.40164184570312,-50.58863067626953,-102.60136413574219,8.167732238769531,6.68619441986084,0.3839836120605469,1353.2075493335724
D4:22:CD:00:49:AA,-179.91818237304688,-75.63923645019531,60.49687957763672,-2.524028778076172,0.8607224225997925,-9.979398727416992,1353.2075493335724
D4:22:CD:00:05:6E,44.936614990234375,57.73209762573242,109.35541534423828,-1.263836145401001,2.385253429412842,-13.049680709838867,1353.2075493335724
D4:22:CD:00:05:5E,-86.73600769042969,-72.53711700439453,-106.76946258544922,18.93368148803711,-3.943042755126953,-15.697036743164062,1353.2075493335724
D4:22:CD:00:05:5D,-19.61089324951172,-87.5771484375,48.16775894165039,8.915082931518555,6.241580963134766,19.94571304321289,1353.267825126648
D4:22:CD:00:05:6B,-87.33660125732422,-51.14226531982422,-105.09943389892578,8.202861785888672,4.264233589172363,-1.2510957717895508,1353.267825126648
D4:22:CD:00:49:AA,-174.77723693847656,-77.51983642578125,54.718509674072266,4.309589385986328,1.9612045288085938,-9.195480346679688,1353.267825126648
D4:22:CD:00:05:6E,60.39615249633789,56.22918701171875,130.71783447265625,-6.549483299255371,4.691144943237305,-17.102535247802734,1353.267825126648
D4:22:CD:00:05:5E,-88.60718536376953,-72.74005126953125,-109.23051452636719,-14.970497131347656,-6.867741584777832,6.749387741088867,1353.267825126648
D4:22:CD:00:05:5D,-4.630540370941162,-71.15398406982422,42.71015167236328,21.531646728515625,15.185907363891602,9.579345703125,1353.2975704669952
D4:22:CD:00:05:6B,-82.6116943359375,-49.73111343383789,-108.07890319824219,5.002126693725586,0.5887248516082764,-4.231198310852051,1353.2975704669952
D4:22:CD:00:49:AA,-173.14170837402344,-80.61920928955078,51.303714752197266,2.9457244873046875,-0.8939577341079712,-11.451887130737305,1353.2975704669952
D4:22:CD:00:05:6E,75.0137710571289,49.983848571777344,149.21058654785156,-11.870933532714844,7.141762733459473,-20.95354461669922,1353.2975704669952
D4:22:CD:00:05:5E,-94.84246063232422,-72.65483093261719,-106.47769927978516,0.16194653511047363,-4.636674880981445,-5.246718406677246,1353.2975704669952
D4:22:CD:00:05:5D,-1.8450978994369507,-64.83394622802734,40.5465202331543,3.9848670959472656,30.193172454833984,-25.160755157470703,1353.3275694847107
D4:22:CD:00:05:6B,-78.06874084472656,-47.4433708190918,-110.36116790771484,0.7601677179336548,-1.509993076324463,-7.615260124206543,1353.3275694847107
D4:22:CD:00:49:AA,-174.53358459472656,-80.8651351928711,51.19285583496094,-1.7917795181274414,-1.122926950454712,-7.173142433166504,1353.3275694847107
D4:22:CD:00:05:6E,89.06568908691406,45.5684700012207,157.95556640625,-2.4994115829467773,-3.9056506156921387,-4.86652946472168,1353.3275694847107
D4:22:CD:00:05:5E,-103.34873962402344,-71.71473693847656,-100.90510559082031,-1.9277064800262451,-1.5474321842193604,-0.8483858108520508,1353.3275694847107
D4:22:CD:00:05:5D,-0.8995984792709351,-67.75971984863281,33.75870132446289,13.862539291381836,-4.163456916809082,-7.657893180847168,1353.35773062706
D4:22:CD:00:05:6B,-75.48552703857422,-45.72093200683594,-111.37728118896484,-0.017017513513565063,-0.9246714115142822,-5.056804656982422,1353.35773062706
D4:22:CD:00:49:AA,-163.6410369873047,-79.36776733398438,40.34038162231445,-1.0415775775909424,-1.1756565570831299,2.107935905456543,1353.35773062706
D4:22:CD:00:05:6E,96.87276458740234,50.23295593261719,156.90591430664062,-1.9536824226379395,2.0924835205078125,-0.6848297119140625,1353.35773062706
D4:22:CD:00:05:5E,-110.77162170410156,-70.17945861816406,-97.9787826538086,-3.6949338912963867,-6.6801347732543945,2.5382089614868164,1353.35773062706
D4:22:CD:00:05:5D,26.723169326782227,-74.01998138427734,14.231852531433105,11.705459594726562,5.720385551452637,0.04147911071777344,1353.3869709968567
D4:22:CD:00:05:6B,-73.10482788085938,-45.64874267578125,-111.60920715332031,-0.18562591075897217,-2.1213464736938477,-0.920196533203125,1353.3869709968567
D4:22:CD:00:49:AA,-155.493408203125,-78.94924926757812,33.146480560302734,7.070180892944336,-1.2194371223449707,6.304914474487305,1353.3869709968567
D4:22:CD:00:05:6E,93.05751037597656,60.10178756713867,148.78041076660156,0.19654834270477295,0.12874439358711243,-13.295463562011719,1353.3869709968567
D4:22:CD:00:05:5E,-107.65309143066406,-69.48731994628906,-100.70182800292969,-3.3392038345336914,-6.2166948318481445,5.212738990783691,1353.3869709968567
D4:22:CD:00:05:5D,65.76349639892578,-78.49374389648438,-16.212902069091797,-9.98444938659668,-9.279067993164062,11.606035232543945,1353.4175567626953
D4:22:CD:00:05:6B,-71.59357452392578,-47.56829071044922,-110.66294860839844,-0.4563802480697632,-4.2159881591796875,3.1110801696777344,1353.4175567626953
D4:22:CD:00:49:AA,-153.52769470214844,-78.4503402709961,31.06293487548828,7.005464553833008,-1.7578630447387695,0.6177024841308594,1353.4175567626953
D4:22:CD:00:05:6E,79.42271423339844,71.6706771850586,120.51449584960938,-1.9683444499969482,-5.517596244812012,-13.808910369873047,1353.4175567626953
D4:22:CD:00:05:5E,-102.99955749511719,-68.05147552490234,-103.85368347167969,-3.7838449478149414,-6.3717756271362305,4.788335800170898,1353.4175567626953
D4:22:CD:00:05:5D,81.83735656738281,-80.22480773925781,-36.7136116027832,3.1338448524475098,-19.071731567382812,3.0315065383911133,1353.4472110271454
D4:22:CD:00:05:6B,-71.99552917480469,-50.320220947265625,-108.02667236328125,0.9611378908157349,-3.944612503051758,11.392522811889648,1353.4472110271454
D4:22:CD:00:49:AA,-151.7040557861328,-76.2406005859375,29.02217674255371,3.3523712158203125,-2.230332374572754,7.177778244018555,1353.4472110271454
D4:22:CD:00:05:6E,39.68484878540039,71.08448791503906,63.02738952636719,-17.222545623779297,6.945529937744141,-7.203685760498047,1353.4472110271454
D4:22:CD:00:05:5E,-98.24571228027344,-65.64515686035156,-107.53875732421875,-4.307766914367676,-4.748007774353027,0.9139041900634766,1353.4472110271454
D4:22:CD:00:05:5D,106.02790832519531,-81.26788330078125,-59.03340148925781,-3.535144329071045,-0.5418896675109863,5.973569869995117,1353.4770085811615
D4:22:CD:00:05:6B,-71.04999542236328,-52.14231491088867,-104.88804626464844,1.6741106510162354,-6.149639129638672,13.017419815063477,1353.4770085811615
D4:22:CD:00:49:AA,-152.3400421142578,-74.2662124633789,30.800018310546875,1.8093948364257812,-0.13493633270263672,4.7275390625,1353.4770085811615
D4:22:CD:00:05:6E,20.350732803344727,57.7901611328125,35.41147232055664,-1.0155372619628906,-4.1242876052856445,-8.572805404663086,1353.4770085811615
D4:22:CD:00:05:5E,-95.34041595458984,-62.44625473022461,-109.0678482055664,-4.1488237380981445,-7.897482872009277,-0.790400505065918,1353.4770085811615
D4:22:CD:00:05:5D,127.30945587158203,-79.64552307128906,-74.7583236694336,-5.113659858703613,4.524662971496582,0.6964931488037109,1353.5077769756317
D4:22:CD:00:05:6B,-70.85413360595703,-51.315914154052734,-101.34276580810547,0.9472905397415161,-4.3101806640625,8.200551986694336,1353.5077769756317
D4:22:CD:00:49:AA,-154.66787719726562,-72.88912200927734,34.432952880859375,0.6901957988739014,-0.8650466203689575,-1.271550178527832,1353.5077769756317
D4:22:CD:00:05:6E,22.262048721313477,43.387001037597656,23.971044540405273,4.838102340698242,-7.684121131896973,-3.9422240257263184,1353.5077769756317
D4:22:CD:00:05:5E,-92.17693328857422,-58.78024673461914,-108.36094665527344,-3.223067283630371,-12.475759506225586,-0.4270963668823242,1353.5077769756317
D4:22:CD:00:05:5D,143.61228942871094,-78.1747055053711,-86.91899871826172,0.2945467233657837,0.8402584791183472,0.6659984588623047,1353.5674719810486
D4:22:CD:00:05:6B,-69.70951843261719,-48.576847076416016,-97.34209442138672,-0.19491791725158691,-5.045473098754883,-0.12491893768310547,1353.5674719810486
D4:22:CD:00:49:AA,-157.90512084960938,-71.41029357910156,40.05991744995117,-3.88472318649292,1.9170746803283691,2.1357040405273438,1353.5674719810486
D4:22:CD:00:05:6E,33.848060607910156,32.7895393371582,16.013864517211914,9.731033325195312,-6.7710065841674805,0.5114831924438477,1353.5674719810486
D4:22:CD:00:05:5E,-85.27392578125,-55.812686920166016,-105.09919738769531,-19.47541046142578,-11.493967056274414,-9.044193267822266,1353.5674719810486
D4:22:CD:00:05:5D,156.89027404785156,-76.61521911621094,-97.46073913574219,-1.025146484375,1.1662228107452393,0.5453634262084961,1353.5968687534332
D4:22:CD:00:05:6B,-71.59307861328125,-45.378746032714844,-92.67737579345703,-2.4577722549438477,0.20839691162109375,-2.1187896728515625,1353.5968687534332
D4:22:CD:00:49:AA,-160.2759246826172,-70.39803314208984,47.7691535949707,-6.834895133972168,1.1353142261505127,-0.6993093490600586,1353.5968687534332
D4:22:CD:00:05:6E,51.17200469970703,28.81059455871582,13.302268981933594,11.256057739257812,-19.040653228759766,-3.042552947998047,1353.5968687534332
D4:22:CD:00:05:5E,-84.91633605957031,-54.520267486572266,-94.54454040527344,-24.12872314453125,-13.332038879394531,-5.66986083984375,1353.5968687534332
D4:22:CD:00:05:5D,166.3278045654297,-74.84526062011719,-105.68737030029297,1.5317089557647705,-1.3437392711639404,-0.04622173309326172,1353.6273052692413
D4:22:CD:00:05:6B,-71.48182678222656,-43.338253021240234,-88.73674011230469,-0.9288997650146484,-1.087463617324829,-6.076145172119141,1353.6273052692413
D4:22:CD:00:49:AA,-162.3811798095703,-70.19622802734375,55.26813507080078,-1.3689968585968018,-0.22685357928276062,-1.6875410079956055,1353.6273052692413
D4:22:CD:00:05:6E,76.43839263916016,27.632678985595703,18.167884826660156,0.45416736602783203,6.339817047119141,-1.2562065124511719,1353.6273052692413
D4:22:CD:00:05:5E,-92.5047607421875,-53.74540710449219,-79.3878173828125,-11.623388290405273,-9.866182327270508,-9.846363067626953,1353.6273052692413
D4:22:CD:00:05:5D,172.16921997070312,-73.26490020751953,-110.47904968261719,1.8044490814208984,0.14953374862670898,0.47062206268310547,1353.657138824463
D4:22:CD:00:05:6B,-72.74190521240234,-42.93109893798828,-87.01050567626953,-0.1576450765132904,-0.20304211974143982,-3.658583641052246,1353.657138824463
D4:22:CD:00:49:AA,-163.0413360595703,-70.50639343261719,58.54726791381836,3.194258689880371,-0.4918057322502136,2.3201904296875,1353.657138824463
D4:22:CD:00:05:6E,87.59818267822266,24.679548263549805,22.406097412109375,-1.9566121101379395,13.264701843261719,16.112834930419922,1353.657138824463
D4:22:CD:00:05:5E,-105.31907653808594,-53.2830810546875,-63.24995040893555,-3.9961156845092773,-5.138118743896484,-12.857431411743164,1353.657138824463
D4:22:CD:00:05:5D,175.21734619140625,-72.19322967529297,-112.68175506591797,0.49946630001068115,0.6688401699066162,0.8457584381103516,1353.6873648166656
D4:22:CD:00:05:6B,-71.59881591796875,-43.37683868408203,-88.56623840332031,-0.9280737638473511,2.32999324798584,2.544060707092285,1353.6873648166656
D4:22:CD:00:49:AA,-164.06790161132812,-71.4874496459961,61.1757698059082,-0.3125133514404297,1.5424296855926514,1.5897455215454102,1353.6873648166656
D4:22:CD:00:05:6E,90.45140838623047,20.474393844604492,23.824934005737305,-1.6571321487426758,-1.7263784408569336,-4.776730537414551,1353.6873648166656
D4:22:CD:00:05:5E,-119.90773010253906,-53.03836441040039,-48.1414909362793,-2.3885011672973633,-0.9959927797317505,-13.405792236328125,1353.6873648166656
D4:22:CD:00:05:5D,177.4918975830078,-71.63111877441406,-114.75334167480469,-0.8129537105560303,0.6557601690292358,0.6022148132324219,1353.7178037166595
D4:22:CD:00:05:6B,-68.58590698242188,-43.359073638916016,-92.37519073486328,-3.2718400955200195,0.9568729400634766,1.6523466110229492,1353.7178037166595
D4:22:CD:00:49:AA,-167.5144500732422,-72.58160400390625,65.50321197509766,-2.208993911743164,3.162047863006592,1.504368782043457,1353.7178037166595
D4:22:CD:00:05:6E,101.6048355102539,13.921615600585938,24.625078201293945,5.649530410766602,4.143359184265137,5.183084487915039,1353.7178037166595
D4:22:CD:00:05:5E,-136.2917938232422,-52.78110885620117,-34.72970199584961,-5.01811408996582,0.21274325251579285,-12.891546249389648,1353.7178037166595
D4:22:CD:00:05:5D,179.49205017089844,-71.28290557861328,-117.52156066894531,-0.7585465908050537,-1.2938990592956543,-0.22994041442871094,1353.7468965053558
D4:22:CD:00:05:6B,-66.56245422363281,-42.344146728515625,-95.80961608886719,-2.8075356483459473,1.1020832061767578,-0.2387533187866211,1353.7468965053558
D4:22:CD:00:49:AA,-170.7109832763672,-74.0473403930664,68.8934097290039,-0.1513301134109497,-0.1530849039554596,-1.9735512733459473,1353.7468965053558
D4:22:CD:00:05:6E,105.420654296875,5.171455383300781,26.286226272583008,6.549239158630371,3.596827507019043,7.4281005859375,1353.7468965053558
D4:22:CD:00:05:5E,-153.25274658203125,-52.862911224365234,-23.043310165405273,-5.097390174865723,3.220582962036133,-7.352210998535156,1353.7468965053558
D4:22:CD:00:05:5D,-179.50802612304688,-70.40814208984375,-120.1158447265625,-1.5033986568450928,-0.10946010053157806,-0.503239631652832,1353.7773101329803
D4:22:CD:00:05:6B,-65.3087158203125,-40.210693359375,-98.82389068603516,-2.1070284843444824,-0.005701661109924316,-4.83262825012207,1353.7773101329803
D4:22:CD:00:49:AA,-176.57379150390625,-75.48961639404297,73.565673828125,2.5329346656799316,0.391740083694458,-6.064130783081055,1353.7773101329803
D4:22:CD:00:05:6E,101.79239654541016,-5.747155666351318,28.815664291381836,6.358832359313965,2.77911376953125,-3.9553723335266113,1353.7773101329803
D4:22:CD:00:05:5E,-165.88905334472656,-55.113346099853516,-13.095603942871094,5.513667106628418,3.928056240081787,-3.708387851715088,1353.7773101329803
D4:22:CD:00:05:5D,179.4879913330078,-67.47557067871094,-120.51382446289062,-0.35127294063568115,-2.745929718017578,-0.9805526733398438,1353.806876897812
D4:22:CD:00:05:6B,-64.51025390625,-37.39406967163086,-101.9468994140625,-0.27354902029037476,-0.03764686733484268,-6.886641502380371,1353.806876897812
D4:22:CD:00:49:AA,174.5753173828125,-76.30255126953125,79.70081329345703,1.6489753723144531,0.9757266044616699,-7.251699447631836,1353.806876897812
D4:22:CD:00:05:6E,99.86526489257812,-18.634599685668945,32.044307708740234,9.243364334106445,5.1328582763671875,-4.061728477478027,1353.806876897812
D4:22:CD:00:05:5E,-168.99684143066406,-61.1253776550293,-5.569336414337158,14.333572387695312,10.177791595458984,-4.505572319030762,1353.806876897812
D4:22:CD:00:05:5D,177.68052673339844,-63.394012451171875,-118.6497573852539,-0.5565758943557739,0.34647613763809204,-1.9467992782592773,1353.8670401573181
D4:22:CD:00:05:6B,-62.69615936279297,-34.39126968383789,-105.61707305908203,1.5932011604309082,-0.8607838153839111,-8.508230209350586,1353.8670401573181
D4:22:CD:00:49:AA,165.0874481201172,-76.38982391357422,86.17523193359375,-0.6624996662139893,0.542056679725647,-6.760825157165527,1353.8670401573181
D4:22:CD:00:05:6E,97.7950439453125,-32.058101654052734,34.61517333984375,6.758179664611816,4.547396659851074,8.374700546264648,1353.8670401573181
D4:22:CD:00:05:5E,-164.98724365234375,-65.8548812866211,1.5097192525863647,-25.502445220947266,-7.003238677978516,27.164695739746094,1353.8670401573181
D4:22:CD:00:05:5D,175.84034729003906,-58.739723205566406,-115.91703033447266,2.283845901489258,0.8578553199768066,-1.9585695266723633,1353.9008204936981
D4:22:CD:00:05:6B,-61.837459564208984,-31.307510375976562,-109.5209732055664,1.6843059062957764,0.388339102268219,-6.374111175537109,1353.9008204936981
D4:22:CD:00:49:AA,154.8843231201172,-75.8288803100586,93.93367767333984,-1.4153008460998535,0.3352089524269104,-3.832818031311035,1353.9008204936981
D4:22:CD:00:05:6E,84.17030334472656,-41.82440948486328,35.845821380615234,10.191520690917969,1.1677021980285645,10.794986724853516,1353.9008204936981
D4:22:CD:00:05:5E,-164.84722900390625,-68.09471893310547,2.0222392082214355,14.634965896606445,0.3907123804092407,9.13722038269043,1353.9008204936981
D4:22:CD:00:05:5D,175.3999786376953,-54.20195007324219,-114.02117919921875,4.794307708740234,-3.177949905395508,0.3392066955566406,1353.9278354644775
D4:22:CD:00:05:6B,-62.68803787231445,-27.5107479095459,-113.18382263183594,1.7437381744384766,1.6887264251708984,0.8185281753540039,1353.9278354644775
D4:22:CD:00:49:AA,145.1273956298828,-75.5544662475586,103.11434936523438,-3.0419631004333496,0.13888400793075562,1.0152311325073242,1353.9278354644775
D4:22:CD:00:05:6E,75.93118286132812,-43.33285140991211,34.261043548583984,16.233230590820312,4.959637641906738,-3.1433911323547363,1353.9278354644775
D4:22:CD:00:05:5E,-165.431396484375,-68.79574584960938,-0.8568820953369141,-1.095259666442871,7.0734405517578125,22.988285064697266,1353.9278354644775
D4:22:CD:00:05:5D,175.74288940429688,-50.99742889404297,-113.28270721435547,1.6150648593902588,2.6474251747131348,-0.10455989837646484,1353.957818031311
D4:22:CD:00:05:6B,-69.43096160888672,-20.018909454345703,-117.32402038574219,-0.7599973678588867,10.2054443359375,25.961811065673828,1353.957818031311
D4:22:CD:00:49:AA,143.62734985351562,-74.67838287353516,105.24578857421875,1.959907054901123,0.42878788709640503,6.401182174682617,1353.957818031311
D4:22:CD:00:05:6E,81.66808319091797,-37.66745376586914,29.713375091552734,18.045516967773438,10.940155029296875,8.339315414428711,1353.957818031311
D4:22:CD:00:05:5E,-163.73626708984375,-65.35613250732422,-3.9198060035705566,10.410741806030273,-4.931356430053711,13.708879470825195,1353.957818031311
D4:22:CD:00:05:5D,176.46127319335938,-49.58298110961914,-112.69151306152344,-1.5433979034423828,1.6931493282318115,3.803293228149414,1353.987233877182
D4:22:CD:00:05:6B,-66.9182357788086,-8.521829605102539,-122.2748794555664,4.048468589782715,5.350447654724121,23.586700439453125,1353.987233877182
D4:22:CD:00:49:AA,148.01170349121094,-72.97640228271484,101.4139404296875,0.9631016254425049,-1.9842617511749268,12.768148422241211,1353.987233877182
D4:22:CD:00:05:6E,90.30431365966797,-28.448522567749023,27.875505447387695,20.564456939697266,18.461933135986328,8.743219375610352,1353.987233877182
D4:22:CD:00:05:5E,-157.52273559570312,-61.65547561645508,-6.171093463897705,11.694997787475586,-12.420513153076172,14.65953254699707,1353.987233877182
D4:22:CD:00:05:5D,177.1531982421875,-49.91604995727539,-112.58915710449219,-0.4677828550338745,1.4047975540161133,2.805569648742676,1354.0171177387238
D4:22:CD:00:05:6B,-67.1651611328125,7.945839881896973,-124.47603607177734,10.234146118164062,-2.225203037261963,22.972179412841797,1354.0171177387238
D4:22:CD:00:49:AA,152.40774536132812,-72.09711456298828,97.07219696044922,-1.0458557605743408,-0.3641258478164673,10.339792251586914,1354.0171177387238
D4:22:CD:00:05:6E,99.6906509399414,-21.796157836914062,30.976797103881836,8.827926635742188,16.933605194091797,3.3858251571655273,1354.0171177387238
D4:22:CD:00:05:5E,-154.04135131835938,-58.221229553222656,-6.491526126861572,9.889705657958984,-9.364925384521484,6.4781494140625,1354.0171177387238
D4:22:CD:00:05:5D,177.9363250732422,-51.663169860839844,-112.86970520019531,-0.5520452260971069,1.5355398654937744,2.035676956176758,1354.0473968982697
D4:22:CD:00:05:6B,-55.524620056152344,25.81366729736328,-123.27288055419922,5.37287712097168,-10.511354446411133,11.356016159057617,1354.0473968982697
D4:22:CD:00:49:AA,157.7501678466797,-71.12637329101562,91.89217376708984,-0.9618345499038696,0.770710825920105,9.458234786987305,1354.0473968982697
D4:22:CD:00:05:6E,107.39900207519531,-21.862384796142578,36.81926727294922,0.3453923463821411,7.918998718261719,2.3918886184692383,1354.0473968982697
D4:22:CD:00:05:5E,-150.15675354003906,-59.24637985229492,-8.106276512145996,8.164382934570312,0.6206233501434326,2.6090621948242188,1354.0473968982697
D4:22:CD:00:05:5D,179.1914520263672,-54.71967315673828,-113.51274871826172,0.2881104350090027,1.1994786262512207,2.065646171569824,1354.0773856639862
D4:22:CD:00:05:6B,-37.73268508911133,41.77806854248047,-118.33768463134766,2.5157246589660645,-6.307158470153809,4.797739028930664,1354.0773856639862
D4:22:CD:00:49:AA,161.6090087890625,-70.8888931274414,88.92835235595703,-2.813685894012451,1.6565971374511719,10.397891998291016,1354.0773856639862
D4:22:CD:00:05:6E,113.12274932861328,-28.608705520629883,43.5511589050293,-4.0233964920043945,3.5521059036254883,1.320603370666504,1354.0773856639862
D4:22:CD:00:05:5E,-147.05824279785156,-63.878421783447266,-13.269388198852539,1.953550100326538,3.0292043685913086,2.6512441635131836,1354.0773856639862
D4:22:CD:00:05:5D,-178.84878540039062,-59.041324615478516,-114.4100341796875,-1.1231162548065186,1.2656350135803223,4.302619934082031,1354.1121408939362
D4:22:CD:00:05:6B,-17.43281364440918,52.80971908569336,-109.99913787841797,-2.035567283630371,-10.472043991088867,5.380332946777344,1354.1121408939362
D4:22:CD:00:49:AA,164.3240509033203,-72.8769760131836,88.8004150390625,-5.118690490722656,2.7711358070373535,5.77835750579834,1354.1121408939362
D4:22:CD:00:05:6E,121.86190032958984,-39.29924392700195,49.71440505981445,-4.349857330322266,-0.9746581315994263,4.306524276733398,1354.1121408939362
D4:22:CD:00:05:5E,-136.7645721435547,-71.71728515625,-25.488056182861328,-0.8715207576751709,3.1266932487487793,-0.43689727783203125,1354.1121408939362
D4:22:CD:00:05:5D,-178.0910186767578,-64.2849349975586,-114.82744598388672,-6.075777053833008,-2.163072109222412,8.75777816772461,1354.1671504974365
D4:22:CD:00:05:6B,4.884555816650391,60.27125549316406,-103.62079620361328,-3.739717483520508,-4.745573043823242,0.6415481567382812,1354.1671504974365
D4:22:CD:00:49:AA,170.0773468017578,-75.23031616210938,87.35003662109375,-2.8412132263183594,0.127305805683136,1.553201675415039,1354.1671504974365
D4:22:CD:00:05:6E,133.48712158203125,-51.325164794921875,55.355342864990234,-2.483736515045166,-3.5947256088256836,3.6704158782958984,1354.1671504974365
D4:22:CD:00:05:5E,-109.24884033203125,-80.00932312011719,-56.84521484375,2.009918212890625,2.8205738067626953,-2.142300605773926,1354.1671504974365
D4:22:CD:00:05:5D,179.9873046875,-70.51155090332031,-116.07366943359375,-7.09737491607666,-12.9228515625,5.561450004577637,1354.1977212429047
D4:22:CD:00:05:6B,22.26565170288086,64.8426284790039,-99.51419067382812,-0.42876875400543213,1.38409423828125,0.1279125213623047,1354.1977212429047
D4:22:CD:00:49:AA,-179.5199737548828,-76.8798828125,81.81768798828125,0.878929853439331,0.7239573001861572,-4.5387725830078125,1354.1977212429047
D4:22:CD:00:05:6E,145.58705139160156,-62.44073486328125,59.78390121459961,-6.111198425292969,-8.213190078735352,-0.9508457183837891,1354.1977212429047
D4:22:CD:00:05:5E,-33.40497970581055,-78.93687438964844,-137.31686401367188,-2.5193777084350586,2.492508888244629,0.2798595428466797,1354.1977212429047
D4:22:CD:00:05:5D,171.20797729492188,-72.61275482177734,-112.26346588134766,5.216396331787109,-1.347289800643921,-7.601153373718262,1354.2267537117004
D4:22:CD:00:05:6B,26.004688262939453,65.66400146484375,-98.19649505615234,-0.696790337562561,1.948082685470581,-1.9404935836791992,1354.2267537117004
D4:22:CD:00:49:AA,-170.57838439941406,-75.2532958984375,77.13847351074219,3.6622447967529297,1.104532241821289,-10.216487884521484,1354.2267537117004
D4:22:CD:00:05:6E,157.9034881591797,-71.73807525634766,57.57489776611328,-1.4610157012939453,-9.775789260864258,-6.211544990539551,1354.2267537117004
D4:22:CD:00:05:5E,-8.63437271118164,-65.58881378173828,-166.5846405029297,-13.157020568847656,2.913527011871338,2.3170690536499023,1354.2267537117004
