Device,EulerX,EulerY,EulerZ,FreeAccX,FreeAccY,FreeAccZ,Timestamp
D4:22:CD:00:05:5D,177.99012756347656,-62.5403938293457,-116.0599136352539,0.26002466678619385,1.6991264820098877,1.4299917221069336,2286.6931867599487
D4:22:CD:00:05:6B,-74.47747039794922,14.251501083374023,-37.50321578979492,3.7423105239868164,-0.16410839557647705,8.602449417114258,2286.6931867599487
D4:22:CD:00:49:AA,158.09210205078125,-78.25211334228516,121.2284927368164,-3.581674098968506,1.7514901161193848,2.262852668762207,2286.6931867599487
D4:22:CD:00:05:6E,99.9155502319336,-22.899335861206055,68.82395935058594,-3.0733375549316406,-1.350341558456421,-2.706932544708252,2286.6931867599487
D4:22:CD:00:05:5E,-170.860595703125,-52.75545120239258,-5.300766944885254,1.4749805927276611,2.317361831665039,-9.413871765136719,2286.6931867599487
D4:22:CD:00:05:5D,178.2735137939453,-65.5765151977539,-115.72799682617188,0.12476180493831635,1.7293756008148193,1.3225650787353516,2286.6961941719055
D4:22:CD:00:05:6B,-60.377220153808594,25.307207107543945,-34.15637969970703,-0.7196774482727051,-6.296392440795898,3.421257972717285,2286.6961941719055
D4:22:CD:00:49:AA,160.54806518554688,-78.03662872314453,118.97047424316406,-2.4908876419067383,2.0469727516174316,1.2751083374023438,2286.6961941719055
D4:22:CD:00:05:6E,97.45230865478516,-25.04261589050293,80.1309585571289,-3.041685104370117,-2.7950844764709473,-5.552430152893066,2286.6961941719055
D4:22:CD:00:05:5E,-166.5081024169922,-58.50918960571289,-11.543410301208496,1.3590946197509766,0.9423621892929077,-9.31320571899414,2286.6961941719055
D4:22:CD:00:05:5D,178.83860778808594,-69.46102142333984,-116.1944580078125,-0.2853701710700989,2.071014404296875,0.8421716690063477,2286.699194431305
D4:22:CD:00:05:6B,-44.27045822143555,33.431949615478516,-30.46927261352539,-2.988469123840332,-5.546558380126953,-2.5432629585266113,2286.699194431305
D4:22:CD:00:49:AA,161.99893188476562,-78.07246398925781,117.56105041503906,-1.6062629222869873,0.6992847919464111,-1.0117368698120117,2286.699194431305
D4:22:CD:00:05:6E,92.66239929199219,-30.03052520751953,91.60828399658203,-3.046468734741211,-4.0981245040893555,-4.699394226074219,2286.699194431305
D4:22:CD:00:05:5E,-159.5349884033203,-65.90611267089844,-19.443832397460938,-1.9932217597961426,-2.018533706665039,-6.761213302612305,2286.699194431305
D4:22:CD:00:49:AA,163.31753540039062,-78.31998443603516,116.63145446777344,-2.4067373275756836,0.5823003053665161,-3.8190054893493652,2286.7021946907043
D4:22:CD:00:05:6E,85.41645812988281,-35.89628601074219,102.96221160888672,-0.962797999382019,-5.977602958679199,-3.937243938446045,2286.7021946907043
D4:22:CD:00:05:5E,-150.28567504882812,-73.74092864990234,-30.59852409362793,-4.002038955688477,-3.793825626373291,-3.918884754180908,2286.7021946907043
D4:22:CD:00:05:5D,-124.6463623046875,-72.1529769897461,-149.3867645263672,-2.0665574073791504,1.1897518634796143,-0.7919082641601562,2286.704193353653
D4:22:CD:00:05:6B,-89.9688949584961,-60.64729309082031,-74.16529846191406,2.0291733741760254,-3.1159214973449707,-2.8573641777038574,2286.704193353653
D4:22:CD:00:05:6E,75.79308319091797,-41.23057556152344,113.79298400878906,0.7631045579910278,-6.184806823730469,-6.087693214416504,2286.704193353653
D4:22:CD:00:05:5D,-137.11924743652344,-71.909912109375,-136.35877990722656,-1.7153048515319824,1.2487621307373047,-0.8392171859741211,2286.7757408618927
D4:22:CD:00:05:6B,-83.87027740478516,-58.656620025634766,-82.51378631591797,2.332451343536377,2.8998870849609375,0.47267723083496094,2286.7757408618927
D4:22:CD:00:49:AA,-160.27418518066406,-81.86148834228516,88.97451782226562,-0.0016817115247249603,-0.3046901822090149,-1.477193832397461,2286.7757408618927
D4:22:CD:00:05:6E,20.601184844970703,-60.0788688659668,89.78913116455078,10.226879119873047,1.3252825736999512,3.249147415161133,2286.7757408618927
D4:22:CD:00:05:5E,12.821027755737305,-72.30524444580078,-94.98251342773438,4.050359725952148,-3.1715383529663086,16.668277740478516,2286.7757408618927
D4:22:CD:00:05:5D,-149.90237426757812,-70.49078369140625,-123.29942321777344,-2.880221366882324,2.470428943634033,0.020589828491210938,2286.806741476059
D4:22:CD:00:05:6B,-75.12274169921875,-52.0856819152832,-89.83888244628906,0.9893107414245605,3.29899263381958,2.3096141815185547,2286.806741476059
D4:22:CD:00:49:AA,-159.8340606689453,-81.59858703613281,86.74542999267578,-0.37120383977890015,-1.7271692752838135,-1.7797470092773438,2286.806741476059
D4:22:CD:00:05:6E,3.793792247772217,-54.38897705078125,109.44857788085938,-1.6645398139953613,13.611835479736328,8.768657684326172,2286.806741476059
D4:22:CD:00:05:5E,3.0570735931396484,-80.3876724243164,-85.73896026611328,0.06885316967964172,-2.009134292602539,14.06129264831543,2286.806741476059
D4:22:CD:00:05:5D,-159.49107360839844,-68.5328369140625,-114.20207977294922,-1.3977389335632324,2.9545836448669434,0.8264760971069336,2286.835755586624
D4:22:CD:00:05:6B,-74.48247528076172,-42.872074127197266,-91.6221923828125,-1.2898337841033936,5.049880027770996,6.031719207763672,2286.835755586624
D4:22:CD:00:49:AA,-157.077880859375,-78.49112701416016,83.70812225341797,-1.2717626094818115,-2.5291433334350586,6.668125152587891,2286.835755586624
D4:22:CD:00:05:6E,14.6353178024292,-62.505069732666016,103.5606918334961,-14.790855407714844,8.045370101928711,9.99781608581543,2286.835755586624
D4:22:CD:00:05:5E,-84.96431732177734,-85.54051971435547,1.9294915199279785,1.3623480796813965,-2.0181140899658203,10.247674942016602,2286.835755586624
D4:22:CD:00:05:5D,-164.46713256835938,-67.06214141845703,-109.20179748535156,-0.9435948133468628,2.0959415435791016,0.954005241394043,2286.866285800934
D4:22:CD:00:05:6B,-75.19693756103516,-29.68320655822754,-89.04063415527344,-0.07569599151611328,9.00832748413086,18.90605926513672,2286.866285800934
D4:22:CD:00:49:AA,-154.70631408691406,-75.12781524658203,82.78182220458984,2.488314628601074,0.32954657077789307,4.018531799316406,2286.866285800934
D4:22:CD:00:05:6E,43.013240814208984,-65.56446075439453,76.90343475341797,-3.619581699371338,-1.7117750644683838,6.860864639282227,2286.866285800934
D4:22:CD:00:05:5E,-130.70962524414062,-81.88255310058594,45.83185577392578,0.22493448853492737,-1.4244067668914795,6.243188858032227,2286.866285800934
D4:22:CD:00:05:5D,-167.21365356445312,-66.3912582397461,-106.11203002929688,-0.6895890235900879,1.922452449798584,0.9418535232543945,2286.8962829113007
D4:22:CD:00:05:6B,-71.48895263671875,-12.421588897705078,-84.1139144897461,5.514476776123047,2.5076050758361816,24.619037628173828,2286.8962829113007
D4:22:CD:00:49:AA,-157.3316650390625,-73.11996459960938,85.69223022460938,3.3507614135742188,1.2572405338287354,5.517367362976074,2286.8962829113007
D4:22:CD:00:05:6E,57.820674896240234,-63.098960876464844,68.83401489257812,-1.5126702785491943,-0.9801614284515381,-3.6663451194763184,2286.8962829113007
D4:22:CD:00:05:5E,-133.6668701171875,-79.46477508544922,48.1826286315918,-3.288076877593994,-1.8932149410247803,2.9931163787841797,2286.8962829113007
D4:22:CD:00:05:5D,-168.98080444335938,-66.75528717041016,-104.10778045654297,-0.6190276145935059,1.9892356395721436,1.1555585861206055,2286.9264163970947
D4:22:CD:00:05:6B,-55.94578170776367,5.742971897125244,-79.33495330810547,10.510894775390625,-9.96723747253418,18.73261260986328,2286.9264163970947
D4:22:CD:00:49:AA,-158.88307189941406,-72.90483856201172,87.88850402832031,-1.1838183403015137,2.6101880073547363,5.977922439575195,2286.9264163970947
D4:22:CD:00:05:6E,64.52240753173828,-64.44694519042969,70.99751281738281,-2.6308107376098633,-1.2345879077911377,-8.257160186767578,2286.9264163970947
D4:22:CD:00:05:5E,-119.06370544433594,-77.68638610839844,34.193668365478516,-3.044485092163086,-1.4094195365905762,-1.4329166412353516,2286.9264163970947
D4:22:CD:00:05:5D,-170.2154083251953,-68.27677917480469,-102.81861877441406,-0.5790799856185913,1.8279426097869873,0.9365196228027344,2286.9560561180115
D4:22:CD:00:05:6B,-32.941490173339844,22.11764144897461,-73.53985595703125,5.148059844970703,-12.726816177368164,6.05253791809082,2286.9560561180115
D4:22:CD:00:49:AA,-157.3616180419922,-73.75753784179688,87.48450469970703,-1.7957334518432617,2.737466335296631,2.3325891494750977,2286.9560561180115
D4:22:CD:00:05:6E,64.31047058105469,-69.6786117553711,78.56875610351562,-2.066704273223877,-3.173076629638672,-6.5821027755737305,2286.9560561180115
D4:22:CD:00:05:5E,-99.99932861328125,-75.5459976196289,14.453927040100098,-1.2599647045135498,0.40923911333084106,-5.606817245483398,2286.9560561180115
D4:22:CD:00:05:5D,-170.6160888671875,-70.71575164794922,-102.19979095458984,-0.37347090244293213,1.1964530944824219,0.49850940704345703,2287.0160558223724
D4:22:CD:00:05:6B,-9.136448860168457,35.331756591796875,-65.14727783203125,-5.6211442947387695,-12.187177658081055,1.9211597442626953,2287.0160558223724
D4:22:CD:00:49:AA,-153.65440368652344,-75.053466796875,85.0884017944336,-0.9168109893798828,1.9639389514923096,-0.42006969451904297,2287.0160558223724
D4:22:CD:00:05:6E,49.81865692138672,-75.65251159667969,99.00531005859375,-2.030083179473877,-5.484165191650391,-4.391922950744629,2287.0160558223724
D4:22:CD:00:05:5E,-81.28887939453125,-72.59668731689453,-6.730249881744385,0.5164872407913208,0.740358829498291,-7.045984268188477,2287.0160558223724
D4:22:CD:00:05:5D,-170.01060485839844,-73.62394714355469,-103.04779815673828,-1.6871092319488525,0.3675931692123413,0.03519153594970703,2287.045070171356
D4:22:CD:00:05:6B,11.911407470703125,45.18131637573242,-55.424224853515625,-9.315042495727539,-7.334519386291504,-5.6529083251953125,2287.045070171356
D4:22:CD:00:49:AA,-148.8092803955078,-76.34879302978516,81.91970825195312,-1.092949628829956,0.4174973964691162,-2.842559337615967,2287.045070171356
D4:22:CD:00:05:6E,15.571552276611328,-77.66033172607422,138.57330322265625,-1.0919079780578613,-5.5963239669799805,-4.902762413024902,2287.045070171356
D4:22:CD:00:05:5E,-63.1336669921875,-68.15275573730469,-28.33477783203125,3.5512943267822266,-2.085783004760742,-5.731614112854004,2287.045070171356
D4:22:CD:00:05:5D,-167.93832397460938,-76.4272232055664,-106.09890747070312,-1.0404119491577148,-0.21005254983901978,-0.3395853042602539,2287.0767681598663
D4:22:CD:00:05:6B,24.274717330932617,50.51183319091797,-43.265968322753906,-10.871286392211914,-1.8793363571166992,-8.833131790161133,2287.0767681598663
D4:22:CD:00:49:AA,-143.33399963378906,-77.36373138427734,78.16496276855469,-1.1351776123046875,0.09728546440601349,-4.164985656738281,2287.0767681598663
D4:22:CD:00:05:6E,-12.290797233581543,-73.7288818359375,173.27767944335938,-0.6163123846054077,-6.099699974060059,-4.634885787963867,2287.0767681598663
D4:22:CD:00:05:5E,-52.610748291015625,-61.83527374267578,-45.20826721191406,5.696819305419922,-7.439791679382324,-5.699954032897949,2287.0767681598663
D4:22:CD:00:05:5D,-165.0315399169922,-78.86161041259766,-110.4610824584961,0.38441431522369385,-0.27977585792541504,-1.3235998153686523,2287.1067690849304
D4:22:CD:00:05:6B,29.7305908203125,53.06373977661133,-33.914390563964844,-7.319879531860352,-3.0828256607055664,-10.335954666137695,2287.1067690849304
D4:22:CD:00:49:AA,-139.22352600097656,-77.8588638305664,75.93516540527344,-0.6530388593673706,0.28172510862350464,-4.352914810180664,2287.1067690849304
D4:22:CD:00:05:6E,-21.494096755981445,-67.5213623046875,-168.92791748046875,-2.356748580932617,-8.158634185791016,-5.734560966491699,2287.1067690849304
D4:22:CD:00:05:5E,-54.56999588012695,-56.35346984863281,-54.90089797973633,7.803305625915527,-15.012754440307617,-9.634033203125,2287.1067690849304
D4:22:CD:00:05:5D,-163.02915954589844,-81.12427520751953,-112.93638610839844,1.2275121212005615,0.0382235050201416,-0.5052919387817383,2287.1357786655426
D4:22:CD:00:05:6B,32.21443557739258,56.69645690917969,-32.388893127441406,-1.6052086353302002,1.332594633102417,-10.944026947021484,2287.1357786655426
D4:22:CD:00:49:AA,-134.65447998046875,-78.32524871826172,73.31688690185547,-1.0274059772491455,0.07384175062179565,-2.3548121452331543,2287.1357786655426
D4:22:CD:00:05:6E,-25.695898056030273,-61.717899322509766,-157.275390625,-2.6959166526794434,-8.116607666015625,-7.165894508361816,2287.1357786655426
D4:22:CD:00:05:5E,-64.45375061035156,-53.94919967651367,-59.251441955566406,2.907320499420166,-22.762447357177734,-15.469200134277344,2287.1357786655426
D4:22:CD:00:05:5D,-161.3328857421875,-83.47042083740234,-114.5576171875,-0.6834263801574707,0.4022406339645386,0.4454030990600586,2287.166323900223
D4:22:CD:00:05:6B,28.914316177368164,61.789825439453125,-39.44239044189453,2.050048351287842,1.6651840209960938,-11.791448593139648,2287.166323900223
D4:22:CD:00:49:AA,-129.22518920898438,-79.1868667602539,69.98119354248047,-1.2957549095153809,-0.2744339108467102,-2.048271656036377,2287.166323900223
D4:22:CD:00:05:6E,-29.66792106628418,-56.84596633911133,-146.65625,-2.1726603507995605,-7.499607086181641,-4.777227401733398,2287.166323900223
D4:22:CD:00:05:5E,-76.75527954101562,-55.7808723449707,-58.368446350097656,-7.428378105163574,-17.664531707763672,-14.77310562133789,2287.166323900223
D4:22:CD:00:05:5D,-162.98983764648438,-85.6689453125,-112.527099609375,1.1151583194732666,-2.0256857872009277,-1.7412586212158203,2287.19633936882
D4:22:CD:00:05:6B,13.811647415161133,66.51121520996094,-58.205047607421875,3.2722110748291016,0.191231369972229,-11.975688934326172,2287.19633936882
D4:22:CD:00:49:AA,-124.26179504394531,-80.68441009521484,66.77623748779297,-1.627249002456665,-0.1318453550338745,-2.340827465057373,2287.19633936882
D4:22:CD:00:05:6E,-32.05632781982422,-52.84108352661133,-136.5186767578125,-2.752285957336426,-8.988212585449219,-2.0150341987609863,2287.19633936882
D4:22:CD:00:05:5E,-81.55354309082031,-59.81527328491211,-51.986488342285156,6.07996940612793,-12.127347946166992,-5.304966926574707,2287.19633936882
D4:22:CD:00:05:5D,178.25611877441406,-86.12338256835938,-92.32036590576172,2.2585625648498535,-3.5482077598571777,-0.621485710144043,2287.2263209819794
D4:22:CD:00:05:6B,-14.565247535705566,66.96097564697266,-94.27793884277344,2.5537328720092773,-1.9197967052459717,-13.255983352661133,2287.2263209819794
D4:22:CD:00:49:AA,-123.37174224853516,-82.26634979248047,66.32825469970703,0.5332115888595581,0.8448411226272583,-0.6293907165527344,2287.2263209819794
D4:22:CD:00:05:6E,-32.860111236572266,-50.250850677490234,-127.78469848632812,-0.7623040676116943,-12.94528579711914,-1.3550357818603516,2287.2263209819794
D4:22:CD:00:05:5E,-75.2384033203125,-65.31810760498047,-49.90185546875,10.989749908447266,0.21183741092681885,-3.012817859649658,2287.2263209819794
D4:22:CD:00:05:5D,156.444091796875,-85.23424530029297,-69.06269073486328,-2.119807720184326,1.0508379936218262,0.4807243347167969,2287.2558636665344
D4:22:CD:00:05:6B,-38.205406188964844,57.55774688720703,-127.3989028930664,-7.404065132141113,-6.164764404296875,-19.548980712890625,2287.2558636665344
D4:22:CD:00:49:AA,-126.3821029663086,-84.42416381835938,67.94139862060547,1.4862210750579834,0.4554606080055237,1.762221336364746,2287.2558636665344
D4:22:CD:00:05:6E,-34.625972747802734,-49.947349548339844,-121.69397735595703,2.3024635314941406,-11.989568710327148,-3.4381790161132812,2287.2558636665344
D4:22:CD:00:05:5E,-67.3856201171875,-69.7104721069336,-51.37022399902344,4.110309600830078,-1.8465166091918945,4.671109199523926,2287.2558636665344
D4:22:CD:00:05:5D,137.9243927001953,-83.82781219482422,-50.29179000854492,-1.554194688796997,-0.4083530306816101,0.5089912414550781,2287.3158633708954
D4:22:CD:00:05:6B,-44.12459945678711,46.524654388427734,-146.18154907226562,-12.46200942993164,-5.942436218261719,-13.02903938293457,2287.3158633708954
D4:22:CD:00:49:AA,-116.31817626953125,-86.5839614868164,55.47995376586914,0.1473643183708191,-0.004307094030082226,0.8073854446411133,2287.3158633708954
D4:22:CD:00:05:6E,-39.392459869384766,-52.113033294677734,-118.12654876708984,2.666383743286133,-10.953140258789062,-3.3606929779052734,2287.3158633708954
D4:22:CD:00:05:5E,-68.99109649658203,-72.0653305053711,-49.043861389160156,1.5342252254486084,-3.907790184020996,16.655502319335938,2287.3158633708954
D4:22:CD:00:05:5D,122.71527862548828,-82.02435302734375,-34.329200744628906,-0.6816834211349487,0.8126083612442017,0.8771934509277344,2287.3458688259125
D4:22:CD:00:05:6B,-53.29353332519531,45.610984802246094,-148.31259155273438,3.8588342666625977,7.1204986572265625,-1.6007966995239258,2287.3458688259125
D4:22:CD:00:49:AA,-99.5211410522461,-87.36018371582031,36.53493118286133,0.16808509826660156,0.15707796812057495,-1.5242252349853516,2287.3458688259125
D4:22:CD:00:05:6E,-45.919464111328125,-55.75566864013672,-116.45804595947266,1.0912392139434814,-10.045400619506836,-0.5547676086425781,2287.3458688259125
D4:22:CD:00:05:5E,-79.07861328125,-74.08809661865234,-42.474876403808594,-4.125906944274902,-5.15675163269043,-2.4390311241149902,2287.3458688259125
D4:22:CD:00:05:5D,108.3634262084961,-80.44603729248047,-21.36430549621582,0.491463840007782,1.4068152904510498,0.009053230285644531,2287.3764700889587
D4:22:CD:00:05:6B,-54.86076736450195,49.2860221862793,-140.1167755126953,-14.16724967956543,0.14658737182617188,5.937042236328125,2287.3764700889587
D4:22:CD:00:49:AA,-114.31910705566406,-87.26920318603516,49.511104583740234,4.155234336853027,-0.6934508085250854,0.4326152801513672,2287.3764700889587
D4:22:CD:00:05:6E,-50.80833053588867,-59.45743179321289,-116.7618637084961,2.0127391815185547,-8.14455795288086,2.103515625,2287.3764700889587
D4:22:CD:00:05:5E,-72.46945190429688,-76.22445678710938,-48.03042221069336,6.247530937194824,-5.361528396606445,1.6983203887939453,2287.3764700889587
D4:22:CD:00:05:5D,93.51803588867188,-79.35992431640625,-10.711106300354004,4.170503616333008,0.11426116526126862,2.7056989669799805,2287.406558036804
D4:22:CD:00:05:6B,-30.792354583740234,49.6681022644043,-122.87968444824219,-7.28043270111084,10.396202087402344,-12.079511642456055,2287.406558036804
D4:22:CD:00:49:AA,-136.9595489501953,-85.51628875732422,69.3685073852539,7.217132568359375,1.1766901016235352,3.0048513412475586,2287.406558036804
D4:22:CD:00:05:6E,-50.850616455078125,-62.338783264160156,-120.53602600097656,-1.539663553237915,-5.558958053588867,0.6698007583618164,2287.406558036804
D4:22:CD:00:05:5E,-64.13963317871094,-77.99713134765625,-54.26639175415039,0.419266939163208,-5.725046157836914,-0.6913671493530273,2287.406558036804
D4:22:CD:00:05:5D,83.96118927001953,-78.51197052001953,-8.18387222290039,3.8303685188293457,6.474093437194824,2.09829044342041,2287.4365656375885
D4:22:CD:00:05:6B,-13.09333610534668,43.34392166137695,-100.23831939697266,-6.1710004806518555,2.9479851722717285,-9.429622650146484,2287.4365656375885
D4:22:CD:00:49:AA,-144.55003356933594,-84.22321319580078,73.59916687011719,8.914827346801758,0.8187450170516968,0.050510406494140625,2287.4365656375885
D4:22:CD:00:05:6E,-48.97703552246094,-65.28627014160156,-125.57344055175781,-5.020533561706543,-4.693056106567383,-1.6016178131103516,2287.4365656375885
D4:22:CD:00:05:5E,-58.542999267578125,-79.32901000976562,-59.751651763916016,1.1033306121826172,-5.081025123596191,-1.1350011825561523,2287.4365656375885
D4:22:CD:00:05:5D,98.595703125,-76.36001586914062,-30.607919692993164,8.874504089355469,18.788711547851562,5.3805952072143555,2287.4660902023315
D4:22:CD:00:05:6B,-5.471668243408203,31.633028030395508,-83.68572998046875,-3.618459701538086,4.4471845626831055,-10.063947677612305,2287.4660902023315
D4:22:CD:00:49:AA,-156.20066833496094,-82.46095275878906,82.45787811279297,0.9300512075424194,0.23142844438552856,1.7608222961425781,2287.4660902023315
D4:22:CD:00:05:6E,-48.571346282958984,-68.4990463256836,-131.00985717773438,-5.898871421813965,-1.7921037673950195,0.7326412200927734,2287.4660902023315
D4:22:CD:00:05:5E,-51.94623947143555,-79.89783477783203,-66.6968765258789,3.0012869834899902,-4.970566749572754,-1.8683791160583496,2287.4660902023315
D4:22:CD:00:05:5D,125.19694519042969,-68.32368469238281,-60.57954406738281,13.37479019165039,12.690004348754883,11.285514831542969,2287.4960901737213
D4:22:CD:00:05:6B,-4.775638103485107,16.218984603881836,-70.90565490722656,0.23661693930625916,0.24323511123657227,-10.434106826782227,2287.4960901737213
D4:22:CD:00:49:AA,-159.16094970703125,-81.29532623291016,84.79644775390625,-2.853980541229248,1.0952739715576172,0.9563417434692383,2287.4960901737213
D4:22:CD:00:05:6E,-44.48130798339844,-71.49728393554688,-137.42262268066406,-5.805357933044434,-0.2060493528842926,-0.05702400207519531,2287.4960901737213
D4:22:CD:00:05:5E,-48.25416564941406,-79.92858123779297,-71.64573669433594,2.0773210525512695,-4.814457893371582,-1.587677001953125,2287.4960901737213
D4:22:CD:00:05:5D,140.06800842285156,-56.567726135253906,-78.11112976074219,6.669532775878906,2.3938398361206055,6.368072509765625,2287.5262155532837
D4:22:CD:00:05:6B,-8.864663124084473,0.8367787599563599,-59.172176361083984,1.335482120513916,-4.907687187194824,-5.977380752563477,2287.5262155532837
D4:22:CD:00:49:AA,-159.45494079589844,-80.95664978027344,86.15325927734375,4.239219665527344,1.9795424938201904,0.20722103118896484,2287.5262155532837
D4:22:CD:00:05:6E,-36.073360443115234,-74.3841323852539,-144.84808349609375,-5.014025688171387,-0.9012577533721924,-1.6894187927246094,2287.5262155532837
D4:22:CD:00:05:5E,-50.714168548583984,-80.02238464355469,-71.6205825805664,1.3130183219909668,-3.8618364334106445,-1.5607147216796875,2287.5262155532837
D4:22:CD:00:05:5D,146.76580810546875,-44.792991638183594,-88.6814193725586,4.132495880126953,-5.466086387634277,-3.035247325897217,2287.5557656288147
D4:22:CD:00:05:6B,-14.781024932861328,-11.615278244018555,-48.527225494384766,2.33249568939209,-6.120247840881348,-2.3754568099975586,2287.5557656288147
D4:22:CD:00:49:AA,-161.8415069580078,-80.97552490234375,89.11863708496094,6.747723579406738,3.244251251220703,-0.4872303009033203,2287.5557656288147
D4:22:CD:00:05:6E,-24.463163375854492,-76.97467803955078,-155.05035400390625,-3.404332160949707,-2.231013298034668,-2.0265369415283203,2287.5557656288147
D4:22:CD:00:05:5E,-62.140079498291016,-80.34058380126953,-62.70395278930664,1.9560117721557617,-2.939643383026123,-1.6074514389038086,2287.5557656288147
D4:22:CD:00:05:5D,152.38455200195312,-34.22123336791992,-95.54326629638672,-0.6568437814712524,-5.330950736999512,-7.298127174377441,2287.6158542633057
D4:22:CD:00:05:6B,-21.79446792602539,-20.40961265563965,-39.893795013427734,0.9629161357879639,-2.494631290435791,1.1601133346557617,2287.6158542633057
D4:22:CD:00:49:AA,-168.09506225585938,-81.27816772460938,94.38298034667969,3.238426685333252,1.807880163192749,-3.0417890548706055,2287.6158542633057
D4:22:CD:00:05:6E,-7.626171112060547,-79.01744079589844,-170.9678497314453,-1.817234992980957,-1.780761480331421,-2.738272190093994,2287.6158542633057
D4:22:CD:00:05:5E,-79.33782958984375,-80.31828308105469,-47.67030715942383,1.919100284576416,-2.355142593383789,-1.4753427505493164,2287.6158542633057
D4:22:CD:00:05:5D,157.26028442382812,-25.793214797973633,-100.12628173828125,-2.9345078468322754,-2.4192891120910645,-10.32896614074707,2287.6458673477173
D4:22:CD:00:05:6B,-30.556476593017578,-26.64723014831543,-33.9553337097168,-2.369324207305908,-2.7351460456848145,-1.3481426239013672,2287.6458673477173
D4:22:CD:00:49:AA,-174.3607177734375,-81.3490982055664,99.21434020996094,0.7907363176345825,0.6039762496948242,-2.667222023010254,2287.6458673477173
D4:22:CD:00:05:6E,14.771890640258789,-79.93267822265625,167.5366668701172,-1.0019862651824951,-1.9282586574554443,-2.822249412536621,2287.6458673477173
D4:22:CD:00:05:5E,-94.89775848388672,-79.54206085205078,-32.837947845458984,1.5750703811645508,-2.8970656394958496,-0.8972177505493164,2287.6458673477173
D4:22:CD:00:05:5D,162.02090454101562,-19.876623153686523,-104.50897979736328,-2.289905548095703,-2.2105913162231445,-7.487719535827637,2287.6763939857483
D4:22:CD:00:05:6B,-35.69422912597656,-33.63020324707031,-29.051427841186523,-3.711517810821533,-1.1570353507995605,4.579878807067871,2287.6763939857483
D4:22:CD:00:49:AA,-177.35426330566406,-81.367919921875,101.37443542480469,-0.2535354495048523,0.36159902811050415,-2.117934226989746,2287.6763939857483
D4:22:CD:00:05:6E,35.7586555480957,-79.72017669677734,146.33018493652344,-0.9622100591659546,-6.0793304443359375,-2.0970287322998047,2287.6763939857483
D4:22:CD:00:05:5E,-107.05756378173828,-78.29684448242188,-20.45315170288086,1.8426713943481445,-3.7474775314331055,-1.2741374969482422,2287.6763939857483
D4:22:CD:00:05:5D,163.52879333496094,-17.441097259521484,-109.38253021240234,-7.260405540466309,-3.9236154556274414,-10.153100967407227,2287.706395149231
D4:22:CD:00:05:6B,-38.90400695800781,-41.90503692626953,-25.571075439453125,5.2240400314331055,0.7452987432479858,3.745891571044922,2287.706395149231
D4:22:CD:00:49:AA,-179.35430908203125,-81.90497589111328,103.20916748046875,0.7700340747833252,1.0818116664886475,-2.896829605102539,2287.706395149231
D4:22:CD:00:05:6E,44.28596496582031,-79.16352081298828,131.1147918701172,-1.8948850631713867,-5.784981727600098,-0.28560543060302734,2287.706395149231
D4:22:CD:00:05:5E,-116.93804168701172,-76.78055572509766,-10.454814910888672,1.373572587966919,-4.0940399169921875,-0.6803464889526367,2287.706395149231
D4:22:CD:00:05:5D,160.43240356445312,-18.378883361816406,-114.4140853881836,-11.376827239990234,-7.401853561401367,-11.358259201049805,2287.736402273178
D4:22:CD:00:05:6B,-36.54900360107422,-49.708003997802734,-29.94893455505371,9.110898971557617,-3.3106508255004883,19.46898651123047,2287.736402273178
D4:22:CD:00:49:AA,-178.2080535888672,-82.1735610961914,102.47779083251953,-0.6134907007217407,1.7248859405517578,-2.684439182281494,2287.736402273178
D4:22:CD:00:05:6E,31.250080108642578,-78.20331573486328,131.67446899414062,3.625288486480713,0.514417290687561,3.1340808868408203,2287.736402273178
D4:22:CD:00:05:5E,-123.89788818359375,-75.35762023925781,-3.3511152267456055,0.8424080610275269,-4.4974870681762695,-0.19546985626220703,2287.736402273178
D4:22:CD:00:05:5D,160.19790649414062,-21.54706573486328,-116.99812316894531,-15.410158157348633,-13.863325119018555,-7.499978065490723,2287.765945672989
D4:22:CD:00:05:6B,-28.800220489501953,-54.38520431518555,-40.456031799316406,19.92800521850586,-9.663036346435547,26.670299530029297,2287.765945672989
D4:22:CD:00:49:AA,-179.4983367919922,-82.33451080322266,104.403564453125,-1.5552079677581787,-1.2310829162597656,1.990570068359375,2287.765945672989
D4:22:CD:00:05:6E,27.2883243560791,-73.51676177978516,134.00738525390625,9.20074462890625,-4.619948387145996,8.413721084594727,2287.765945672989
D4:22:CD:00:05:5E,-128.745849609375,-74.56999206542969,1.4550354480743408,-0.10008741915225983,-4.262759208679199,0.5569286346435547,2287.765945672989
D4:22:CD:00:05:5D,166.5635528564453,-26.30854606628418,-116.00775909423828,-18.67245101928711,-12.168548583984375,7.076740264892578,2287.7961020469666
D4:22:CD:00:05:6B,-32.16883087158203,-52.031070709228516,-37.31884765625,17.579036712646484,-7.658726692199707,17.511287689208984,2287.7961020469666
D4:22:CD:00:49:AA,-178.73126220703125,-83.7009506225586,103.39031982421875,3.755539894104004,-1.278214693069458,2.562830924987793,2287.7961020469666
D4:22:CD:00:05:6E,36.92829895019531,-62.89290237426758,129.06539916992188,2.651772975921631,-13.998947143554688,18.624393463134766,2287.7961020469666
D4:22:CD:00:05:5E,-131.86097717285156,-74.77658081054688,4.5970635414123535,0.3241826891899109,-4.717654228210449,0.21122074127197266,2287.7961020469666
D4:22:CD:00:05:5D,171.1915283203125,-26.828136444091797,-111.45099639892578,-12.85477066040039,-4.535064697265625,25.754676818847656,2287.826101064682
D4:22:CD:00:05:6B,-41.23113250732422,-43.59145736694336,-27.774703979492188,11.625802993774414,-7.593999862670898,14.156455993652344,2287.826101064682
D4:22:CD:00:49:AA,-175.65476989746094,-82.64550018310547,100.37226867675781,2.3783507347106934,2.257615566253662,3.0315752029418945,2287.826101064682
D4:22:CD:00:05:6E,37.78654098510742,-48.11932373046875,126.02313995361328,8.609434127807617,-5.760418891906738,24.395103454589844,2287.826101064682
D4:22:CD:00:05:5E,-132.48509216308594,-75.73431396484375,5.175772190093994,0.8847842216491699,-5.497519493103027,-0.24201583862304688,2287.826101064682
D4:22:CD:00:05:5D,173.9940185546875,-24.677764892578125,-106.39009094238281,-5.109844207763672,-7.573488235473633,9.248371124267578,2287.855721473694
D4:22:CD:00:05:6B,-45.29619598388672,-33.43874740600586,-23.3134708404541,12.382667541503906,-8.332649230957031,4.292168617248535,2287.855721473694
D4:22:CD:00:49:AA,-177.84458923339844,-81.93082427978516,102.05393981933594,0.7870677709579468,-0.16876187920570374,6.527400970458984,2287.855721473694
D4:22:CD:00:05:6E,35.091365814208984,-30.03864288330078,124.83755493164062,5.465521812438965,-1.0110151767730713,21.01137924194336,2287.855721473694
D4:22:CD:00:05:5E,-129.1989288330078,-77.22584533691406,1.580494999885559,0.6405619382858276,-5.039735794067383,0.19689559936523438,2287.855721473694
D4:22:CD:00:05:5D,170.36778259277344,-22.294776916503906,-101.60984802246094,-5.831565856933594,-6.733512878417969,4.079044342041016,2287.9167211055756
D4:22:CD:00:05:6B,-47.148277282714844,-24.000213623046875,-22.970972061157227,6.293094635009766,-8.10908317565918,-2.0544486045837402,2287.9167211055756
D4:22:CD:00:49:AA,177.55628967285156,-82.26937103271484,106.80327606201172,1.8831291198730469,2.6659626960754395,3.688532829284668,2287.9167211055756
D4:22:CD:00:05:6E,29.08683967590332,-10.431675910949707,123.19718933105469,-2.3520026206970215,4.876458168029785,12.109359741210938,2287.9167211055756
D4:22:CD:00:05:5E,-120.52642059326172,-79.27723693847656,-7.657163619995117,0.23692643642425537,-5.111245155334473,0.4506797790527344,2287.9167211055756
D4:22:CD:00:05:5D,165.9044952392578,-21.091341018676758,-97.26622772216797,-1.0150573253631592,-3.810878276824951,-0.2775087356567383,2287.9457347393036
D4:22:CD:00:05:6B,-47.30501937866211,-16.69127655029297,-26.004608154296875,1.8727195262908936,-6.136894226074219,-7.858364105224609,2287.9457347393036
D4:22:CD:00:49:AA,171.38694763183594,-82.26396942138672,113.39083099365234,4.651984214782715,2.321967124938965,2.180337905883789,2287.9457347393036
D4:22:CD:00:05:6E,22.077136993408203,8.0082426071167,120.04010009765625,-6.734631538391113,5.208937644958496,2.9280757904052734,2287.9457347393036
D4:22:CD:00:05:5E,-100.35906982421875,-81.47940063476562,-27.84984016418457,0.7386212348937988,-4.3134870529174805,0.6980075836181641,2287.9457347393036
D4:22:CD:00:05:5D,162.4306640625,-21.41865348815918,-94.32721710205078,-0.08722391724586487,-0.6796153783798218,-2.774994373321533,2287.976270198822
D4:22:CD:00:05:6B,-49.97020721435547,-12.223492622375488,-31.02544403076172,-1.8884694576263428,-5.041040420532227,-8.38172721862793,2287.976270198822
D4:22:CD:00:49:AA,165.49464416503906,-81.7318115234375,119.26727294921875,3.3917970657348633,1.5456733703613281,1.3559331893920898,2287.976270198822
D4:22:CD:00:05:6E,14.25485897064209,23.049171447753906,115.16678619384766,-8.047136306762695,2.2611818313598633,-3.1757140159606934,2287.976270198822
D4:22:CD:00:05:5E,-68.16534423828125,-82.09103393554688,-59.42754364013672,1.6602251529693604,-3.4951677322387695,1.3551063537597656,2287.976270198822
D4:22:CD:00:05:5D,159.68910217285156,-23.340513229370117,-92.93409729003906,0.11287695169448853,0.32016289234161377,-6.229792594909668,2288.0062704086304
D4:22:CD:00:05:6B,-53.65498352050781,-11.141031265258789,-37.23281478881836,-4.440522193908691,-2.427885055541992,-7.006793975830078,2288.0062704086304
D4:22:CD:00:49:AA,160.9272003173828,-81.41963195800781,123.51329040527344,0.7196654081344604,1.2264127731323242,-1.6813459396362305,2288.0062704086304
D4:22:CD:00:05:6E,8.702301025390625,34.167259216308594,108.70584869384766,-7.7235260009765625,-0.8788464069366455,-7.186070442199707,2288.0062704086304
D4:22:CD:00:05:5E,-39.12842559814453,-80.292724609375,-86.26278686523438,1.1505188941955566,-2.6278562545776367,-0.298187255859375,2288.0062704086304
D4:22:CD:00:05:5D,157.59205627441406,-26.880191802978516,-92.42536926269531,-2.4264650344848633,0.14344355463981628,-8.323463439941406,2288.036374568939
D4:22:CD:00:05:6B,-56.32685852050781,-13.667160987854004,-44.15496063232422,-4.235486030578613,-0.17898571491241455,-6.023204803466797,2288.036374568939
D4:22:CD:00:49:AA,158.76510620117188,-80.89886474609375,125.75293731689453,0.4643549919128418,-0.1432301104068756,-3.7425899505615234,2288.036374568939
D4:22:CD:00:05:6E,6.656578540802002,41.8083610534668,102.47149658203125,-5.525798797607422,-2.353644371032715,-9.272659301757812,2288.036374568939
D4:22:CD:00:05:5E,-25.807748794555664,-77.56326293945312,-97.42654418945312,2.5862531661987305,-3.5791492462158203,-2.8576698303222656,2288.036374568939
D4:22:CD:00:05:5D,154.76010131835938,-32.190521240234375,-91.85125732421875,-2.6620802879333496,0.1366170346736908,-9.274330139160156,2288.0660037994385
D4:22:CD:00:05:6B,-57.933807373046875,-19.177833557128906,-51.10142517089844,-2.826590061187744,0.38053154945373535,-7.5389404296875,2288.0660037994385
D4:22:CD:00:49:AA,158.177734375,-80.15735626220703,126.72745513916016,1.038996934890747,0.47599393129348755,-2.7733678817749023,2288.0660037994385
D4:22:CD:00:05:6E,7.931441307067871,46.58033752441406,99.17607879638672,-2.349925994873047,-4.104147911071777,-11.467878341674805,2288.0660037994385
D4:22:CD:00:05:5E,-21.934253692626953,-75.30348205566406,-100.10575103759766,2.8714675903320312,-3.9639201164245605,-4.619203567504883,2288.0660037994385
D4:22:CD:00:05:5D,151.66656494140625,-38.98466873168945,-90.40711212158203,-1.8032844066619873,-0.9548803567886353,-8.747943878173828,2288.097004175186
D4:22:CD:00:05:6B,-59.06727981567383,-27.031227111816406,-58.03430938720703,-1.6231484413146973,0.8434587717056274,-7.074309349060059,2288.097004175186
D4:22:CD:00:49:AA,157.04693603515625,-79.68992614746094,128.25772094726562,2.242992877960205,0.4181397557258606,-2.297924518585205,2288.097004175186
D4:22:CD:00:05:6E,11.771110534667969,49.12962341308594,100.27143859863281,-4.024330139160156,-4.02159309387207,-10.551143646240234,2288.097004175186
D4:22:CD:00:05:5E,-22.276338577270508,-73.84333801269531,-98.88402557373047,2.611375331878662,-3.9965128898620605,-5.108633041381836,2288.097004175186
D4:22:CD:00:05:5D,147.72096252441406,-47.3563232421875,-87.04048156738281,-1.578439712524414,-1.5336689949035645,-6.070518493652344,2288.126003742218
D4:22:CD:00:05:6B,-59.685081481933594,-36.788394927978516,-65.37122344970703,-0.5201420783996582,0.1935427188873291,-7.472164154052734,2288.126003742218
D4:22:CD:00:49:AA,155.7261199951172,-79.45179748535156,129.50840759277344,2.5547099113464355,0.22923991084098816,-3.2596964836120605,2288.126003742218
D4:22:CD:00:05:6E,12.27163028717041,49.44132995605469,106.95807647705078,-0.0484076663851738,-2.927722930908203,-8.13525390625,2288.126003742218
D4:22:CD:00:05:5E,-25.427284240722656,-73.14483642578125,-94.82251739501953,2.557246685028076,-2.6844077110290527,-4.628668785095215,2288.126003742218
D4:22:CD:00:05:5D,141.5972137451172,-57.12221145629883,-80.62193298339844,2.115206718444824,-1.3679022789001465,-3.8188085556030273,2288.1555514335632
D4:22:CD:00:05:6B,-59.80694580078125,-47.762290954589844,-73.62036895751953,0.28270912170410156,0.1395951211452484,-4.445624351501465,2288.1555514335632
D4:22:CD:00:49:AA,154.18878173828125,-79.47821044921875,130.67068481445312,2.50191593170166,0.3216816782951355,-3.5758352279663086,2288.1555514335632
D4:22:CD:00:05:6E,11.257598876953125,47.61021041870117,121.24976348876953,-2.737851142883301,-3.2693872451782227,-7.945455551147461,2288.1555514335632
D4:22:CD:00:05:5E,-32.77678680419922,-73.3275375366211,-87.5601577758789,1.778200626373291,-3.8059635162353516,-1.341914176940918,2288.1555514335632
D4:22:CD:00:05:5D,134.0385284423828,-66.76679992675781,-68.36302185058594,6.173337936401367,-0.2412886619567871,0.3836240768432617,2288.216550588608
D4:22:CD:00:05:6B,-59.205909729003906,-59.1779899597168,-84.15655517578125,-0.5596437454223633,0.4512462615966797,-2.0277280807495117,2288.216550588608
D4:22:CD:00:49:AA,153.15354919433594,-79.67021942138672,131.6068878173828,2.008255958557129,-0.5453504323959351,-3.3021469116210938,2288.216550588608
D4:22:CD:00:05:6E,13.88310718536377,44.24705123901367,141.1124725341797,-13.624027252197266,16.101272583007812,-21.880348205566406,2288.216550588608
D4:22:CD:00:05:5E,-42.45902633666992,-73.29151153564453,-78.5794677734375,-0.40369343757629395,-3.1944684982299805,0.3776283264160156,2288.216550588608
D4:22:CD:00:05:5D,121.82474517822266,-73.51940155029297,-47.768898010253906,3.8755688667297363,12.34830093383789,7.825450897216797,2288.246566772461
D4:22:CD:00:05:6B,-51.22128677368164,-71.41638946533203,-101.61354064941406,-0.9615857601165771,1.4254703521728516,1.7718067169189453,2288.246566772461
D4:22:CD:00:49:AA,152.63345336914062,-80.2503662109375,132.63238525390625,1.2500250339508057,-0.42228245735168457,-2.9258065223693848,2288.246566772461
D4:22:CD:00:05:6E,26.99937629699707,43.82164001464844,151.70285034179688,-9.066400527954102,-0.06179708242416382,-8.265430450439453,2288.246566772461
D4:22:CD:00:05:5E,-51.85698699951172,-72.41078186035156,-70.028076171875,3.7806735038757324,-5.4546098709106445,2.864889144897461,2288.246566772461
D4:22:CD:00:05:5D,115.19428253173828,-74.20711517333984,-35.404300689697266,7.46112060546875,25.380615234375,3.8131723403930664,2288.276098251343
D4:22:CD:00:05:6B,-16.187978744506836,-82.62073516845703,-148.4418182373047,-3.248080253601074,0.06982576847076416,7.767002105712891,2288.276098251343
D4:22:CD:00:49:AA,154.18212890625,-80.91511535644531,132.03271484375,4.177753448486328,-0.057752564549446106,-0.8028841018676758,2288.276098251343
D4:22:CD:00:05:6E,33.967132568359375,47.92866134643555,145.1255340576172,-4.578474998474121,-9.43429183959961,-1.3936033248901367,2288.276098251343
D4:22:CD:00:05:5E,-56.254642486572266,-70.46721649169922,-64.45638275146484,2.3100476264953613,-3.4002766609191895,4.349254608154297,2288.276098251343
D4:22:CD:00:05:5D,126.15770721435547,-72.00678253173828,-42.453739166259766,17.204090118408203,-1.306243896484375,-1.217799186706543,2288.306097984314
D4:22:CD:00:05:6B,58.192481994628906,-82.42475128173828,118.52932739257812,-3.2882580757141113,9.395576477050781,12.962911605834961,2288.306097984314
D4:22:CD:00:49:AA,157.38375854492188,-80.65914916992188,129.6732940673828,7.126384735107422,0.3318973779678345,4.117438316345215,2288.306097984314
D4:22:CD:00:05:6E,22.97933578491211,52.10700988769531,129.67213439941406,-7.530472755432129,0.18646952509880066,-8.54475212097168,2288.306097984314
D4:22:CD:00:05:5E,-57.18746566772461,-68.15247344970703,-60.31035232543945,5.919980049133301,-3.6198081970214844,7.177656173706055,2288.306097984314
D4:22:CD:00:05:5D,135.5420684814453,-71.58145141601562,-51.524906158447266,1.8852334022521973,-7.726336479187012,3.8393611907958984,2288.3361122608185
D4:22:CD:00:05:6B,38.449493408203125,-86.01155090332031,121.45787048339844,7.909005165100098,3.6142168045043945,6.156469345092773,2288.3361122608185
D4:22:CD:00:49:AA,158.7312469482422,-80.32915496826172,128.49951171875,0.4305505156517029,-2.204995632171631,4.370953559875488,2288.3361122608185
D4:22:CD:00:05:6E,8.199760437011719,53.5750732421875,107.2034912109375,1.8072535991668701,3.929690361022949,-9.162582397460938,2288.3361122608185
D4:22:CD:00:05:5E,-59.04010772705078,-65.6943359375,-55.149471282958984,12.705770492553711,-5.361620903015137,2.9017629623413086,2288.3361122608185
D4:22:CD:00:05:5D,144.76087951660156,-71.55113983154297,-60.93067169189453,-4.8217363357543945,-4.530543327331543,6.879312515258789,2288.366646051407
D4:22:CD:00:05:6B,-73.02802276611328,-87.91578674316406,-116.97346496582031,8.019720077514648,16.204818725585938,9.637479782104492,2288.366646051407
D4:22:CD:00:49:AA,159.70965576171875,-79.74874877929688,129.2776336669922,-2.199077606201172,-4.7957353591918945,1.4960908889770508,2288.366646051407
D4:22:CD:00:05:6E,2.657996892929077,49.754634857177734,83.42499542236328,-1.9308464527130127,-3.1296567916870117,-7.567292213439941,2288.366646051407
D4:22:CD:00:05:5E,-71.72929382324219,-64.697265625,-43.72732925415039,3.65885066986084,-28.053062438964844,-10.028112411499023,2288.366646051407
D4:22:CD:00:05:5D,153.26678466796875,-70.58106994628906,-67.05765533447266,0.22909674048423767,-3.22860050201416,2.447643280029297,2288.3963923454285
D4:22:CD:00:05:6B,-60.3204460144043,-86.5789794921875,-102.95698547363281,-3.3445301055908203,-3.5818276405334473,2.2990665435791016,2288.3963923454285
D4:22:CD:00:49:AA,162.9086151123047,-78.67481231689453,128.66925048828125,-4.395909309387207,-1.7270667552947998,-0.26590824127197266,2288.3963923454285
D4:22:CD:00:05:6E,1.5270410776138306,41.314659118652344,64.91561889648438,-2.0352325439453125,-3.56331729888916,-8.336339950561523,2288.3963923454285
D4:22:CD:00:05:5E,-99.54973602294922,-63.250099182128906,-20.56360626220703,-0.28969424962997437,-24.342945098876953,-0.041640281677246094,2288.3963923454285
D4:22:CD:00:05:5D,161.0665283203125,-69.58320617675781,-72.48490142822266,2.5357089042663574,1.5620758533477783,-0.23474979400634766,2288.425683259964
D4:22:CD:00:05:6B,-47.23909378051758,-84.30463409423828,-98.92951965332031,1.9806427955627441,-8.748916625976562,-4.382061004638672,2288.425683259964
D4:22:CD:00:49:AA,167.09889221191406,-78.0906753540039,126.49903869628906,-4.475733757019043,3.086277484893799,-1.2792720794677734,2288.425683259964
D4:22:CD:00:05:6E,3.8476531505584717,31.13712501525879,51.13374710083008,2.334639549255371,-6.0146484375,-8.859966278076172,2288.425683259964
D4:22:CD:00:05:5E,-118.33524322509766,-59.13727951049805,0.24258024990558624,3.0727381706237793,-11.312410354614258,-1.5618104934692383,2288.425683259964
D4:22:CD:00:05:5D,165.41346740722656,-68.92304992675781,-75.41862487792969,5.120113372802734,0.78801429271698,-0.07501220703125,2288.4562332630157
D4:22:CD:00:05:6B,-58.02391815185547,-80.52116394042969,-87.30230712890625,-0.8023514747619629,-9.095172882080078,-3.1464486122131348,2288.4562332630157
D4:22:CD:00:49:AA,171.12709045410156,-77.69742584228516,123.32271575927734,0.06298057734966278,2.8079066276550293,-0.4921073913574219,2288.4562332630157
D4:22:CD:00:05:6E,10.406919479370117,21.548908233642578,40.16886901855469,6.733290672302246,-7.811107635498047,-8.047367095947266,2288.4562332630157
D4:22:CD:00:05:5E,-126.82994842529297,-54.784210205078125,15.080875396728516,0.3695331811904907,-2.7184629440307617,-5.717443466186523,2288.4562332630157
D4:22:CD:00:05:5D,168.94210815429688,-68.18110656738281,-75.67652130126953,-1.3237130641937256,0.5165122747421265,1.0184917449951172,2288.5162270069122
D4:22:CD:00:05:6B,-66.9455795288086,-77.20150756835938,-84.57762908935547,-4.808846473693848,-4.377345085144043,-0.21172714233398438,2288.5162270069122
D4:22:CD:00:49:AA,171.12155151367188,-77.56008911132812,123.61873626708984,-1.7617101669311523,1.891709566116333,0.8175544738769531,2288.5162270069122
D4:22:CD:00:05:6E,22.26036834716797,14.467842102050781,31.706859588623047,6.923977851867676,-10.312376022338867,-3.3134593963623047,2288.5162270069122
D4:22:CD:00:05:5E,-131.1327362060547,-50.96991729736328,26.408679962158203,-2.475207805633545,-0.16507488489151,-10.871267318725586,2288.5162270069122
D4:22:CD:00:05:5D,171.0603485107422,-67.45665740966797,-76.17219543457031,-4.203184127807617,-0.4150022864341736,1.0465545654296875,2288.546240568161
D4:22:CD:00:05:6B,-69.43423461914062,-75.17103576660156,-86.93724060058594,-5.526198387145996,-4.105288505554199,0.3334484100341797,2288.546240568161
D4:22:CD:00:49:AA,170.11521911621094,-78.03099822998047,125.17414855957031,-5.027970314025879,0.7563828229904175,2.0522232055664062,2288.546240568161
D4:22:CD:00:05:6E,41.93106460571289,10.141081809997559,27.59032440185547,0.5617302656173706,-11.012353897094727,-11.67924690246582,2288.546240568161
D4:22:CD:00:05:5E,-136.93331909179688,-47.7252311706543,36.330867767333984,-2.711902141571045,0.17500677704811096,-12.293338775634766,2288.546240568161
D4:22:CD:00:05:5D,173.43585205078125,-66.79039764404297,-78.8296890258789,-1.7708804607391357,-0.4771987795829773,0.26111888885498047,2288.5757653713226
D4:22:CD:00:05:6B,-69.9396743774414,-74.16932678222656,-89.1376953125,-4.336137771606445,-3.961597442626953,0.014955520629882812,2288.5757653713226
D4:22:CD:00:49:AA,169.20143127441406,-78.82086944580078,126.07347869873047,-0.8893133401870728,0.34455257654190063,-0.3903923034667969,2288.5757653713226
D4:22:CD:00:05:6E,60.64156723022461,5.660735130310059,26.098251342773438,-9.476150512695312,14.78095817565918,6.888210296630859,2288.5757653713226
D4:22:CD:00:05:5E,-145.65899658203125,-45.47428512573242,45.74647521972656,-3.7229270935058594,0.8928734064102173,-9.64925765991211,2288.5757653713226
D4:22:CD:00:05:5D,176.4061737060547,-66.29457092285156,-82.49994659423828,0.09051290154457092,0.8646198511123657,0.5498943328857422,2288.6058270931244
D4:22:CD:00:05:6B,-71.91278076171875,-73.78553771972656,-89.26345825195312,-3.8994908332824707,-2.660198211669922,0.30747032165527344,2288.6058270931244
D4:22:CD:00:49:AA,164.8526153564453,-79.36725616455078,129.83914184570312,1.295588731765747,2.1764378547668457,1.0508737564086914,2288.6058270931244
D4:22:CD:00:05:6E,63.65848922729492,0.4328263998031616,21.723257064819336,-4.433384895324707,-2.2066726684570312,7.425632476806641,2288.6058270931244
D4:22:CD:00:05:5E,-154.91551208496094,-44.75788116455078,54.22860336303711,-3.2280964851379395,0.8263845443725586,-7.547598838806152,2288.6058270931244
D4:22:CD:00:05:5D,179.12928771972656,-66.21620178222656,-85.35430908203125,1.5427236557006836,0.48143714666366577,0.2925148010253906,2288.6358342170715
D4:22:CD:00:05:6B,-74.43083953857422,-74.10401916503906,-88.22140502929688,-3.9927783012390137,-2.1284375190734863,1.1612892150878906,2288.6358342170715
D4:22:CD:00:49:AA,157.5598907470703,-79.97746276855469,136.18910217285156,-0.8456559181213379,0.15438777208328247,2.2701663970947266,2288.6358342170715
D4:22:CD:00:05:6E,72.36152648925781,-5.557615280151367,17.889474868774414,-0.37670522928237915,-7.171298980712891,-6.143004417419434,2288.6358342170715
D4:22:CD:00:05:5E,-162.37484741210938,-46.26976776123047,61.70027542114258,-2.600363254547119,0.2558271288871765,-4.665831565856934,2288.6358342170715
D4:22:CD:00:05:5D,-179.1167755126953,-66.33653259277344,-86.79036712646484,0.7689449787139893,0.07135069370269775,0.19115447998046875,2288.666478395462
D4:22:CD:00:05:6B,-76.98961639404297,-74.87551879882812,-86.63299560546875,-2.9051718711853027,-1.796609878540039,0.7058687210083008,2288.666478395462
D4:22:CD:00:49:AA,147.4613037109375,-80.6606216430664,145.33033752441406,-4.318273544311523,-0.22121232748031616,-1.6249628067016602,2288.666478395462
D4:22:CD:00:05:6E,85.6517562866211,-13.899951934814453,14.589780807495117,-3.891021251678467,7.036022186279297,6.780948638916016,2288.666478395462
D4:22:CD:00:05:5E,-167.19969177246094,-50.248958587646484,68.08935546875,-1.352234125137329,2.403398036956787,-3.62728214263916,2288.666478395462
D4:22:CD:00:05:5D,-178.1846923828125,-66.51775360107422,-87.45683288574219,0.24426814913749695,-0.025998353958129883,0.14624404907226562,2288.6964786052704
D4:22:CD:00:05:6B,-80.23746490478516,-75.49282836914062,-84.75101470947266,-1.2266266345977783,-0.6810907125473022,-0.3152627944946289,2288.6964786052704
D4:22:CD:00:49:AA,137.60496520996094,-80.79854583740234,154.60362243652344,-3.611240863800049,0.8250709772109985,-1.3863344192504883,2288.6964786052704
D4:22:CD:00:05:6E,89.44867706298828,-26.2374324798584,10.4437255859375,4.090258598327637,3.509521484375,4.731534004211426,2288.6964786052704
D4:22:CD:00:05:5E,-168.61322021484375,-57.16841125488281,72.54486083984375,-1.77101731300354,6.335097312927246,-3.1661834716796875,2288.6964786052704
D4:22:CD:00:05:5D,-177.8865203857422,-66.65056610107422,-87.36347198486328,0.9110392332077026,-0.3470637798309326,-0.1459360122680664,2288.7266352176666
D4:22:CD:00:05:6B,-83.98815155029297,-75.86502075195312,-83.30748748779297,-0.6741858720779419,0.5150936841964722,-0.590489387512207,2288.7266352176666
D4:22:CD:00:49:AA,130.7537841796875,-80.49980163574219,161.30972290039062,-1.657271385192871,1.2142910957336426,-0.4813356399536133,2288.7266352176666
D4:22:CD:00:05:6E,87.6254653930664,-42.32207489013672,6.8007049560546875,11.134330749511719,-0.3728508949279785,13.553104400634766,2288.7266352176666
D4:22:CD:00:05:5E,-165.08384704589844,-66.97781372070312,77.1600570678711,-2.1513800621032715,-17.495437622070312,14.27579116821289,2288.7266352176666
D4:22:CD:00:05:5D,-178.1654052734375,-66.4949951171875,-86.45697784423828,0.8700053691864014,-0.6465699672698975,-0.43734264373779297,2288.756181001663
D4:22:CD:00:05:6B,-88.04004669189453,-75.73050689697266,-83.35286712646484,-0.10909384489059448,0.6272993087768555,-1.3227624893188477,2288.756181001663
D4:22:CD:00:49:AA,127.02102661132812,-80.08145141601562,164.69827270507812,-1.280885934829712,1.3340940475463867,-1.793252944946289,2288.756181001663
D4:22:CD:00:05:6E,76.40780639648438,-56.58848190307617,8.365340232849121,13.207073211669922,-6.711158752441406,31.579750061035156,2288.756181001663
D4:22:CD:00:05:5E,-165.0982208251953,-69.33985137939453,79.39311218261719,8.558616638183594,16.299362182617188,4.34568977355957,2288.756181001663
D4:22:CD:00:05:5D,-178.73841857910156,-66.0406265258789,-85.2389144897461,0.16528671979904175,-0.5428023338317871,-0.3476905822753906,2288.81618142128
D4:22:CD:00:05:6B,-88.93892669677734,-74.7588119506836,-85.57347106933594,1.527843952178955,5.620365142822266,0.8483991622924805,2288.81618142128
D4:22:CD:00:49:AA,123.992431640625,-79.83832550048828,166.95697021484375,-0.0038927015848457813,0.06789261102676392,-2.203348159790039,2288.81618142128
D4:22:CD:00:05:6E,64.02418518066406,-59.63283157348633,12.666114807128906,12.181356430053711,-6.728150367736816,9.695356369018555,2288.81618142128
D4:22:CD:00:05:5E,-165.49859619140625,-71.89028930664062,79.76717376708984,5.657414436340332,9.572090148925781,7.977443695068359,2288.81618142128
D4:22:CD:00:05:5D,-179.4871063232422,-65.50047302246094,-84.63624572753906,-0.9117162227630615,-0.08475364744663239,0.07780742645263672,2288.8461952209473
D4:22:CD:00:05:6B,-89.3094253540039,-71.72757720947266,-87.22518920898438,2.108841896057129,6.107593536376953,1.9295768737792969,2288.8461952209473
D4:22:CD:00:49:AA,122.42269897460938,-79.6842269897461,167.35060119628906,2.6028084754943848,-0.22939720749855042,-2.2372446060180664,2288.8461952209473
D4:22:CD:00:05:6E,69.59696197509766,-53.288352966308594,7.92960786819458,12.472070693969727,-6.165550231933594,6.113480567932129,2288.8461952209473
D4:22:CD:00:05:5E,-169.42572021484375,-71.5433349609375,78.02391815185547,2.2914018630981445,9.566497802734375,17.059192657470703,2288.8461952209473
D4:22:CD:00:05:5D,179.52197265625,-65.00428771972656,-84.25601196289062,-0.5076526403427124,0.41008681058883667,0.5225162506103516,2288.8758783340454
D4:22:CD:00:05:6B,-87.4489517211914,-65.66578674316406,-90.25627136230469,4.758188247680664,7.0019636154174805,5.956936836242676,2288.8758783340454
D4:22:CD:00:49:AA,122.73738098144531,-79.4545669555664,165.59132385253906,-3.3604679107666016,-1.6886186599731445,2.838438034057617,2288.8758783340454
D4:22:CD:00:05:6E,75.84512329101562,-42.10881423950195,6.361576557159424,10.160394668579102,-1.3970541954040527,15.888269424438477,2288.8758783340454
D4:22:CD:00:05:5E,-164.69500732421875,-70.82007598876953,73.81539916992188,1.1639294624328613,8.334413528442383,7.956518173217773,2288.8758783340454
D4:22:CD:00:05:5D,178.93731689453125,-65.1220474243164,-84.4911880493164,-0.4138187766075134,1.0482573509216309,1.1112966537475586,2288.9058780670166
D4:22:CD:00:05:6B,-86.33206176757812,-56.51520538330078,-93.20836639404297,5.612627029418945,9.916034698486328,10.218990325927734,2288.9058780670166
D4:22:CD:00:49:AA,129.03514099121094,-78.79957580566406,159.15591430664062,-4.193414688110352,-1.9629502296447754,4.8739213943481445,2288.9058780670166
D4:22:CD:00:05:6E,76.13501739501953,-30.819108963012695,10.708200454711914,13.811773300170898,4.297926902770996,2.568596839904785,2288.9058780670166
D4:22:CD:00:05:5E,-159.93626403808594,-67.33201599121094,69.60205841064453,3.0562658309936523,1.1824443340301514,9.355613708496094,2288.9058780670166
