Device,EulerX,EulerY,EulerZ,FreeAccX,FreeAccY,FreeAccZ,Timestamp
D4:22:CD:00:05:5D,-177.152587890625,-53.703216552734375,-81.05538940429688,0.1625729203224182,0.9268484115600586,2.0818119049072266,428.68678975105286
D4:22:CD:00:05:6B,-35.84223556518555,-25.856098175048828,-25.366493225097656,1.6232056617736816,4.1042280197143555,3.8165054321289062,428.68678975105286
D4:22:CD:00:49:AA,146.13465881347656,-74.09778594970703,132.57919311523438,-5.641927719116211,0.21157288551330566,7.175525665283203,428.68678975105286
D4:22:CD:00:05:6E,105.595947265625,-11.716318130493164,0.21119427680969238,5.1602582931518555,6.048230171203613,0.8880681991577148,428.68678975105286
D4:22:CD:00:05:5E,172.68304443359375,-23.921390533447266,-42.935882568359375,6.700984954833984,0.2611438035964966,-6.494447708129883,428.68678975105286
D4:22:CD:00:05:5D,-175.77745056152344,-56.4029541015625,-81.55591583251953,0.48585009574890137,1.1486320495605469,2.060274124145508,428.6977961063385
D4:22:CD:00:05:6B,-19.220781326293945,-18.547521591186523,-25.383779525756836,-7.861326217651367,-0.24332523345947266,2.6676645278930664,428.6977961063385
D4:22:CD:00:49:AA,155.1909942626953,-72.74413299560547,126.09717559814453,-5.192547798156738,0.5444990396499634,5.431892395019531,428.6977961063385
D4:22:CD:00:05:6E,112.39354705810547,-16.191022872924805,8.135690689086914,-2.811953544616699,3.9868593215942383,2.633936882019043,428.6977961063385
D4:22:CD:00:05:5E,173.9121856689453,-35.25202560424805,-39.97943878173828,4.581051826477051,-0.7584731578826904,-1.2916440963745117,428.6977961063385
D4:22:CD:00:05:6B,-4.928051471710205,-14.294840812683105,-26.458377838134766,-9.45130729675293,-3.9054603576660156,1.886270523071289,428.7057888507843
D4:22:CD:00:49:AA,162.67025756835938,-71.61799621582031,122.35430145263672,-4.776467323303223,-0.05286841094493866,3.025040626525879,428.7057888507843
D4:22:CD:00:05:6E,116.97028350830078,-25.034425735473633,15.077719688415527,-4.175200462341309,0.6856107711791992,0.6890106201171875,428.7057888507843
D4:22:CD:00:05:5E,170.04656982421875,-47.17927551269531,-34.406219482421875,1.2933621406555176,-0.4760901927947998,5.141628265380859,428.7057888507843
D4:22:CD:00:05:5D,142.5684051513672,-59.68100357055664,-104.30183410644531,0.21608516573905945,-0.9929111003875732,0.40749645233154297,428.7097895145416
D4:22:CD:00:05:6E,121.37214660644531,-35.165138244628906,20.91684341430664,-4.117545127868652,-0.1314370036125183,-1.8981637954711914,428.7097895145416
D4:22:CD:00:05:5E,158.1039276123047,-57.1667594909668,-25.099571228027344,-0.029498476535081863,5.50864315032959,10.349267959594727,428.7097895145416
D4:22:CD:00:05:5D,156.1434326171875,-63.74473571777344,-123.90067291259766,1.0789053440093994,-3.6021642684936523,-3.3480710983276367,428.7117896080017
D4:22:CD:00:05:6B,-82.34516143798828,-79.68639373779297,-96.13070678710938,-0.9756736755371094,0.6823416948318481,-2.5701284408569336,428.7117896080017
D4:22:CD:00:49:AA,130.81729125976562,-80.4174575805664,156.38426208496094,0.4336944818496704,2.050492286682129,-7.776476860046387,428.7117896080017
D4:22:CD:00:05:5D,160.32203674316406,-62.67216491699219,-126.38101196289062,0.15459540486335754,0.059224337339401245,0.19379329681396484,428.75392746925354
D4:22:CD:00:05:6B,-84.97321319580078,-67.86747741699219,-101.2300033569336,-0.6568492650985718,5.178926467895508,11.83370590209961,428.75392746925354
D4:22:CD:00:49:AA,108.68035888671875,-78.28204345703125,176.04977416992188,-4.299290657043457,-0.49626511335372925,0.2713451385498047,428.75392746925354
D4:22:CD:00:05:6E,70.0211181640625,-52.73222732543945,79.47785949707031,3.5040245056152344,20.376327514648438,10.058191299438477,428.75392746925354
D4:22:CD:00:05:5E,-66.92120361328125,-81.20191955566406,-58.511436462402344,-4.961432456970215,-1.911750078201294,20.58480453491211,428.75392746925354
D4:22:CD:00:05:5D,163.0504150390625,-61.10266876220703,-127.14662170410156,1.9259998798370361,0.4400184154510498,-0.0016765594482421875,428.78502345085144
D4:22:CD:00:05:6B,-85.72415161132812,-52.388980865478516,-103.18363952636719,1.456634283065796,0.15318673849105835,20.447044372558594,428.78502345085144
D4:22:CD:00:49:AA,112.84187316894531,-80.80506134033203,171.5398712158203,-1.7039365768432617,-3.0135960578918457,1.786590576171875,428.78502345085144
D4:22:CD:00:05:6E,105.45896911621094,-73.3541030883789,50.1512451171875,5.841114044189453,10.675487518310547,13.447595596313477,428.78502345085144
D4:22:CD:00:05:5E,-128.58663940429688,-70.0490493774414,3.3840532302856445,11.491449356079102,-6.353518486022949,13.857086181640625,428.78502345085144
D4:22:CD:00:05:5D,166.17559814453125,-60.2475471496582,-129.52137756347656,3.728940010070801,-1.6723854541778564,-0.07879352569580078,428.81468892097473
D4:22:CD:00:05:6B,-83.5389633178711,-36.49478530883789,-105.01917266845703,1.339583396911621,0.7712763547897339,20.848377227783203,428.81468892097473
D4:22:CD:00:49:AA,140.7195587158203,-81.5291976928711,143.4580841064453,3.5135092735290527,0.7220286130905151,4.172856330871582,428.81468892097473
D4:22:CD:00:05:6E,150.9143829345703,-83.4708480834961,16.151351928710938,-8.586896896362305,-0.01670580357313156,10.580066680908203,428.81468892097473
D4:22:CD:00:05:5E,-160.5237579345703,-74.23673248291016,34.14786148071289,6.235306739807129,1.9660696983337402,8.049659729003906,428.81468892097473
D4:22:CD:00:05:5D,169.25296020507812,-60.155609130859375,-133.22935485839844,-0.2916410565376282,1.3737022876739502,1.8612403869628906,428.8744032382965
D4:22:CD:00:05:6B,-78.85916137695312,-19.566972732543945,-104.45465087890625,2.1919631958007812,2.5851354598999023,15.868030548095703,428.8744032382965
D4:22:CD:00:49:AA,155.99124145507812,-79.27778625488281,127.24519348144531,-1.489375352859497,-3.4502172470092773,8.312326431274414,428.8744032382965
D4:22:CD:00:05:6E,-162.964599609375,-84.61199188232422,-23.478187561035156,-4.707536697387695,0.7494672536849976,-3.19747257232666,428.8744032382965
D4:22:CD:00:05:5E,173.46578979492188,-75.46578979492188,57.92124938964844,-7.551002502441406,0.16218143701553345,3.3179826736450195,428.8744032382965
D4:22:CD:00:05:5D,171.973388671875,-60.69403839111328,-136.51348876953125,0.6221802234649658,0.6475783586502075,1.0292940139770508,428.904403924942
D4:22:CD:00:05:6B,-68.525146484375,-0.7873578071594238,-100.3870620727539,0.32152819633483887,5.187752723693848,16.205097198486328,428.904403924942
D4:22:CD:00:49:AA,164.906982421875,-77.37712860107422,117.76117706298828,-1.8695001602172852,0.31304216384887695,4.655951499938965,428.904403924942
D4:22:CD:00:05:6E,-82.31892395019531,-79.55500030517578,-100.0106430053711,-9.712841033935547,-4.2295989990234375,-8.676752090454102,428.904403924942
D4:22:CD:00:05:5E,-179.43629455566406,-78.08155822753906,58.49482727050781,-10.247766494750977,4.687146186828613,-0.8105525970458984,428.904403924942
D4:22:CD:00:05:5D,174.43946838378906,-61.8928337097168,-139.9912872314453,0.6697217226028442,0.7614912986755371,1.2026128768920898,428.9346432685852
D4:22:CD:00:05:6B,-50.54153060913086,19.333162307739258,-93.05365753173828,-4.08126163482666,-12.128030776977539,7.025457382202148,428.9346432685852
D4:22:CD:00:49:AA,171.08529663085938,-76.55191040039062,111.37177276611328,-1.0063955783843994,1.977811336517334,6.802593231201172,428.9346432685852
D4:22:CD:00:05:6E,-69.57547760009766,-66.19607543945312,-114.70533752441406,-10.188438415527344,-11.464363098144531,-14.698326110839844,428.9346432685852
D4:22:CD:00:05:5E,-140.63487243652344,-82.69503021240234,26.669681549072266,-6.458054542541504,0.2183203101158142,-3.1366424560546875,428.9346432685852
D4:22:CD:00:05:5D,177.45578002929688,-63.7900390625,-143.48983764648438,1.0035600662231445,0.8508404493331909,1.8576593399047852,428.964396238327
D4:22:CD:00:05:6B,-33.40120315551758,36.92625045776367,-81.9915542602539,-3.211101531982422,-18.104175567626953,1.4937248229980469,428.964396238327
D4:22:CD:00:49:AA,172.33790588378906,-76.81672668457031,109.27230834960938,-1.1151087284088135,1.493872880935669,4.418574333190918,428.964396238327
D4:22:CD:00:05:6E,-66.40007781982422,-53.381797790527344,-117.8438949584961,-3.228579044342041,-7.816771507263184,-9.257390975952148,428.964396238327
D4:22:CD:00:05:5E,-67.4628677368164,-81.0596923828125,-41.85065460205078,-4.44155216217041,-1.7736778259277344,-4.178550720214844,428.964396238327
D4:22:CD:00:05:5D,-179.47195434570312,-66.2544937133789,-146.7919158935547,0.5359281301498413,-1.011263370513916,2.6085329055786133,428.9944350719452
D4:22:CD:00:05:6B,-15.69316577911377,49.720062255859375,-69.24567413330078,-3.2153191566467285,-18.19921875,-4.918214797973633,428.9944350719452
D4:22:CD:00:49:AA,172.02432250976562,-76.68812561035156,108.43451690673828,-2.638845443725586,-0.0066597918048501015,3.060601234436035,428.9944350719452
D4:22:CD:00:05:6E,-56.19533920288086,-42.1042594909668,-117.84564208984375,-8.51146125793457,-12.697748184204102,-14.152835845947266,428.9944350719452
D4:22:CD:00:05:5E,-40.61471939086914,-72.84676361083984,-69.04964447021484,-1.223287582397461,-6.264890670776367,-3.6191954612731934,428.9944350719452
D4:22:CD:00:05:5D,-177.7400360107422,-69.61214447021484,-148.95147705078125,0.7990015745162964,-3.258845806121826,2.959181785583496,429.0244448184967
D4:22:CD:00:05:6B,2.776292324066162,58.832298278808594,-57.50666809082031,-0.8026251792907715,-13.018007278442383,-10.878257751464844,429.0244448184967
D4:22:CD:00:49:AA,171.94065856933594,-77.30050659179688,107.91656494140625,-5.225094795227051,-0.9985203742980957,2.1638059616088867,429.0244448184967
D4:22:CD:00:05:6E,-56.90151596069336,-32.68867492675781,-114.60743713378906,-2.537980079650879,-12.946062088012695,-17.487815856933594,429.0244448184967
D4:22:CD:00:05:5E,-34.31092834472656,-65.01210021972656,-80.27993774414062,3.8622212409973145,-13.037969589233398,-4.71592903137207,429.0244448184967
D4:22:CD:00:05:5D,-177.1668243408203,-73.19548797607422,-150.2296142578125,-0.8313724994659424,-2.044747829437256,1.6734428405761719,429.0544583797455
D4:22:CD:00:05:6B,21.062183380126953,65.40579223632812,-45.356414794921875,-0.7146878242492676,-7.113409042358398,-10.01860237121582,429.0544583797455
D4:22:CD:00:49:AA,176.9730224609375,-78.877685546875,103.74310302734375,-3.959555149078369,-0.8718909025192261,-1.6225357055664062,429.0544583797455
D4:22:CD:00:05:6E,-60.910274505615234,-24.601274490356445,-110.29291534423828,-1.680976152420044,-9.097379684448242,-9.866260528564453,429.0544583797455
D4:22:CD:00:05:5E,-35.236351013183594,-59.264862060546875,-88.18521881103516,1.7859623432159424,-16.249343872070312,-4.931980133056641,429.0544583797455
D4:22:CD:00:05:5D,-178.62672424316406,-76.5820083618164,-149.27264404296875,-0.9202739000320435,0.42651838064193726,-1.875415325164795,429.0839743614197
D4:22:CD:00:05:6B,36.494903564453125,68.9197769165039,-34.15143966674805,-1.192612886428833,-4.582659721374512,-8.109403610229492,429.0839743614197
D4:22:CD:00:49:AA,-173.24545288085938,-79.65221405029297,95.95384979248047,-2.741786003112793,-0.27402663230895996,-4.872546195983887,429.0839743614197
D4:22:CD:00:05:6E,-57.910675048828125,-17.70570182800293,-105.76873016357422,-2.0571393966674805,-12.569936752319336,-8.32569694519043,429.0839743614197
D4:22:CD:00:05:5E,-36.977413177490234,-55.01807403564453,-94.74992370605469,-2.394221782684326,-13.759607315063477,-7.274704933166504,429.0839743614197
D4:22:CD:00:05:5D,178.00584411621094,-79.92705535888672,-144.0760040283203,1.6439862251281738,0.6685175895690918,-3.468379497528076,429.1139748096466
D4:22:CD:00:05:6B,44.841102600097656,71.1789321899414,-29.456724166870117,-1.5034735202789307,-4.703886032104492,-7.569214820861816,429.1139748096466
D4:22:CD:00:49:AA,-165.58499145507812,-80.06189727783203,90.85748291015625,-2.803222179412842,0.43132030963897705,-6.083896636962891,429.1139748096466
D4:22:CD:00:05:6E,-48.34476089477539,-13.30562686920166,-101.64371490478516,-0.6267467737197876,-11.836174011230469,-10.510208129882812,429.1139748096466
D4:22:CD:00:05:5E,-36.4633903503418,-52.22437286376953,-100.7210464477539,-0.5049710273742676,-10.201648712158203,-9.260482788085938,429.1139748096466
D4:22:CD:00:05:5D,172.59019470214844,-82.7435531616211,-136.17025756835938,1.5872082710266113,1.3648486137390137,-4.2393083572387695,429.17448329925537
D4:22:CD:00:05:6B,44.46892547607422,74.0289306640625,-33.99811935424805,-1.1767196655273438,-1.656395435333252,-8.151962280273438,429.17448329925537
D4:22:CD:00:49:AA,-161.18528747558594,-80.81196594238281,89.1454086303711,-2.80389404296875,-0.8432977199554443,-6.980308532714844,429.17448329925537
D4:22:CD:00:05:6E,-37.87242889404297,-12.42463207244873,-98.63375091552734,3.130084991455078,-8.352025985717773,-13.02157211303711,429.17448329925537
D4:22:CD:00:05:5E,-34.066741943359375,-50.94336700439453,-106.27519226074219,-5.387289047241211,-10.198261260986328,-15.179058074951172,429.17448329925537
D4:22:CD:00:05:5D,164.64126586914062,-84.62097930908203,-125.15306854248047,1.951084852218628,-0.953537106513977,-3.868718147277832,429.2045440673828
D4:22:CD:00:05:6B,31.790180206298828,77.58827209472656,-51.83897399902344,-0.48511070013046265,0.11428309977054596,-9.181913375854492,429.2045440673828
D4:22:CD:00:49:AA,-158.08157348632812,-81.76508331298828,89.47488403320312,-1.5359394550323486,-2.4818458557128906,-6.839896202087402,429.2045440673828
D4:22:CD:00:05:6E,-31.25372314453125,-14.820170402526855,-97.2535629272461,5.803093910217285,-5.888950347900391,-13.245555877685547,429.2045440673828
D4:22:CD:00:05:5E,-34.8302001953125,-53.39421081542969,-108.13941192626953,-4.6032609939575195,-8.808809280395508,-16.737689971923828,429.2045440673828
D4:22:CD:00:05:5D,152.82191467285156,-84.98233795166016,-109.74187469482422,1.4993197917938232,0.14073681831359863,-3.049551486968994,429.2340383529663
D4:22:CD:00:05:6B,-5.814420223236084,78.63423919677734,-95.56129455566406,-0.10359576344490051,-0.9818506240844727,-9.807914733886719,429.2340383529663
D4:22:CD:00:49:AA,-154.28219604492188,-82.64171600341797,90.22091674804688,0.3791087865829468,-2.9266862869262695,-5.4380598068237305,429.2340383529663
D4:22:CD:00:05:6E,-28.51565170288086,-18.659048080444336,-97.567626953125,6.210097312927246,-6.32435417175293,-10.879989624023438,429.2340383529663
D4:22:CD:00:05:5E,-42.921295166015625,-58.40260696411133,-101.23332977294922,-26.137065887451172,-4.791377067565918,4.246587753295898,429.2340383529663
D4:22:CD:00:05:5D,143.1749725341797,-84.07466888427734,-97.6273422241211,-1.1092915534973145,0.261050283908844,-1.4195213317871094,429.2649927139282
D4:22:CD:00:05:6B,-42.135047912597656,71.23693084716797,-138.81333923339844,0.7951337099075317,2.8104939460754395,-9.81039047241211,429.2649927139282
D4:22:CD:00:49:AA,-154.16233825683594,-83.00933837890625,93.09850311279297,0.8283548355102539,-1.9120888710021973,-2.674506664276123,429.2649927139282
D4:22:CD:00:05:6E,-27.466915130615234,-21.692615509033203,-98.90933990478516,4.71299934387207,-7.6919660568237305,-8.598726272583008,429.2649927139282
D4:22:CD:00:05:5E,-44.748878479003906,-61.27244567871094,-94.7325210571289,20.016433715820312,-10.51555061340332,-1.6281633377075195,429.2649927139282
D4:22:CD:00:05:5D,134.86627197265625,-82.8480224609375,-87.2080307006836,-0.2586219310760498,0.041320838034152985,1.1108484268188477,429.29499435424805
D4:22:CD:00:05:6B,-56.27910232543945,56.49312973022461,-159.32357788085938,-8.961006164550781,-0.055520057678222656,-18.29079818725586,429.29499435424805
D4:22:CD:00:49:AA,-158.44052124023438,-82.86260223388672,98.51936340332031,1.1149539947509766,0.0175730362534523,1.483896255493164,429.29499435424805
D4:22:CD:00:05:6E,-26.805755615234375,-24.093725204467773,-99.78112030029297,4.887808799743652,-10.0665283203125,-5.648219108581543,429.29499435424805
D4:22:CD:00:05:5E,-47.706947326660156,-65.34513092041016,-91.20960998535156,3.169928550720215,-7.709877967834473,5.505185127258301,429.29499435424805
D4:22:CD:00:05:5D,123.24573516845703,-81.54267120361328,-73.57147216796875,-0.018796544522047043,-2.876859664916992,0.9595470428466797,429.3249909877777
D4:22:CD:00:05:6B,-59.694664001464844,40.54198455810547,-170.98849487304688,-9.700178146362305,4.155743598937988,-19.760353088378906,429.3249909877777
D4:22:CD:00:49:AA,-163.38143920898438,-83.26361083984375,103.39689636230469,2.595966339111328,-1.7661404609680176,2.678372383117676,429.3249909877777
D4:22:CD:00:05:6E,-26.391244888305664,-25.577594757080078,-100.20526885986328,5.611024856567383,-10.611684799194336,-3.3693857192993164,429.3249909877777
D4:22:CD:00:05:5E,-53.67543411254883,-68.30635070800781,-84.98851013183594,5.44029426574707,-7.1536149978637695,3.601931571960449,429.3249909877777
D4:22:CD:00:05:5D,111.70417785644531,-79.97332000732422,-59.833858489990234,-1.1901612281799316,0.4216495752334595,4.95479679107666,429.3544807434082
D4:22:CD:00:05:6B,-73.25059509277344,38.58784484863281,-172.34336853027344,3.0044684410095215,2.1709208488464355,-0.4763832092285156,429.3544807434082
D4:22:CD:00:49:AA,-165.46060180664062,-84.35874938964844,105.44952392578125,-0.2800849676132202,-1.25850248336792,2.9879894256591797,429.3544807434082
D4:22:CD:00:05:6E,-27.012727737426758,-27.126840591430664,-100.1772232055664,4.977664947509766,-12.446981430053711,-3.8568758964538574,429.3544807434082
D4:22:CD:00:05:5E,-67.30353546142578,-71.31869506835938,-74.50146484375,1.0381391048431396,-8.71742057800293,7.120672225952148,429.3544807434082
D4:22:CD:00:05:5D,102.59685516357422,-77.78382873535156,-49.718257904052734,1.324821949005127,-2.335732936859131,0.7809581756591797,429.3850722312927
D4:22:CD:00:05:6B,-70.88511657714844,45.91468811035156,-167.42852783203125,-15.164926528930664,5.549013137817383,3.247661590576172,429.3850722312927
D4:22:CD:00:49:AA,-163.74429321289062,-85.14530181884766,103.64202880859375,-1.4168875217437744,-0.6170823574066162,1.9592390060424805,429.3850722312927
D4:22:CD:00:05:6E,-33.15294647216797,-29.943649291992188,-100.64997100830078,3.872894287109375,-15.801883697509766,-0.04927349090576172,429.3850722312927
D4:22:CD:00:05:5E,-78.11360931396484,-73.5220718383789,-65.60172271728516,-6.234936714172363,-0.809416651725769,1.1529207229614258,429.3850722312927
D4:22:CD:00:05:5D,99.55572509765625,-75.27462768554688,-47.706966400146484,4.795662879943848,-3.155092716217041,-0.35936546325683594,429.4140815734863
D4:22:CD:00:05:6B,-55.19118881225586,55.3477783203125,-152.48480224609375,-6.336803436279297,1.9984464645385742,-13.595645904541016,429.4140815734863
D4:22:CD:00:49:AA,-163.58670043945312,-84.01738739013672,102.00160217285156,5.682049751281738,0.5178573131561279,0.30362987518310547,429.4140815734863
D4:22:CD:00:05:6E,-41.838706970214844,-33.35282516479492,-102.68135833740234,-1.761514663696289,-9.148122787475586,2.5328969955444336,429.4140815734863
D4:22:CD:00:05:5E,-77.41349792480469,-76.2933120727539,-65.59038543701172,0.1600264012813568,-6.278558731079102,-0.05228233337402344,429.4140815734863
D4:22:CD:00:05:5D,98.31322479248047,-72.92363739013672,-53.186588287353516,10.154308319091797,-0.3309890627861023,3.8501968383789062,429.474568605423
D4:22:CD:00:05:6B,-34.97085952758789,60.3406867980957,-122.9472427368164,-9.60739517211914,5.4814453125,-4.044014930725098,429.474568605423
D4:22:CD:00:49:AA,-161.1966552734375,-81.9340591430664,95.6219711303711,10.982721328735352,3.1464080810546875,0.1205759048461914,429.474568605423
D4:22:CD:00:05:6E,-46.0228157043457,-35.843868255615234,-105.64097595214844,-7.705442428588867,-0.8926370143890381,0.0008592605590820312,429.474568605423
D4:22:CD:00:05:5E,-76.55072021484375,-78.80290222167969,-66.51724243164062,0.9860415458679199,-6.406868934631348,-1.850660800933838,429.474568605423
D4:22:CD:00:05:5D,100.8486328125,-71.84285736083984,-67.90235137939453,25.555091857910156,11.139020919799805,2.0212955474853516,429.50470995903015
D4:22:CD:00:05:6B,-13.307533264160156,54.549095153808594,-92.7274398803711,-4.858739852905273,3.121957302093506,-3.9682860374450684,429.50470995903015
D4:22:CD:00:49:AA,-162.6527099609375,-80.35914611816406,91.45214080810547,6.877682685852051,0.7967150211334229,-1.5767230987548828,429.50470995903015
D4:22:CD:00:05:6E,-47.34438705444336,-36.70323181152344,-108.12150573730469,-11.422748565673828,-3.509398937225342,-3.3942174911499023,429.50470995903015
D4:22:CD:00:05:5E,-80.79170227050781,-80.14529418945312,-63.26049041748047,-0.035414114594459534,-5.914396286010742,-1.6384572982788086,429.50470995903015
D4:22:CD:00:05:5D,119.31925201416016,-66.70121765136719,-94.95264434814453,19.195270538330078,1.506957769393921,5.291790962219238,429.5387041568756
D4:22:CD:00:05:6B,-3.6476547718048096,42.78240203857422,-72.87205505371094,0.6224826574325562,3.3432979583740234,-4.981023788452148,429.5387041568756
D4:22:CD:00:49:AA,-161.53179931640625,-79.0831527709961,89.41032409667969,-4.831759452819824,-0.7025785446166992,2.530156135559082,429.5387041568756
D4:22:CD:00:05:6E,-48.32344055175781,-36.50202560424805,-109.87106323242188,-11.823751449584961,-8.035884857177734,-0.3572883605957031,429.5387041568756
D4:22:CD:00:05:5E,-89.13027954101562,-80.44784545898438,-56.011905670166016,-0.9257699251174927,-3.7925357818603516,-0.9713325500488281,429.5387041568756
D4:22:CD:00:05:5D,136.25537109375,-56.54799270629883,-115.35041046142578,8.535388946533203,-0.2785146236419678,4.368566513061523,429.56461095809937
D4:22:CD:00:05:6B,-5.37535285949707,29.995519638061523,-58.385032653808594,0.4257218837738037,-4.368358612060547,-3.1794233322143555,429.56461095809937
D4:22:CD:00:49:AA,-157.03353881835938,-79.24494171142578,85.91901397705078,-2.288572311401367,1.5331344604492188,0.8541164398193359,429.56461095809937
D4:22:CD:00:05:6E,-45.918243408203125,-36.98064422607422,-110.99040985107422,-9.352277755737305,-7.079900741577148,-4.236499786376953,429.56461095809937
D4:22:CD:00:05:5E,-82.76910400390625,-81.38737487792969,-60.584346771240234,1.1627390384674072,-2.184843063354492,0.6233444213867188,429.56461095809937
D4:22:CD:00:05:5D,146.98129272460938,-44.73741149902344,-128.05577087402344,-1.0832467079162598,-0.7942646741867065,-1.6681928634643555,429.594607591629
D4:22:CD:00:05:6B,-9.088217735290527,21.82794189453125,-47.90201950073242,7.9971208572387695,-1.962637186050415,0.10486030578613281,429.594607591629
D4:22:CD:00:49:AA,-153.51759338378906,-79.02178192138672,82.09870147705078,7.184732437133789,3.3086276054382324,-2.3028974533081055,429.594607591629
D4:22:CD:00:05:6E,-42.32707977294922,-38.82170867919922,-111.85371398925781,-5.962536811828613,-7.572200775146484,-6.071601867675781,429.594607591629
D4:22:CD:00:05:5E,-76.78255462646484,-81.76248168945312,-62.97993087768555,-0.750679612159729,-5.336877822875977,-2.2860822677612305,429.594607591629
D4:22:CD:00:05:5D,154.54608154296875,-33.50387191772461,-136.4066619873047,-6.649526596069336,1.0833454132080078,-7.724863052368164,429.62476801872253
D4:22:CD:00:05:6B,-19.6099853515625,18.755327224731445,-40.7644157409668,-2.3968544006347656,-3.907376289367676,-0.055054664611816406,429.62476801872253
D4:22:CD:00:49:AA,-154.67672729492188,-78.99179077148438,82.89261627197266,5.950050354003906,1.9094970226287842,0.7312784194946289,429.62476801872253
D4:22:CD:00:05:6E,-38.330291748046875,-41.224151611328125,-113.30420684814453,-3.4859533309936523,-7.85316276550293,-5.519810676574707,429.62476801872253
D4:22:CD:00:05:5E,-84.15779113769531,-81.49213409423828,-54.820743560791016,-0.9527134895324707,-4.596366882324219,-1.1048030853271484,429.62476801872253
D4:22:CD:00:05:5D,159.25701904296875,-25.385873794555664,-141.87461853027344,-10.121658325195312,4.0191545486450195,-10.86660385131836,429.65451550483704
D4:22:CD:00:05:6B,-28.091947555541992,18.98011016845703,-34.73396301269531,-2.0081310272216797,-13.927568435668945,10.7923583984375,429.65451550483704
D4:22:CD:00:49:AA,-156.2628173828125,-79.88249969482422,84.03447723388672,-2.6485557556152344,0.7595964670181274,-1.1636075973510742,429.65451550483704
D4:22:CD:00:05:6E,-33.027061462402344,-43.14973449707031,-115.60921478271484,-1.6309154033660889,-6.180903434753418,-5.825726509094238,429.65451550483704
D4:22:CD:00:05:5E,-94.05658721923828,-80.64976501464844,-45.145843505859375,-0.07028655707836151,-4.208757400512695,-1.639845848083496,429.65451550483704
D4:22:CD:00:05:5D,159.7819366455078,-21.953649520874023,-145.48446655273438,-11.585752487182617,4.131551742553711,-13.436639785766602,429.6845934391022
D4:22:CD:00:05:6B,-33.55293655395508,19.747100830078125,-29.790300369262695,-0.5165796279907227,14.2657470703125,-1.1516990661621094,429.6845934391022
D4:22:CD:00:49:AA,-152.6127166748047,-80.65184783935547,81.11565399169922,-1.4504592418670654,0.744684100151062,-2.427187442779541,429.6845934391022
D4:22:CD:00:05:6E,-26.641094207763672,-43.97269821166992,-117.93911743164062,0.4833640456199646,-7.063108444213867,-5.82344913482666,429.6845934391022
D4:22:CD:00:05:5E,-104.90496063232422,-79.02682495117188,-35.0323486328125,-0.8216568231582642,-4.373500823974609,-1.0625076293945312,429.6845934391022
D4:22:CD:00:05:5D,156.4649658203125,-23.74118995666504,-147.6322784423828,-13.247032165527344,2.287619113922119,-14.191057205200195,429.72952151298523
D4:22:CD:00:05:6B,-47.800045013427734,14.563822746276855,-29.075801849365234,-9.52663803100586,-0.10928726196289062,-3.4506354331970215,429.72952151298523
D4:22:CD:00:49:AA,-147.4985809326172,-80.88290405273438,77.244384765625,3.63698673248291,0.24519330263137817,-3.101461410522461,429.72952151298523
D4:22:CD:00:05:6E,-21.526782989501953,-43.39032745361328,-119.33440399169922,1.8472352027893066,-7.6514434814453125,-4.5843658447265625,429.72952151298523
D4:22:CD:00:05:5E,-113.17646026611328,-77.40216064453125,-26.98447036743164,-1.446657657623291,-3.2511138916015625,0.14440441131591797,429.72952151298523
D4:22:CD:00:05:5D,154.7192840576172,-28.484827041625977,-149.04669189453125,-2.3781323432922363,0.3660733103752136,16.948665618896484,429.77484917640686
D4:22:CD:00:05:6B,-44.48384094238281,-2.2230019569396973,-29.083499908447266,-4.203780174255371,2.9898953437805176,-9.12285041809082,429.77484917640686
D4:22:CD:00:49:AA,-145.727294921875,-81.30557250976562,76.56211853027344,5.8852033615112305,0.6990596055984497,-1.3231897354125977,429.77484917640686
D4:22:CD:00:05:6E,-16.43691635131836,-41.93678283691406,-119.93492889404297,-0.3957672119140625,-8.726943969726562,-4.810098648071289,429.77484917640686
D4:22:CD:00:05:5E,-119.49019622802734,-76.17374420166016,-20.884363174438477,-0.8921675682067871,-4.8689680099487305,-0.38272953033447266,429.77484917640686
D4:22:CD:00:05:5D,156.94407653808594,-28.933115005493164,-148.67962646484375,-18.381877899169922,-7.9234819412231445,-7.672739028930664,429.8048503398895
D4:22:CD:00:05:6B,-33.706199645996094,-28.736026763916016,-32.49722671508789,26.065292358398438,-18.659313201904297,9.023504257202148,429.8048503398895
D4:22:CD:00:49:AA,-146.1995391845703,-81.65230560302734,76.05061340332031,6.205552101135254,2.2239456176757812,4.894050598144531,429.8048503398895
D4:22:CD:00:05:6E,-14.59349536895752,-41.560848236083984,-119.59315490722656,2.75789737701416,-16.15172576904297,-6.270874977111816,429.8048503398895
D4:22:CD:00:05:5E,-123.12193298339844,-75.42664337158203,-17.730669021606445,-1.9456300735473633,-4.57498836517334,0.17406749725341797,429.8048503398895
D4:22:CD:00:05:5D,160.66615295410156,-29.465177536010742,-145.85951232910156,-15.253263473510742,-10.62196159362793,2.9563074111938477,429.835027217865
D4:22:CD:00:05:6B,-7.030644416809082,-44.827571868896484,-49.58809280395508,45.363372802734375,-29.777481079101562,49.154327392578125,429.835027217865
D4:22:CD:00:49:AA,-144.6491241455078,-82.12333679199219,71.61692810058594,1.0905835628509521,-0.30263811349868774,1.8101768493652344,429.835027217865
D4:22:CD:00:05:6E,-21.658288955688477,-42.366878509521484,-118.50328826904297,3.9627442359924316,-18.105472564697266,-1.1184024810791016,429.835027217865
D4:22:CD:00:05:5E,-124.85262298583984,-75.80506134033203,-16.384538650512695,-1.7805898189544678,-3.185131072998047,0.39190196990966797,429.835027217865
D4:22:CD:00:05:5D,163.1262969970703,-28.801904678344727,-143.44406127929688,-16.99956512451172,-3.0949044227600098,11.078554153442383,429.864599943161
D4:22:CD:00:05:6B,-23.757856369018555,-40.0666618347168,-42.798519134521484,4.929337501525879,-21.039756774902344,25.513019561767578,429.864599943161
D4:22:CD:00:49:AA,-149.31961059570312,-82.39929962158203,75.33069610595703,-9.107364654541016,-2.1606736183166504,4.756413459777832,429.864599943161
D4:22:CD:00:05:6E,-31.4813232421875,-43.886112213134766,-119.09219360351562,-3.1800289154052734,-11.838247299194336,0.8523111343383789,429.864599943161
D4:22:CD:00:05:5E,-128.11268615722656,-77.08515167236328,-13.671379089355469,-2.0321574211120605,-3.8751397132873535,0.2591724395751953,429.864599943161
D4:22:CD:00:05:5D,158.604736328125,-27.3558349609375,-142.78384399414062,-8.946683883666992,-7.160605430603027,5.454771041870117,429.8947067260742
D4:22:CD:00:05:6B,-31.621938705444336,-30.060394287109375,-34.2252311706543,16.992088317871094,-12.54739761352539,2.0423688888549805,429.8947067260742
D4:22:CD:00:49:AA,-150.9833984375,-83.18447875976562,77.53888702392578,-1.4457826614379883,1.5467922687530518,3.6837234497070312,429.8947067260742
D4:22:CD:00:05:6E,-36.6389274597168,-47.717308044433594,-123.69557189941406,-3.4394078254699707,-12.701156616210938,3.9322052001953125,429.8947067260742
D4:22:CD:00:05:5E,-131.99520874023438,-78.77466583251953,-10.6162109375,-1.5774853229522705,-4.69902229309082,-0.09958648681640625,429.8947067260742
D4:22:CD:00:05:5D,157.03741455078125,-25.026575088500977,-143.658203125,-8.575637817382812,-5.5056562423706055,3.0310277938842773,429.9249200820923
D4:22:CD:00:05:6B,-38.97721481323242,-20.38924789428711,-32.8820915222168,4.142004013061523,-12.885950088500977,-5.524658203125,429.9249200820923
D4:22:CD:00:49:AA,-157.89404296875,-82.88545227050781,84.86908721923828,4.874527931213379,2.7606778144836426,0.8089666366577148,429.9249200820923
D4:22:CD:00:05:6E,-30.699344635009766,-52.51120376586914,-134.38067626953125,-0.37645918130874634,-20.02851104736328,8.001432418823242,429.9249200820923
D4:22:CD:00:05:5E,-130.9156951904297,-81.12718963623047,-12.239157676696777,-0.5148961544036865,-5.948986053466797,0.1560955047607422,429.9249200820923
D4:22:CD:00:05:5D,154.7494354248047,-24.497203826904297,-145.1019744873047,-6.36836051940918,-2.0222349166870117,-1.621504783630371,429.95501923561096
D4:22:CD:00:05:6B,-43.143402099609375,-14.519670486450195,-36.89450454711914,-4.519320487976074,-8.178533554077148,-9.138294219970703,429.95501923561096
D4:22:CD:00:49:AA,-164.27915954589844,-82.2381820678711,91.42366790771484,3.977156639099121,4.712462425231934,2.4055938720703125,429.95501923561096
D4:22:CD:00:05:6E,-14.158071517944336,-56.376625061035156,-154.91453552246094,-0.9031219482421875,-27.450767517089844,4.844207763671875,429.95501923561096
D4:22:CD:00:05:5E,-119.46513366699219,-83.62110900878906,-24.573549270629883,-0.4529953598976135,-5.205629348754883,0.9919557571411133,429.95501923561096
D4:22:CD:00:05:5D,153.1881561279297,-26.6966609954834,-146.53390502929688,-3.8625659942626953,-0.6578391790390015,-7.073637962341309,429.9845416545868
D4:22:CD:00:05:6B,-46.8162956237793,-14.111424446105957,-43.77970886230469,-8.40617561340332,-5.284938812255859,-8.465089797973633,429.9845416545868
D4:22:CD:00:49:AA,-169.4837188720703,-80.95182800292969,95.53266906738281,4.663823127746582,2.112729549407959,2.5095338821411133,429.9845416545868
D4:22:CD:00:05:6E,7.006059169769287,-55.71770095825195,175.26715087890625,-2.6460442543029785,-19.643264770507812,6.105171203613281,429.9845416545868
D4:22:CD:00:05:5E,-88.40811920166016,-85.44220733642578,-55.65900802612305,0.565489649772644,-3.4473953247070312,3.7043933868408203,429.9845416545868
D4:22:CD:00:05:5D,152.62132263183594,-32.0977668762207,-147.62840270996094,-2.8845014572143555,1.022994041442871,-8.707271575927734,430.01504778862
D4:22:CD:00:05:6B,-51.13161849975586,-19.206666946411133,-52.02971267700195,-9.779077529907227,-2.6230335235595703,-3.934795379638672,430.01504778862
D4:22:CD:00:49:AA,-173.4667510986328,-79.91804504394531,97.88534545898438,2.931229591369629,0.8136953115463257,0.015126228332519531,430.01504778862
D4:22:CD:00:05:6E,26.646421432495117,-47.46403884887695,147.5372314453125,-5.611184120178223,-13.418401718139648,2.482823371887207,430.01504778862
D4:22:CD:00:05:5E,-48.89657211303711,-85.06834411621094,-94.10043334960938,-0.7770061492919922,-1.3677551746368408,1.725449562072754,430.01504778862
D4:22:CD:00:05:5D,151.4627685546875,-40.354454040527344,-148.31761169433594,-4.050006866455078,3.4635629653930664,-7.107908248901367,430.0749955177307
D4:22:CD:00:05:6B,-53.66584014892578,-27.895193099975586,-60.777488708496094,-7.898283004760742,1.0447940826416016,-0.5025749206542969,430.0749955177307
D4:22:CD:00:49:AA,-177.50155639648438,-79.10073852539062,100.66731262207031,1.7055509090423584,0.4537467360496521,-0.0012359619140625,430.0749955177307
D4:22:CD:00:05:6E,38.7254638671875,-34.32502365112305,126.4421157836914,-6.935427665710449,-7.706042289733887,2.7584218978881836,430.0749955177307
D4:22:CD:00:05:5E,-31.7060604095459,-83.175048828125,-110.7330551147461,0.9008829593658447,-4.2384185791015625,-1.9480786323547363,430.0749955177307
D4:22:CD:00:05:5D,148.84744262695312,-51.069854736328125,-147.80447387695312,-5.294363021850586,1.5127739906311035,-4.69184684753418,430.10499000549316
D4:22:CD:00:05:6B,-52.012664794921875,-38.1554069519043,-70.02119445800781,-4.360905647277832,3.2358527183532715,-2.8489556312561035,430.10499000549316
D4:22:CD:00:49:AA,-178.44476318359375,-78.79999542236328,101.24567413330078,1.199608564376831,0.22499597072601318,-0.013651847839355469,430.10499000549316
D4:22:CD:00:05:6E,34.1456298828125,-18.328086853027344,109.74234771728516,-14.397838592529297,1.1970291137695312,2.221597671508789,430.10499000549316
D4:22:CD:00:05:5E,-25.308977127075195,-80.79548645019531,-117.18434143066406,-0.6624667644500732,-4.714877128601074,-3.958357810974121,430.10499000549316
D4:22:CD:00:05:5D,146.23728942871094,-63.317440032958984,-144.0287628173828,-4.22711181640625,-0.9790143966674805,0.10387802124023438,430.1343710422516
D4:22:CD:00:05:6B,-48.73042297363281,-49.03398513793945,-79.63081359863281,-2.027273178100586,2.0510072708129883,-4.767181396484375,430.1343710422516
D4:22:CD:00:49:AA,-177.00448608398438,-79.10955047607422,100.20529174804688,2.4546146392822266,0.9942774772644043,-3.1215710639953613,430.1343710422516
D4:22:CD:00:05:6E,15.836024284362793,-3.8993947505950928,95.28572845458984,-3.91434383392334,9.622894287109375,-15.541915893554688,430.1343710422516
D4:22:CD:00:05:5E,-21.790666580200195,-78.2286148071289,-120.67135620117188,-0.7176823616027832,-5.64744758605957,-5.041806221008301,430.1343710422516
D4:22:CD:00:05:5D,137.9950714111328,-76.44405364990234,-130.79029846191406,1.4000601768493652,-4.546441078186035,6.1157026290893555,430.16395020484924
D4:22:CD:00:05:6B,-45.588478088378906,-59.82401657104492,-89.85933685302734,-1.5927965641021729,3.0332107543945312,-1.6887731552124023,430.16395020484924
D4:22:CD:00:49:AA,-175.51226806640625,-79.1103286743164,98.70401000976562,3.592494010925293,1.5850560665130615,-5.129664421081543,430.16395020484924
D4:22:CD:00:05:6E,-2.8060386180877686,5.739838600158691,83.89800262451172,4.179386138916016,-3.7599434852600098,-17.308563232421875,430.16395020484924
D4:22:CD:00:05:5E,-21.612051010131836,-76.00362396240234,-121.10406494140625,-2.036825180053711,-4.327936172485352,-5.828664779663086,430.16395020484924
D4:22:CD:00:05:5D,73.46125030517578,-84.17977905273438,-57.526817321777344,10.88432502746582,1.0487337112426758,8.257680892944336,430.1969554424286
D4:22:CD:00:05:6B,-36.2319221496582,-69.71746063232422,-104.45088958740234,0.5467125177383423,4.050753593444824,-1.1974239349365234,430.1969554424286
D4:22:CD:00:49:AA,-175.20164489746094,-78.99504852294922,97.6565933227539,2.7168221473693848,1.1974847316741943,-5.0727949142456055,430.1969554424286
D4:22:CD:00:05:6E,-14.944635391235352,11.465127944946289,78.1410140991211,9.96247673034668,-12.855140686035156,-10.73674201965332,430.1969554424286
D4:22:CD:00:05:5E,-24.506391525268555,-74.53121948242188,-118.85918426513672,-0.9330593347549438,-3.338886260986328,-4.785867691040039,430.1969554424286
D4:22:CD:00:05:5D,29.420455932617188,-78.91919708251953,-4.8600945472717285,11.839553833007812,8.86016845703125,-3.611880302429199,430.22495436668396
D4:22:CD:00:05:6B,-16.290151596069336,-77.553955078125,-130.53709411621094,1.8171460628509521,1.0462205410003662,-2.3078317642211914,430.22495436668396
D4:22:CD:00:49:AA,-173.55824279785156,-79.3060531616211,95.53258514404297,0.4901549816131592,-0.013456150889396667,-4.8179426193237305,430.22495436668396
D4:22:CD:00:05:6E,-17.940757751464844,16.679834365844727,80.24266815185547,4.7840728759765625,-11.110599517822266,-6.007987022399902,430.22495436668396
D4:22:CD:00:05:5E,-29.60441780090332,-73.90902709960938,-114.03659057617188,-0.09307792782783508,-2.1973352432250977,-3.5781126022338867,430.22495436668396
D4:22:CD:00:05:5D,28.549198150634766,-76.42579650878906,-0.4541999101638794,13.982784271240234,10.954103469848633,-15.379173278808594,430.2549605369568
D4:22:CD:00:05:6B,18.60279655456543,-81.33553314208984,-177.31210327148438,0.7401700019836426,0.9327138662338257,-1.0142335891723633,430.2549605369568
D4:22:CD:00:49:AA,-168.8167266845703,-80.01048278808594,91.73188018798828,-0.2412082552909851,-1.7372839450836182,-5.061417579650879,430.2549605369568
D4:22:CD:00:05:6E,-19.05156898498535,23.88332176208496,91.03828430175781,3.96352481842041,2.6944046020507812,-3.2120742797851562,430.2549605369568
D4:22:CD:00:05:5E,-37.112457275390625,-73.85955810546875,-107.39794921875,0.637178897857666,-6.720118522644043,-1.1155166625976562,430.2549605369568
D4:22:CD:00:05:5D,50.53122329711914,-78.3314437866211,-19.051254272460938,14.37923812866211,8.085540771484375,-8.298284530639648,430.3149333000183
D4:22:CD:00:05:6B,48.952178955078125,-80.1153335571289,136.85804748535156,0.1363375186920166,5.005885124206543,0.44884490966796875,430.3149333000183
D4:22:CD:00:49:AA,-164.45849609375,-79.76119232177734,88.89820861816406,1.8522253036499023,-1.6130809783935547,-2.308720588684082,430.3149333000183
D4:22:CD:00:05:6E,-9.133893013000488,30.708711624145508,110.6192398071289,-9.93442153930664,14.068777084350586,-17.705520629882812,430.3149333000183
D4:22:CD:00:05:5E,-42.601905822753906,-72.69570922851562,-102.07391357421875,0.01099841482937336,-4.2467498779296875,0.9038629531860352,430.3149333000183
D4:22:CD:00:05:5D,83.78463745117188,-79.11271667480469,-48.397605895996094,0.8454506397247314,-10.049121856689453,1.7376651763916016,430.32016944885254
D4:22:CD:00:05:6B,63.28114318847656,-77.08954620361328,110.7383804321289,4.5717315673828125,11.318206787109375,6.214656829833984,430.32016944885254
D4:22:CD:00:49:AA,-161.25125122070312,-79.45254516601562,87.19014739990234,1.8092057704925537,-1.3288123607635498,3.5435266494750977,430.32016944885254
D4:22:CD:00:05:6E,15.703592300415039,29.86088752746582,133.50257873535156,-13.814077377319336,26.68326187133789,-33.03406524658203,430.32016944885254
D4:22:CD:00:05:5E,-44.97505569458008,-70.78208923339844,-98.19041442871094,2.555027484893799,-5.468818664550781,5.014703750610352,430.32016944885254
D4:22:CD:00:05:5D,109.50938415527344,-79.63172149658203,-74.20832061767578,4.254639625549316,-4.5933027267456055,4.513114929199219,430.37433528900146
D4:22:CD:00:05:6B,73.53997802734375,-74.26302337646484,100.8065185546875,4.68666934967041,12.772476196289062,4.268861770629883,430.37433528900146
D4:22:CD:00:49:AA,-160.0111846923828,-79.62882995605469,87.52249908447266,2.6737895011901855,-0.013100093230605125,1.0628948211669922,430.37433528900146
D4:22:CD:00:05:6E,28.20692253112793,29.373537063598633,134.0431671142578,-3.7595629692077637,-13.80917739868164,-2.5604820251464844,430.37433528900146
D4:22:CD:00:05:5E,-46.853702545166016,-68.73738098144531,-94.50471496582031,0.6394935846328735,-2.608867645263672,5.7980804443359375,430.37433528900146
D4:22:CD:00:05:5D,129.05987548828125,-78.33247375488281,-95.73692321777344,-10.038406372070312,-0.7261470556259155,13.383501052856445,430.40533781051636
D4:22:CD:00:05:6B,83.94806671142578,-75.32443237304688,99.60968017578125,2.1221795082092285,6.0886430740356445,8.346088409423828,430.40533781051636
D4:22:CD:00:49:AA,-163.73341369628906,-78.6380615234375,92.1998062133789,4.36313533782959,-0.33222585916519165,3.35575008392334,430.40533781051636
D4:22:CD:00:05:6E,21.492191314697266,27.80185317993164,122.80802917480469,-16.94396209716797,-6.9239301681518555,-5.534579277038574,430.40533781051636
D4:22:CD:00:05:5E,-45.90158462524414,-66.569091796875,-92.16073608398438,4.286005973815918,-3.6479973793029785,4.690397262573242,430.40533781051636
D4:22:CD:00:05:5D,147.28692626953125,-75.20722961425781,-108.0721664428711,2.191953182220459,0.6035021543502808,-1.3978252410888672,430.43451046943665
D4:22:CD:00:05:6B,85.0911636352539,-80.56289672851562,107.9130630493164,2.409834384918213,2.0604166984558105,6.667022705078125,430.43451046943665
D4:22:CD:00:49:AA,-164.68760681152344,-77.69237518310547,94.16712188720703,0.792478084564209,-4.371545791625977,2.7528724670410156,430.43451046943665
D4:22:CD:00:05:6E,9.263236999511719,23.10495376586914,108.02738952636719,-0.7963045835494995,6.084590911865234,-8.939300537109375,430.43451046943665
D4:22:CD:00:05:5E,-44.85371780395508,-64.5705795288086,-88.24404907226562,3.2419447898864746,-12.180763244628906,-2.130791664123535,430.43451046943665
D4:22:CD:00:05:5D,158.95445251464844,-73.67243957519531,-114.53314971923828,5.712721824645996,7.414392471313477,-2.7873945236206055,430.46402859687805
D4:22:CD:00:05:6B,38.85000228881836,-86.07025909423828,162.5982666015625,0.598274827003479,-1.6188991069793701,1.2053871154785156,430.46402859687805
D4:22:CD:00:49:AA,-166.78579711914062,-77.36293029785156,98.0936050415039,-1.30472731590271,-0.6332709789276123,-1.5470762252807617,430.46402859687805
D4:22:CD:00:05:6E,14.114081382751465,15.428594589233398,92.42987060546875,-4.24208927154541,1.6101233959197998,-12.651773452758789,430.46402859687805
D4:22:CD:00:05:5E,-52.930233001708984,-64.64899444580078,-77.45588684082031,-11.480314254760742,-29.34762954711914,-10.753959655761719,430.46402859687805
D4:22:CD:00:05:5D,167.4845428466797,-72.6268081665039,-120.50489044189453,-1.6925780773162842,-0.5257686376571655,1.4864997863769531,430.494473695755
D4:22:CD:00:05:6B,-21.4244441986084,-83.33453369140625,-128.97801208496094,-0.8081893920898438,-7.258664131164551,-6.395328521728516,430.494473695755
D4:22:CD:00:49:AA,-170.39476013183594,-76.61107635498047,105.0887451171875,-4.567389488220215,-0.5815249681472778,-4.869942665100098,430.494473695755
D4:22:CD:00:05:6E,17.701221466064453,4.70574951171875,78.74226379394531,-10.997505187988281,-0.539800763130188,-13.338359832763672,430.494473695755
D4:22:CD:00:05:5E,-74.2218246459961,-66.02278137207031,-55.23923110961914,-7.517604827880859,-18.262683868408203,-2.537001132965088,430.494473695755
D4:22:CD:00:05:5D,173.5721435546875,-71.28303527832031,-124.3023681640625,-0.4613586664199829,2.052011489868164,1.0384483337402344,430.52460503578186
D4:22:CD:00:05:6B,-27.286794662475586,-79.4833755493164,-120.49906921386719,-3.009766101837158,-9.28561782836914,-5.875038146972656,430.52460503578186
D4:22:CD:00:49:AA,-174.49478149414062,-74.38935089111328,110.69084930419922,-2.195352554321289,2.948671340942383,0.6704912185668945,430.52460503578186
D4:22:CD:00:05:6E,17.426881790161133,-7.65196418762207,66.19490051269531,6.095907211303711,0.9926201105117798,-12.562463760375977,430.52460503578186
D4:22:CD:00:05:5E,-95.18119812011719,-65.0577621459961,-30.152055740356445,-1.8262674808502197,-13.146299362182617,-5.768369674682617,430.52460503578186
D4:22:CD:00:05:5D,177.44314575195312,-70.54219055175781,-127.4063720703125,-0.2150697410106659,1.023902177810669,0.6865768432617188,430.5546805858612
D4:22:CD:00:05:6B,-32.40010452270508,-76.65330505371094,-119.76481628417969,-10.657276153564453,-5.932793617248535,-1.450042724609375,430.5546805858612
D4:22:CD:00:49:AA,-178.1347198486328,-73.81549835205078,112.84725189208984,-0.5492866039276123,1.7577970027923584,2.7193899154663086,430.5546805858612
D4:22:CD:00:05:6E,24.110427856445312,-18.238988876342773,53.14104080200195,10.675479888916016,-3.55082368850708,-7.5108184814453125,430.5546805858612
D4:22:CD:00:05:5E,-114.54342651367188,-62.061920166015625,-7.679914951324463,0.5633916854858398,-6.460558891296387,-9.767660140991211,430.5546805858612
D4:22:CD:00:05:5D,179.97259521484375,-69.97581481933594,-129.6396942138672,0.19565430283546448,0.18349149823188782,0.4952116012573242,430.58419704437256
D4:22:CD:00:05:6B,-39.658966064453125,-74.74687194824219,-117.03743743896484,-9.302373886108398,-5.359208106994629,-0.10280609130859375,430.58419704437256
D4:22:CD:00:49:AA,178.49935913085938,-72.9591064453125,115.97490692138672,-4.3850507736206055,1.1822922229766846,0.8759374618530273,430.58419704437256
D4:22:CD:00:05:6E,40.361045837402344,-22.79714012145996,41.385108947753906,14.455970764160156,-17.79796600341797,0.9863214492797852,430.58419704437256
D4:22:CD:00:05:5E,-131.50196838378906,-58.29432678222656,10.200274467468262,-0.849069356918335,-1.4289586544036865,-11.282657623291016,430.58419704437256
D4:22:CD:00:05:5D,-177.5641326904297,-69.7872543334961,-131.83424377441406,-0.35034000873565674,0.7174246311187744,0.3051185607910156,430.6144347190857
D4:22:CD:00:05:6B,-47.60236740112305,-73.60031127929688,-112.42552947998047,-6.705609321594238,-4.038116455078125,0.5053949356079102,430.6144347190857
D4:22:CD:00:49:AA,176.4590606689453,-72.44905090332031,117.6773452758789,-3.3466243743896484,1.3981642723083496,2.4760522842407227,430.6144347190857
D4:22:CD:00:05:6E,63.70574951171875,-21.191686630249023,38.65159606933594,4.9837799072265625,-10.461029052734375,-14.252866744995117,430.6144347190857
D4:22:CD:00:05:5E,-145.81813049316406,-54.77580261230469,23.354106903076172,-1.0922207832336426,-1.5762803554534912,-10.458415985107422,430.6144347190857
D4:22:CD:00:05:5D,-176.2687530517578,-69.99032592773438,-134.60586547851562,-0.9220235347747803,0.8947281837463379,0.40497875213623047,430.67440938949585
D4:22:CD:00:05:6B,-56.33587646484375,-72.93829345703125,-106.97425079345703,-4.331263542175293,-2.5163707733154297,0.1925954818725586,430.67440938949585
D4:22:CD:00:49:AA,175.48818969726562,-72.87049102783203,118.42388153076172,0.6053450107574463,2.0263757705688477,2.9400558471679688,430.67440938949585
D4:22:CD:00:05:6E,75.89891815185547,-21.27759552001953,44.080806732177734,-12.245824813842773,-4.107404708862305,-2.2621636390686035,430.67440938949585
D4:22:CD:00:05:5E,-159.55477905273438,-52.35600280761719,34.01033401489258,0.4935629367828369,-2.2283902168273926,-6.855390548706055,430.67440938949585
D4:22:CD:00:05:5D,-175.5496826171875,-69.77436065673828,-136.9803924560547,-1.1352849006652832,0.7739396095275879,-0.04598522186279297,430.7045738697052
D4:22:CD:00:05:6B,-64.23042297363281,-72.75023651123047,-101.41851806640625,-2.114871025085449,-0.46611297130584717,-1.098454475402832,430.7045738697052
D4:22:CD:00:49:AA,172.2698974609375,-73.64813995361328,121.2374038696289,-0.7931373119354248,0.6513855457305908,0.22991371154785156,430.7045738697052
D4:22:CD:00:05:6E,74.59720611572266,-27.12647819519043,51.479366302490234,-5.460427284240723,-8.71303939819336,-11.047561645507812,430.7045738697052
D4:22:CD:00:05:5E,-171.74366760253906,-52.26801681518555,43.38742446899414,1.1234326362609863,3.3290352821350098,-3.064816951751709,430.7045738697052
D4:22:CD:00:05:5D,-176.0445556640625,-68.8061752319336,-138.0591278076172,0.05766589194536209,-1.9185700416564941,-1.0100488662719727,430.7346487045288
D4:22:CD:00:05:6B,-69.77418518066406,-72.73690795898438,-96.00141906738281,1.3233733177185059,1.3301172256469727,-1.8688030242919922,430.7346487045288
D4:22:CD:00:49:AA,166.82154846191406,-75.14871978759766,124.87151336669922,-1.0877058506011963,-1.0071673393249512,-3.622976779937744,430.7346487045288
D4:22:CD:00:05:6E,74.19853973388672,-40.57283401489258,55.601009368896484,-0.9161196947097778,-6.318581581115723,-15.60359001159668,430.7346487045288
D4:22:CD:00:05:5E,-177.44525146484375,-55.84748458862305,52.30925369262695,3.9443039894104004,13.039793014526367,-3.431257724761963,430.7346487045288
D4:22:CD:00:05:5D,-178.0270538330078,-66.9376449584961,-137.12545776367188,1.2911500930786133,-3.4712424278259277,-1.294234275817871,430.7642767429352
D4:22:CD:00:05:6B,-73.67694091796875,-71.75450134277344,-91.74874877929688,1.2472283840179443,0.5529863834381104,-3.89691162109375,430.7642767429352
D4:22:CD:00:49:AA,160.80245971679688,-76.743896484375,129.01683044433594,-1.8468756675720215,-0.0629970133304596,-7.476799011230469,430.7642767429352
D4:22:CD:00:05:6E,83.46891784667969,-60.79343795776367,49.64889144897461,3.606861114501953,-1.4543030261993408,0.18824291229248047,430.7642767429352
D4:22:CD:00:05:5E,-173.72976684570312,-62.659854888916016,60.53404235839844,-10.199386596679688,-5.848607063293457,22.08818817138672,430.7642767429352
D4:22:CD:00:05:5D,179.34030151367188,-64.35616302490234,-134.4864501953125,-0.07478833198547363,-1.1961321830749512,-2.0620551109313965,430.7943413257599
D4:22:CD:00:05:6B,-76.81330871582031,-68.28594207763672,-89.250732421875,2.352606773376465,3.291503429412842,0.42971229553222656,430.7943413257599
D4:22:CD:00:49:AA,154.7213592529297,-77.45092010498047,134.11924743652344,-2.821080207824707,0.9111965894699097,-4.537959098815918,430.7943413257599
D4:22:CD:00:05:6E,137.56602478027344,-81.03719329833984,-6.6445159912109375,12.296590805053711,-7.060712814331055,30.832462310791016,430.7943413257599
D4:22:CD:00:05:5E,-171.8720703125,-65.0417251586914,62.169883728027344,8.864501953125,19.371753692626953,0.10842514038085938,430.7943413257599
D4:22:CD:00:05:5D,177.70408630371094,-61.435523986816406,-131.2206268310547,-1.032890796661377,0.3448259234428406,0.7594423294067383,430.8253846168518
D4:22:CD:00:05:6B,-77.99684143066406,-61.837608337402344,-88.59668731689453,4.520874977111816,8.080724716186523,8.110719680786133,430.8253846168518
D4:22:CD:00:49:AA,148.72174072265625,-77.95142364501953,139.59271240234375,-1.9924585819244385,-1.3543205261230469,-0.2525482177734375,430.8253846168518
D4:22:CD:00:05:6E,-130.4494171142578,-73.47885131835938,-98.42858123779297,6.422357559204102,-23.811534881591797,39.48584747314453,430.8253846168518
D4:22:CD:00:05:5E,-174.8647918701172,-64.46538543701172,58.75724411010742,3.471560478210449,10.467437744140625,19.447559356689453,430.8253846168518
D4:22:CD:00:05:5D,176.93728637695312,-58.91011047363281,-129.06005859375,1.6027395725250244,1.1600761413574219,0.47646236419677734,430.85437965393066
D4:22:CD:00:05:6B,-75.42706298828125,-52.25236129760742,-89.00375366210938,4.379336357116699,8.19502067565918,15.219318389892578,430.85437965393066
D4:22:CD:00:49:AA,143.73574829101562,-78.64200592041016,144.2993927001953,2.6110000610351562,1.782470703125,-1.472269058227539,430.85437965393066
D4:22:CD:00:05:6E,-133.87283325195312,-72.18595123291016,-96.41278839111328,4.881492614746094,-7.370273590087891,7.694267272949219,430.85437965393066
D4:22:CD:00:05:5E,-170.78155517578125,-61.70153045654297,52.613563537597656,6.7267961502075195,8.109209060668945,15.567014694213867,430.85437965393066
D4:22:CD:00:05:5D,177.23162841796875,-57.39384841918945,-129.35073852539062,-1.4145383834838867,2.0754852294921875,1.316457748413086,430.88456535339355
D4:22:CD:00:05:6B,-73.86392211914062,-38.9900016784668,-87.70830535888672,7.050031661987305,7.459324836730957,18.108661651611328,430.88456535339355
D4:22:CD:00:49:AA,143.57737731933594,-77.91929626464844,143.1732177734375,0.7870029211044312,1.5731751918792725,9.006555557250977,430.88456535339355
D4:22:CD:00:05:6E,-135.90724182128906,-78.02764129638672,-86.42559814453125,10.000154495239258,-0.24838224053382874,18.982826232910156,430.88456535339355
D4:22:CD:00:05:5E,-164.4248504638672,-57.466426849365234,47.6756591796875,5.0801191329956055,4.306515693664551,12.50252914428711,430.88456535339355
D4:22:CD:00:05:5D,178.46826171875,-56.788330078125,-131.049560546875,-0.15244299173355103,1.1263437271118164,1.0372018814086914,430.9148373603821
D4:22:CD:00:05:6B,-66.88745880126953,-24.052845001220703,-85.34269714355469,10.98147201538086,1.378514289855957,25.917762756347656,430.9148373603821
D4:22:CD:00:49:AA,145.02374267578125,-76.68939208984375,139.7466583251953,-1.3844153881072998,-1.8275470733642578,6.344419479370117,430.9148373603821
D4:22:CD:00:05:6E,-104.35453796386719,-78.9896240234375,-104.99529266357422,-4.707720756530762,1.193089485168457,10.372915267944336,430.9148373603821
D4:22:CD:00:05:5E,-164.25416564941406,-54.08988571166992,43.92108154296875,6.709699630737305,2.799968719482422,4.725863456726074,430.9148373603821
