Device,EulerX,EulerY,EulerZ,FreeAccX,FreeAccY,FreeAccZ,Timestamp
D4:22:CD:00:05:5D,155.9910888671875,-74.96033477783203,-89.14796447753906,-1.4313971996307373,15.867311477661133,3.451190948486328,528.947740316391
D4:22:CD:00:05:6B,-2.437791585922241,42.93545913696289,-43.478614807128906,-2.063812732696533,1.1910245418548584,-8.935503005981445,528.947740316391
D4:22:CD:00:49:AA,175.85321044921875,-72.72029113769531,122.0285873413086,-1.8794667720794678,-0.6791841983795166,-6.7884016036987305,528.947740316391
D4:22:CD:00:05:6E,126.70376586914062,-41.31623840332031,-11.741314888000488,3.700735092163086,-5.52067756652832,-6.917071342468262,528.947740316391
D4:22:CD:00:05:5E,-139.73159790039062,-81.2155532836914,-32.46302032470703,-10.16944694519043,-12.98379135131836,-0.9120817184448242,528.947740316391
D4:22:CD:00:05:5D,153.48370361328125,-75.41783142089844,-88.94153594970703,-3.444307327270508,3.932331085205078,-2.8757524490356445,528.9587507247925
D4:22:CD:00:05:6B,-6.280679702758789,36.334251403808594,-58.19239807128906,0.5950884819030762,-2.2026801109313965,-12.032724380493164,528.9587507247925
D4:22:CD:00:49:AA,-179.7923583984375,-74.10932159423828,122.2396240234375,-1.8977906703948975,-1.5401647090911865,-2.8935976028442383,528.9587507247925
D4:22:CD:00:05:6E,127.40660858154297,-39.55516052246094,-7.614602565765381,4.89134407043457,-4.699430465698242,-4.01419734954834,528.9587507247925
D4:22:CD:00:05:5E,-113.37078094482422,-81.01725006103516,-65.94959259033203,-12.85040283203125,-15.213947296142578,-1.9276924133300781,528.9587507247925
D4:22:CD:00:05:5D,-155.9539794921875,-65.84832763671875,-101.5130844116211,-3.62080717086792,-2.0235424041748047,2.4342823028564453,528.9670538902283
D4:22:CD:00:49:AA,-178.94383239746094,-75.12828826904297,122.75481414794922,1.5068566799163818,1.7413651943206787,-1.101639747619629,528.9670538902283
D4:22:CD:00:05:6E,128.19033813476562,-38.26173400878906,-3.154966115951538,5.365640640258789,-4.207772254943848,-5.118473052978516,528.9670538902283
D4:22:CD:00:05:5E,-117.09281921386719,-79.21601104736328,-70.08429718017578,-18.440593719482422,-11.740259170532227,-1.4952583312988281,528.9670538902283
D4:22:CD:00:05:5D,-172.21209716796875,-65.47982788085938,-86.10980224609375,-2.9398579597473145,-2.4839911460876465,-1.2320575714111328,528.9731252193451
D4:22:CD:00:49:AA,178.85121154785156,-76.04991912841797,123.7109146118164,1.7431294918060303,0.3701454997062683,-1.2276954650878906,528.9731252193451
D4:22:CD:00:05:6E,128.12826538085938,-37.74233627319336,0.485335111618042,8.297399520874023,-3.1712899208068848,-7.957396507263184,528.9731252193451
D4:22:CD:00:05:5E,-135.7836456298828,-77.0901870727539,-55.897613525390625,6.2780256271362305,-10.911609649658203,1.7256202697753906,528.9731252193451
D4:22:CD:00:05:5D,172.20477294921875,-52.18340301513672,-69.80804443359375,0.9315071105957031,4.861310958862305,-3.001110553741455,528.9781248569489
D4:22:CD:00:05:6B,-79.8238296508789,-11.3005952835083,-95.63380432128906,-17.58529281616211,-20.050670623779297,-0.866297721862793,528.9781248569489
D4:22:CD:00:49:AA,165.3695526123047,-73.91307067871094,114.07854461669922,2.906500816345215,0.6440767049789429,8.31999397277832,528.9781248569489
D4:22:CD:00:05:5D,175.28585815429688,-52.72111892700195,-72.0912094116211,2.467733860015869,2.23367977142334,0.47393131256103516,529.0148451328278
D4:22:CD:00:05:6B,-87.13422393798828,-8.398782730102539,-83.20913696289062,-6.032829284667969,-10.054771423339844,30.311416625976562,529.0148451328278
D4:22:CD:00:49:AA,149.82533264160156,-69.6965103149414,125.15792846679688,-0.9533981084823608,-2.9562978744506836,5.3740692138671875,529.0148451328278
D4:22:CD:00:05:6E,159.09437561035156,-82.7789535522461,-21.826343536376953,-6.208635330200195,-1.698051929473877,12.719764709472656,529.0148451328278
D4:22:CD:00:05:5E,-132.23193359375,-72.03317260742188,-55.19562911987305,-6.341764450073242,-3.9089155197143555,9.820159912109375,529.0148451328278
D4:22:CD:00:05:5D,178.9041748046875,-54.94776153564453,-76.25559997558594,-2.949134349822998,-2.4263014793395996,4.101437568664551,529.0448169708252
D4:22:CD:00:05:6B,-80.07099151611328,1.0351544618606567,-73.84622955322266,-2.635128974914551,-21.804664611816406,14.122243881225586,529.0448169708252
D4:22:CD:00:49:AA,154.09677124023438,-66.75554656982422,119.77178192138672,-6.788049697875977,-0.5842123031616211,9.877098083496094,529.0448169708252
D4:22:CD:00:05:6E,146.0514678955078,-72.4655990600586,-10.073506355285645,2.4531588554382324,-5.196569442749023,6.6024322509765625,529.0448169708252
D4:22:CD:00:05:5E,-144.73719787597656,-69.48297119140625,-43.87187957763672,-2.5442004203796387,-1.6858611106872559,8.721359252929688,529.0448169708252
D4:22:CD:00:05:5D,-178.37660217285156,-58.502017974853516,-80.80358123779297,0.4206596612930298,0.9214714765548706,5.119657516479492,529.0738172531128
D4:22:CD:00:05:6B,-72.1429214477539,8.470947265625,-68.01458740234375,6.719255447387695,-19.277790069580078,1.9075498580932617,529.0738172531128
D4:22:CD:00:49:AA,166.59561157226562,-69.90803527832031,109.68373107910156,-3.9664649963378906,-1.1370081901550293,6.837333679199219,529.0738172531128
D4:22:CD:00:05:6E,141.7706298828125,-75.92354583740234,1.5963257551193237,-2.1565561294555664,-2.76877498626709,1.2258262634277344,529.0738172531128
D4:22:CD:00:05:5E,-145.71067810058594,-63.95426559448242,-41.31093978881836,-2.908726215362549,2.3501858711242676,1.7648115158081055,529.0738172531128
D4:22:CD:00:05:5D,-176.6518096923828,-63.99127960205078,-84.23436737060547,1.6868550777435303,-1.6474502086639404,7.845643997192383,529.1036243438721
D4:22:CD:00:05:6B,-61.00344467163086,11.407316207885742,-65.95780181884766,7.637136459350586,-8.886112213134766,-2.757585048675537,529.1036243438721
D4:22:CD:00:49:AA,-179.5911865234375,-71.83451843261719,98.58245849609375,0.4084808826446533,1.5751190185546875,1.277705192565918,529.1036243438721
D4:22:CD:00:05:6E,146.49374389648438,-79.79425048828125,11.282583236694336,-7.460627555847168,-5.794842720031738,-2.4410104751586914,529.1036243438721
D4:22:CD:00:05:5E,-134.5279998779297,-59.95369338989258,-50.798423767089844,0.531302809715271,0.37239009141921997,-7.513242721557617,529.1036243438721
D4:22:CD:00:05:5D,-175.7674560546875,-71.0556640625,-88.58181762695312,-2.16261625289917,-9.435495376586914,7.9428863525390625,529.134046792984
D4:22:CD:00:05:6B,-47.55187225341797,11.553766250610352,-66.28759002685547,1.3470187187194824,1.922471523284912,-5.8177385330200195,529.134046792984
D4:22:CD:00:49:AA,-170.3837890625,-72.2248764038086,92.03118896484375,-1.8654780387878418,-0.20634055137634277,-4.740861892700195,529.134046792984
D4:22:CD:00:05:6E,156.33335876464844,-80.85052490234375,17.022319793701172,-6.058816909790039,-7.496669769287109,-4.220895767211914,529.134046792984
D4:22:CD:00:05:5E,-121.24998474121094,-59.80025863647461,-63.98008346557617,2.8271727561950684,0.5690435171127319,-15.556324005126953,529.134046792984
D4:22:CD:00:05:5D,-178.2111053466797,-78.90899658203125,-92.76161193847656,-1.1515536308288574,-2.039895534515381,-3.420973777770996,529.1652376651764
D4:22:CD:00:05:6B,-37.47079849243164,11.567663192749023,-67.97484588623047,-0.6989970207214355,2.8516221046447754,-4.4208784103393555,529.1652376651764
D4:22:CD:00:49:AA,-162.4768829345703,-70.92723083496094,86.44793701171875,-1.5199484825134277,-0.17017856240272522,-7.955816268920898,529.1652376651764
D4:22:CD:00:05:6E,165.94822692871094,-79.5075454711914,22.009090423583984,-3.5763425827026367,-8.398519515991211,-9.409509658813477,529.1652376651764
D4:22:CD:00:05:5E,-105.10740661621094,-61.1556510925293,-81.4666976928711,0.6938499212265015,-1.8753087520599365,-17.058391571044922,529.1652376651764
D4:22:CD:00:05:5D,176.86058044433594,-83.3240966796875,-86.34010314941406,8.00035285949707,7.416647911071777,-5.708823204040527,529.1938993930817
D4:22:CD:00:05:6B,-26.459733963012695,13.885926246643066,-72.41256713867188,-4.168489456176758,-1.837273120880127,-1.4974899291992188,529.1938993930817
D4:22:CD:00:49:AA,-157.5318145751953,-68.87557220458984,82.41645050048828,2.6586499214172363,1.6559576988220215,-12.392589569091797,529.1938993930817
D4:22:CD:00:05:6E,166.71612548828125,-76.10137939453125,27.749242782592773,-1.242361307144165,-9.813796997070312,-8.153739929199219,529.1938993930817
D4:22:CD:00:05:5E,-86.80664825439453,-62.54612731933594,-103.7942886352539,-0.8064355850219727,-4.028476715087891,-13.420536041259766,529.1938993930817
D4:22:CD:00:05:5D,168.74331665039062,-84.91531372070312,-76.22309875488281,5.168736457824707,0.283833384513855,-9.433475494384766,529.2541027069092
D4:22:CD:00:05:6B,-13.382079124450684,18.73952293395996,-80.63668060302734,-2.4975438117980957,3.053953170776367,-12.650270462036133,529.2541027069092
D4:22:CD:00:49:AA,-153.45318603515625,-66.93647003173828,78.99295806884766,3.6438236236572266,-0.691339373588562,-10.490457534790039,529.2541027069092
D4:22:CD:00:05:6E,159.41079711914062,-72.29203796386719,32.59010314941406,1.4109609127044678,-5.428272247314453,-5.009604454040527,529.2541027069092
D4:22:CD:00:05:5E,-67.69539642333984,-62.058109283447266,-128.87786865234375,-8.012296676635742,-3.584106922149658,-8.382795333862305,529.2541027069092
D4:22:CD:00:05:5D,149.86328125,-87.85862731933594,-57.767459869384766,0.43392759561538696,4.90818977355957,-12.729087829589844,529.2842040061951
D4:22:CD:00:05:6B,-10.232245445251465,22.530385971069336,-92.66606903076172,5.637555122375488,1.5733256340026855,-13.339157104492188,529.2842040061951
D4:22:CD:00:49:AA,-150.0830841064453,-66.10774993896484,76.20034790039062,-0.0658356249332428,0.35044777393341064,-6.000639915466309,529.2842040061951
D4:22:CD:00:05:6E,149.99282836914062,-69.77302551269531,36.552921295166016,1.6544408798217773,-0.44303077459335327,-7.173998832702637,529.2842040061951
D4:22:CD:00:05:5E,-53.30765151977539,-60.039588928222656,-148.3876495361328,-15.050148010253906,0.37811821699142456,-7.958915710449219,529.2842040061951
D4:22:CD:00:05:5D,147.27320861816406,-88.48405456542969,-54.11613082885742,-9.505537033081055,13.744747161865234,-8.752317428588867,529.3137216567993
D4:22:CD:00:05:6B,-19.9957332611084,21.332494735717773,-109.3387451171875,-2.6966047286987305,-7.228780746459961,-16.332275390625,529.3137216567993
D4:22:CD:00:49:AA,-146.4818878173828,-67.05705261230469,72.74708557128906,-1.183762550354004,0.5101882219314575,-6.416295051574707,529.3137216567993
D4:22:CD:00:05:6E,144.1632537841797,-68.26871490478516,38.98007583618164,4.218878746032715,-0.8698382377624512,-8.201560974121094,529.3137216567993
D4:22:CD:00:05:5E,-43.59237289428711,-58.07063674926758,-160.38800048828125,-17.581878662109375,-2.254133701324463,-9.075342178344727,529.3137216567993
D4:22:CD:00:05:5D,148.39036560058594,-86.4184341430664,-57.49436950683594,-4.944037437438965,-0.8388831615447998,1.0783605575561523,529.3437929153442
D4:22:CD:00:05:6B,-35.34233093261719,10.161003112792969,-126.7811279296875,-36.5831298828125,-35.684547424316406,-23.874282836914062,529.3437929153442
D4:22:CD:00:49:AA,-141.5483856201172,-68.78141021728516,67.9694595336914,-2.0750012397766113,0.31159740686416626,-4.623467445373535,529.3437929153442
D4:22:CD:00:05:6E,140.2843780517578,-67.15550231933594,39.45595932006836,3.85551118850708,-2.391878128051758,-5.162546157836914,529.3437929153442
D4:22:CD:00:05:5E,-40.46897506713867,-57.94466781616211,-165.83103942871094,-17.169147491455078,-1.2176320552825928,-11.475698471069336,529.3437929153442
D4:22:CD:00:05:5D,142.7167510986328,-84.17432403564453,-51.280555725097656,-3.4439425468444824,-6.978050231933594,3.25905704498291,529.3740656375885
D4:22:CD:00:05:6B,-40.06332778930664,3.9678046703338623,-129.5491485595703,6.127320289611816,4.05757999420166,-27.41632080078125,529.3740656375885
D4:22:CD:00:49:AA,-138.81829833984375,-68.4446792602539,65.35990142822266,-0.3661595582962036,-1.5597615242004395,1.8594331741333008,529.3740656375885
D4:22:CD:00:05:6E,138.6612091064453,-66.8907699584961,36.124168395996094,2.8794846534729004,-0.5877472162246704,-2.213573455810547,529.3740656375885
D4:22:CD:00:05:5E,-43.947452545166016,-61.62376403808594,-166.18919372558594,-20.146320343017578,-4.212233543395996,-17.83477020263672,529.3740656375885
D4:22:CD:00:05:5D,134.06869506835938,-81.6904296875,-41.872257232666016,6.087123870849609,-3.686659812927246,1.1229124069213867,529.4038050174713
D4:22:CD:00:05:6B,-36.77002716064453,9.348587989807129,-117.29804992675781,-5.899104118347168,-5.640939712524414,-1.3241558074951172,529.4038050174713
D4:22:CD:00:49:AA,-142.79869079589844,-68.80949401855469,66.43457794189453,1.6015045642852783,-2.4573264122009277,1.3323869705200195,529.4038050174713
D4:22:CD:00:05:6E,139.0416259765625,-66.53665161132812,27.583541870117188,6.189236640930176,-5.940643310546875,1.8530902862548828,529.4038050174713
D4:22:CD:00:05:5E,-52.56940460205078,-68.7163314819336,-156.92091369628906,-13.948657989501953,-3.395146369934082,7.049964904785156,529.4038050174713
D4:22:CD:00:05:5D,124.45282745361328,-79.72758483886719,-30.0019474029541,1.9818811416625977,-0.24332067370414734,6.356109619140625,529.4638242721558
D4:22:CD:00:05:6B,-20.585098266601562,11.377761840820312,-102.46875,3.3640546798706055,-9.445001602172852,-21.637710571289062,529.4638242721558
D4:22:CD:00:49:AA,-147.32908630371094,-69.20671844482422,67.0756607055664,-3.797597885131836,-2.0130972862243652,1.0086860656738281,529.4638242721558
D4:22:CD:00:05:6E,131.4697265625,-64.91046142578125,21.60321044921875,8.426467895507812,-4.179108619689941,3.5540781021118164,529.4638242721558
D4:22:CD:00:05:5E,-46.45259094238281,-75.81010437011719,-156.9633331298828,6.998380661010742,-7.239195823669434,5.407506942749023,529.4638242721558
D4:22:CD:00:05:5D,109.31969451904297,-78.94719696044922,-14.886957168579102,-1.5842008590698242,0.03652648627758026,7.674663543701172,529.4698731899261
D4:22:CD:00:05:6B,-19.161758422851562,9.067689895629883,-82.99146270751953,-5.95111083984375,-7.539921760559082,-9.898820877075195,529.4698731899261
D4:22:CD:00:49:AA,-149.46133422851562,-68.46589660644531,67.12451934814453,0.20726490020751953,-2.0598349571228027,7.448635101318359,529.4698731899261
D4:22:CD:00:05:6E,119.99828338623047,-63.3442268371582,22.39554786682129,9.847257614135742,3.3445591926574707,1.4158096313476562,529.4698731899261
D4:22:CD:00:05:5E,-47.98109817504883,-81.43037414550781,-155.21910095214844,3.1841988563537598,2.616119861602783,8.755578994750977,529.4698731899261
D4:22:CD:00:05:5D,87.59762573242188,-79.11176300048828,0.5665732622146606,3.4075794219970703,-2.6755051612854004,7.304227828979492,529.4943268299103
D4:22:CD:00:05:6B,-13.794967651367188,1.3199723958969116,-65.87828063964844,-1.1395092010498047,-4.729434013366699,-9.548778533935547,529.4943268299103
D4:22:CD:00:49:AA,-151.9705047607422,-66.84146881103516,66.98287200927734,6.14108943939209,-1.6367762088775635,1.3451766967773438,529.4943268299103
D4:22:CD:00:05:6E,109.33104705810547,-62.38347244262695,26.22171401977539,-0.14046582579612732,4.03688907623291,1.6675806045532227,529.4943268299103
D4:22:CD:00:05:5E,-73.59774780273438,-85.00939178466797,-132.7008819580078,-4.121880531311035,-5.328544616699219,6.880487442016602,529.4943268299103
D4:22:CD:00:05:5D,73.35098266601562,-79.652099609375,4.507138252258301,7.284785270690918,14.421457290649414,-0.8449697494506836,529.5542979240417
D4:22:CD:00:05:6B,-13.847209930419922,-7.927588939666748,-49.4950065612793,5.700794219970703,4.596746444702148,-8.427169799804688,529.5542979240417
D4:22:CD:00:49:AA,-156.6464080810547,-65.08995819091797,66.9097671508789,7.463050842285156,1.0784714221954346,-5.857962608337402,529.5542979240417
D4:22:CD:00:05:6E,90.02901458740234,-62.89495086669922,27.866718292236328,4.626906394958496,14.301214218139648,-8.286127090454102,529.5542979240417
D4:22:CD:00:05:5E,-121.83924865722656,-84.70957946777344,-83.76029968261719,-0.483528733253479,6.216360092163086,0.12529850006103516,529.5542979240417
D4:22:CD:00:05:5D,109.78666687011719,-77.8722152709961,-39.534481048583984,18.492733001708984,32.320274353027344,5.244166374206543,529.5855822563171
D4:22:CD:00:05:6B,-21.78335952758789,-13.772354125976562,-30.741544723510742,4.234431266784668,0.2539243698120117,3.7468948364257812,529.5855822563171
D4:22:CD:00:49:AA,-159.85137939453125,-64.16500854492188,66.83301544189453,1.2927887439727783,2.781736373901367,3.6056900024414062,529.5855822563171
D4:22:CD:00:05:6E,81.24714660644531,-65.44027709960938,30.052637100219727,6.677890777587891,11.097932815551758,-2.950305461883545,529.5855822563171
D4:22:CD:00:05:5E,-146.46490478515625,-82.75567626953125,-57.923240661621094,-4.122422218322754,-1.4206957817077637,1.2483139038085938,529.5855822563171
D4:22:CD:00:05:5D,142.00436401367188,-65.93762969970703,-75.56285858154297,9.54229736328125,15.34375,6.885759353637695,529.6142032146454
D4:22:CD:00:05:6B,-27.28919792175293,-12.705836296081543,-12.886734008789062,11.502527236938477,25.343280792236328,-1.0262994766235352,529.6142032146454
D4:22:CD:00:49:AA,-161.01309204101562,-65.01825714111328,68.00822448730469,0.7291179895401001,3.652968406677246,-2.5564041137695312,529.6142032146454
D4:22:CD:00:05:6E,78.5951919555664,-67.33643341064453,34.12763214111328,-5.775819778442383,9.060688018798828,-0.10646343231201172,529.6142032146454
D4:22:CD:00:05:5E,-155.99169921875,-80.40348052978516,-48.89750289916992,-3.2258830070495605,-1.0387163162231445,0.12662315368652344,529.6142032146454
D4:22:CD:00:05:5D,150.4866943359375,-50.81258773803711,-90.64685821533203,4.10944938659668,0.09271372854709625,-1.811537742614746,529.6441838741302
D4:22:CD:00:05:6B,-47.66438674926758,-8.875076293945312,-1.8890931606292725,1.7381486892700195,32.84888458251953,-28.274078369140625,529.6441838741302
D4:22:CD:00:49:AA,-160.96673583984375,-64.80525970458984,67.78372192382812,4.569928169250488,2.2699155807495117,2.849618911743164,529.6441838741302
D4:22:CD:00:05:6E,77.3697280883789,-68.74011993408203,36.4099006652832,-5.127946853637695,4.39102840423584,-0.14725494384765625,529.6441838741302
D4:22:CD:00:05:5E,-161.20668029785156,-78.5773696899414,-44.74700927734375,-2.856457233428955,-0.22995415329933167,0.7100057601928711,529.6441838741302
D4:22:CD:00:05:5D,153.13912963867188,-35.895809173583984,-98.23848724365234,-0.6542823314666748,-4.24321174621582,-7.919137001037598,529.67418384552
D4:22:CD:00:05:6B,-65.22655487060547,-7.324051856994629,1.1729176044464111,-3.1974892616271973,-4.099273681640625,17.67020034790039,529.67418384552
D4:22:CD:00:49:AA,-160.5608673095703,-65.90398406982422,67.10858154296875,5.967676162719727,1.6336488723754883,5.486649513244629,529.67418384552
D4:22:CD:00:05:6E,77.04057312011719,-70.01525115966797,39.977970123291016,-1.741417646408081,5.1376190185546875,1.3330087661743164,529.67418384552
D4:22:CD:00:05:5E,-166.21133422851562,-77.27223205566406,-41.17093276977539,-2.4674625396728516,1.142221212387085,0.8072500228881836,529.67418384552
D4:22:CD:00:05:5D,156.78829956054688,-22.929529190063477,-102.22102355957031,-0.5948759317398071,-3.143139362335205,-13.705339431762695,529.7043964862823
D4:22:CD:00:05:6B,-52.70123291015625,-7.491377830505371,-0.050800029188394547,-4.905000686645508,2.790639877319336,4.75969123840332,529.7043964862823
D4:22:CD:00:49:AA,-161.2357635498047,-67.39435577392578,67.50655364990234,4.286236763000488,3.5863027572631836,1.5320806503295898,529.7043964862823
D4:22:CD:00:05:6E,79.14012908935547,-70.6709213256836,43.704139709472656,-1.1133646965026855,4.912976264953613,4.673871994018555,529.7043964862823
D4:22:CD:00:05:5E,-171.03456115722656,-75.69326782226562,-38.40780258178711,-2.6908206939697266,-0.08169834315776825,0.42441749572753906,529.7043964862823
D4:22:CD:00:05:5D,163.1216583251953,-14.643020629882812,-104.63256072998047,-3.896164894104004,-3.068009376525879,-12.070486068725586,529.7334628105164
D4:22:CD:00:05:6B,-45.4979133605957,-9.191537857055664,-1.4371832609176636,-4.4032087326049805,21.054309844970703,-20.126190185546875,529.7334628105164
D4:22:CD:00:49:AA,-161.45236206054688,-68.57257080078125,68.00251007080078,3.5768046379089355,2.0140533447265625,2.2411651611328125,529.7334628105164
D4:22:CD:00:05:6E,84.30622863769531,-69.87483978271484,47.09636306762695,2.2616477012634277,2.2602381706237793,2.4180288314819336,529.7334628105164
D4:22:CD:00:05:5E,-173.56748962402344,-74.55281066894531,-37.53205490112305,-0.8889600038528442,0.47189921140670776,1.6691303253173828,529.7334628105164
D4:22:CD:00:05:5D,168.10882568359375,-13.70125675201416,-106.93169403076172,-6.259626388549805,-7.693192481994629,-9.707426071166992,529.7641372680664
D4:22:CD:00:05:6B,-63.37936019897461,-13.690279006958008,1.0888381004333496,-0.7335952520370483,-1.0405802726745605,-9.759944915771484,529.7641372680664
D4:22:CD:00:49:AA,-159.43214416503906,-70.48388671875,67.25162506103516,2.1587934494018555,0.15080976486206055,0.42170238494873047,529.7641372680664
D4:22:CD:00:05:6E,93.11643981933594,-67.46066284179688,51.9617919921875,2.31679105758667,1.3775522708892822,-0.21304798126220703,529.7641372680664
D4:22:CD:00:05:5E,-173.600830078125,-76.44689178466797,-36.23735046386719,1.9861280918121338,-1.0890748500823975,4.561671257019043,529.7641372680664
D4:22:CD:00:05:5D,169.05638122558594,-20.53199005126953,-108.66373443603516,-9.210447311401367,-11.040996551513672,-12.783111572265625,529.7935099601746
D4:22:CD:00:05:6B,-82.65673828125,-20.341415405273438,7.3937506675720215,2.389718532562256,-4.214914321899414,4.815608024597168,529.7935099601746
D4:22:CD:00:49:AA,-156.90399169921875,-72.16639709472656,66.44731903076172,3.139087200164795,-1.169588565826416,-3.285830497741699,529.7935099601746
D4:22:CD:00:05:6E,101.49947357177734,-63.9009895324707,59.37299728393555,1.4877474308013916,-0.34240955114364624,-1.195338249206543,529.7935099601746
D4:22:CD:00:05:5E,-163.19613647460938,-75.52421569824219,-45.104312896728516,-1.9301211833953857,-2.2752294540405273,6.485818862915039,529.7935099601746
D4:22:CD:00:05:5D,168.9876708984375,-24.510591506958008,-107.61772918701172,-8.073213577270508,-9.879196166992188,17.04458236694336,529.8541855812073
D4:22:CD:00:05:6B,-91.44692993164062,-30.407848358154297,16.948394775390625,5.5757646560668945,0.676994800567627,6.128217697143555,529.8541855812073
D4:22:CD:00:49:AA,-157.072021484375,-73.3306655883789,66.6696548461914,4.1546125411987305,-1.3577451705932617,-6.856528282165527,529.8541855812073
D4:22:CD:00:05:6E,105.73736572265625,-59.926387786865234,68.25736999511719,1.8268170356750488,-2.2617340087890625,-1.4120769500732422,529.8541855812073
D4:22:CD:00:05:5E,-156.76124572753906,-71.9778060913086,-53.1782112121582,-0.023228637874126434,-3.5505809783935547,-2.1743454933166504,529.8541855812073
D4:22:CD:00:05:5D,177.19586181640625,-29.528390884399414,-106.36823272705078,4.960976600646973,-20.069927215576172,-9.711050033569336,529.88445353508
D4:22:CD:00:05:6B,-94.32856750488281,-44.66426467895508,30.522117614746094,16.201168060302734,12.107751846313477,11.407047271728516,529.88445353508
D4:22:CD:00:49:AA,-154.7798309326172,-73.80299377441406,63.843505859375,-2.0333590507507324,1.501185655593872,-7.437536239624023,529.88445353508
D4:22:CD:00:05:6E,105.76527404785156,-54.58152389526367,77.41741180419922,3.0038208961486816,-1.7565083503723145,1.276932716369629,529.88445353508
D4:22:CD:00:05:5E,-156.0347137451172,-68.72058868408203,-56.95083999633789,-7.9879608154296875,4.097817420959473,-12.507774353027344,529.88445353508
D4:22:CD:00:05:5D,-176.4770965576172,-35.655364990234375,-109.75579071044922,-19.428787231445312,-7.129033088684082,5.344398498535156,529.9139754772186
D4:22:CD:00:05:6B,-93.5528335571289,-58.67629623413086,41.95416259765625,11.574840545654297,20.927875518798828,22.800060272216797,529.9139754772186
D4:22:CD:00:49:AA,-149.88685607910156,-72.7208023071289,60.444580078125,-6.431615829467773,4.226831436157227,-2.4977235794067383,529.9139754772186
D4:22:CD:00:05:6E,98.29036712646484,-45.720420837402344,86.37004852294922,0.4159795045852661,-4.622380256652832,15.057260513305664,529.9139754772186
D4:22:CD:00:05:5E,-159.8595428466797,-67.0133056640625,-56.17166519165039,-12.313692092895508,-6.488969802856445,-6.806235313415527,529.9139754772186
D4:22:CD:00:05:5D,-179.0793914794922,-37.34083938598633,-110.85733032226562,-4.992105484008789,-13.810220718383789,2.6458826065063477,529.9441373348236
D4:22:CD:00:05:6B,-89.38572692871094,-60.66259765625,43.14688491821289,9.890140533447266,2.9190988540649414,-7.2705793380737305,529.9441373348236
D4:22:CD:00:49:AA,-147.29493713378906,-70.79900360107422,60.623695373535156,0.7437692880630493,0.3702757954597473,3.325531005859375,529.9441373348236
D4:22:CD:00:05:6E,82.98567199707031,-32.1640625,93.38571166992188,5.165663719177246,13.6490478515625,10.591819763183594,529.9441373348236
D4:22:CD:00:05:5E,-162.8019256591797,-67.21139526367188,-52.777217864990234,2.2959094047546387,2.226555824279785,2.868344306945801,529.9441373348236
D4:22:CD:00:05:5D,-178.8568572998047,-34.970272064208984,-107.67611694335938,-5.689658164978027,-11.98918342590332,8.014963150024414,529.9742977619171
D4:22:CD:00:05:6B,-89.17781066894531,-50.5542106628418,38.676387786865234,23.041229248046875,3.2152366638183594,-1.7577171325683594,529.9742977619171
D4:22:CD:00:49:AA,-149.43409729003906,-69.14200592041016,64.91753387451172,7.429845809936523,2.0599613189697266,8.542766571044922,529.9742977619171
D4:22:CD:00:05:6E,76.62117004394531,-15.619476318359375,99.68864440917969,12.784433364868164,7.458194732666016,18.615310668945312,529.9742977619171
D4:22:CD:00:05:5E,-165.4942169189453,-66.46577453613281,-52.61930847167969,2.0220322608947754,-0.7995392084121704,5.175219535827637,529.9742977619171
D4:22:CD:00:05:5D,176.13026428222656,-29.87767219543457,-103.47926330566406,-6.866881370544434,-18.721210479736328,16.286724090576172,530.0054090023041
D4:22:CD:00:05:6B,-104.68132781982422,-36.51190185546875,32.93171310424805,15.651802062988281,4.074609756469727,16.212081909179688,530.0054090023041
D4:22:CD:00:49:AA,-150.16151428222656,-68.63484191894531,67.75190734863281,3.0620579719543457,-0.4574480652809143,3.5116443634033203,530.0054090023041
D4:22:CD:00:05:6E,70.17887878417969,1.3683161735534668,103.65737915039062,13.585935592651367,9.957612991333008,7.341373443603516,530.0054090023041
D4:22:CD:00:05:5E,-168.6193389892578,-66.53006744384766,-50.33171081542969,-5.209535598754883,-2.974140167236328,-3.139690399169922,530.0054090023041
D4:22:CD:00:05:5D,170.67283630371094,-21.26253318786621,-98.36832427978516,-5.221025466918945,-15.425615310668945,10.046981811523438,530.0344252586365
D4:22:CD:00:05:6B,-109.90567779541016,-31.0434627532959,27.582120895385742,8.868234634399414,6.138706207275391,3.8674440383911133,530.0344252586365
D4:22:CD:00:49:AA,-151.8374481201172,-68.73591613769531,71.40863800048828,3.927443027496338,3.41265869140625,1.6863393783569336,530.0344252586365
D4:22:CD:00:05:6E,66.46772003173828,21.899436950683594,105.72193145751953,9.022724151611328,12.636709213256836,2.4055004119873047,530.0344252586365
D4:22:CD:00:05:5E,-172.32113647460938,-67.39134979248047,-45.03514099121094,-3.556096076965332,1.9417331218719482,-1.7068700790405273,530.0344252586365
D4:22:CD:00:05:5D,172.15640258789062,-12.489531517028809,-94.27997589111328,-1.0967199802398682,-13.58218765258789,5.34464168548584,530.0645270347595
D4:22:CD:00:05:6B,-112.58325958251953,-34.42488479614258,25.35785484313965,3.702803134918213,3.7231221199035645,-1.7082643508911133,530.0645270347595
D4:22:CD:00:49:AA,-154.0391845703125,-69.30765533447266,74.66722869873047,2.296454906463623,2.127594470977783,4.057135581970215,530.0645270347595
D4:22:CD:00:05:6E,54.076297760009766,41.43136978149414,105.15387725830078,11.659006118774414,10.768436431884766,-7.358879089355469,530.0645270347595
D4:22:CD:00:05:5E,-176.03050231933594,-68.41078186035156,-41.04377365112305,-2.9667859077453613,-2.9228224754333496,3.3596324920654297,530.0645270347595
D4:22:CD:00:05:5D,170.1202850341797,-6.45322847366333,-92.45071411132812,-6.569790840148926,-6.092450141906738,0.8901662826538086,530.0946140289307
D4:22:CD:00:05:6B,-120.62984466552734,-41.34904098510742,26.268543243408203,5.000797271728516,2.946876049041748,0.09139728546142578,530.0946140289307
D4:22:CD:00:49:AA,-157.05703735351562,-69.68885040283203,78.56101989746094,5.422554969787598,0.16713359951972961,7.1301422119140625,530.0946140289307
D4:22:CD:00:05:6E,40.61629104614258,54.37443542480469,104.09302520751953,8.342487335205078,6.478694915771484,1.49151611328125,530.0946140289307
D4:22:CD:00:05:5E,-178.91636657714844,-70.44084167480469,-38.20260238647461,-1.6000020503997803,-0.24278020858764648,5.305668830871582,530.0946140289307
D4:22:CD:00:05:5D,166.5825653076172,-4.4274396896362305,-91.993896484375,-3.4731526374816895,0.2378709614276886,-6.019252777099609,530.1539881229401
D4:22:CD:00:05:6B,-137.38011169433594,-49.646358489990234,32.23246765136719,-0.7033262252807617,11.103816986083984,4.639936447143555,530.1539881229401
D4:22:CD:00:49:AA,-160.6279296875,-70.3301010131836,82.16081237792969,7.8814849853515625,0.9543842077255249,6.652534484863281,530.1539881229401
D4:22:CD:00:05:6E,32.0123405456543,60.632503509521484,104.4683837890625,-5.0476837158203125,9.66566276550293,7.420846939086914,530.1539881229401
D4:22:CD:00:05:5E,178.95289611816406,-74.4202651977539,-35.56853103637695,-2.6624808311462402,-1.6043334007263184,6.040863990783691,530.1539881229401
D4:22:CD:00:05:5D,163.19041442871094,-7.649575233459473,-92.17721557617188,-2.665726661682129,2.649336814880371,-13.307767868041992,530.1840670108795
D4:22:CD:00:05:6B,-158.44651794433594,-57.213462829589844,45.16347122192383,-4.370822906494141,16.95235824584961,3.8933792114257812,530.1840670108795
D4:22:CD:00:49:AA,-165.87332153320312,-71.2793960571289,86.62240600585938,5.012025833129883,0.8160955905914307,4.938892364501953,530.1840670108795
D4:22:CD:00:05:6E,28.263708114624023,62.642330169677734,107.56625366210938,0.4394438862800598,-3.287229537963867,3.2127113342285156,530.1840670108795
D4:22:CD:00:05:5E,178.21238708496094,-82.49384307861328,-30.016117095947266,-2.9408226013183594,6.091038703918457,1.9749670028686523,530.1840670108795
D4:22:CD:00:05:5D,160.63868713378906,-16.939966201782227,-92.15631866455078,-3.4515557289123535,-4.42672061920166,-25.168190002441406,530.2191913127899
D4:22:CD:00:05:6B,177.25477600097656,-61.60511779785156,64.58320617675781,-5.043178558349609,13.357723236083984,-1.2283515930175781,530.2191913127899
D4:22:CD:00:49:AA,-171.50001525878906,-72.19957733154297,91.23246002197266,-0.689090371131897,-0.32569748163223267,-0.32022762298583984,530.2191913127899
D4:22:CD:00:05:6E,35.26389694213867,62.13856887817383,115.52052307128906,2.150784969329834,1.4218111038208008,-4.818341255187988,530.2191913127899
D4:22:CD:00:05:5E,-171.6052703857422,-86.19044494628906,-36.92143249511719,-7.541707992553711,4.812873840332031,-3.301976203918457,530.2191913127899
D4:22:CD:00:05:5D,158.30271911621094,-31.961294174194336,-91.67304229736328,-5.6799116134643555,-11.643928527832031,-20.828670501708984,530.2441847324371
D4:22:CD:00:05:6B,152.3221435546875,-62.17997360229492,83.30226135253906,-0.8604302406311035,11.14207649230957,-9.268299102783203,530.2441847324371
D4:22:CD:00:49:AA,-174.23512268066406,-72.9276123046875,94.13813018798828,-2.3407840728759766,0.4136698842048645,-8.779752731323242,530.2441847324371
D4:22:CD:00:05:6E,46.707828521728516,61.6254997253418,125.74443817138672,-7.152707099914551,3.071902275085449,-5.627361297607422,530.2441847324371
D4:22:CD:00:05:5E,-166.8333740234375,-84.12367248535156,-41.949256896972656,-9.225833892822266,-3.4741692543029785,-8.389593124389648,530.2441847324371
D4:22:CD:00:05:5D,153.46621704101562,-50.7071647644043,-90.32999420166016,-2.0180087089538574,-9.279426574707031,-8.352996826171875,530.2741854190826
D4:22:CD:00:05:6B,130.6382598876953,-62.32865905761719,99.49871826171875,1.9434452056884766,6.666170120239258,-15.854509353637695,530.2741854190826
D4:22:CD:00:49:AA,-176.46493530273438,-73.74705505371094,96.55753326416016,-1.194563865661621,4.114048957824707,-11.608264923095703,530.2741854190826
D4:22:CD:00:05:6E,56.16016387939453,59.931884765625,138.1484832763672,-2.199038505554199,0.784315824508667,-8.372003555297852,530.2741854190826
D4:22:CD:00:05:5E,-163.07713317871094,-83.64321899414062,-49.14374542236328,6.194403648376465,-5.017575263977051,-13.918054580688477,530.2741854190826
D4:22:CD:00:05:5D,146.92185974121094,-73.5515365600586,-84.96344757080078,-3.097393035888672,-5.144705772399902,13.449283599853516,530.3037006855011
D4:22:CD:00:05:6B,110.30408477783203,-61.5839729309082,114.69730377197266,0.053464412689208984,3.2070932388305664,-11.313512802124023,530.3037006855011
D4:22:CD:00:49:AA,-176.55226135253906,-75.1788558959961,95.23336791992188,2.3717527389526367,1.586463212966919,-7.767287254333496,530.3037006855011
D4:22:CD:00:05:6E,64.34341430664062,54.46778869628906,150.54095458984375,-3.2784504890441895,1.2632546424865723,-11.44805908203125,530.3037006855011
D4:22:CD:00:05:5E,-158.43309020996094,-85.52088165283203,-56.118560791015625,-3.6157212257385254,7.653167724609375,3.68881893157959,530.3037006855011
D4:22:CD:00:05:5D,-5.1757493019104,-80.92253875732422,65.23328399658203,5.086454391479492,25.139728546142578,33.9775390625,530.3588695526123
D4:22:CD:00:05:6B,91.09467315673828,-59.41257858276367,126.40093231201172,-1.899705171585083,1.6719882488250732,-10.103689193725586,530.3588695526123
D4:22:CD:00:49:AA,-176.44107055664062,-76.85101318359375,94.72258758544922,3.8153867721557617,0.7798832654953003,-10.074224472045898,530.3588695526123
D4:22:CD:00:05:6E,69.36029052734375,44.34641647338867,161.39747619628906,-8.889272689819336,2.246222972869873,-15.742799758911133,530.3588695526123
D4:22:CD:00:05:5E,-149.5684356689453,-86.78679656982422,-64.15512084960938,0.5396697521209717,0.6622757911682129,0.22052669525146484,530.3588695526123
D4:22:CD:00:05:5D,-8.461614608764648,-64.21080780029297,72.0971450805664,12.224990844726562,34.50776672363281,-7.476126670837402,530.3639495372772
D4:22:CD:00:05:6B,75.4754638671875,-57.17491149902344,133.91294860839844,-4.04571533203125,7.770077705383301,-10.327110290527344,530.3639495372772
D4:22:CD:00:49:AA,179.6215057373047,-77.14334869384766,98.95573425292969,-1.4480228424072266,-4.091718673706055,-4.152961730957031,530.3639495372772
D4:22:CD:00:05:6E,69.60768127441406,33.3876953125,170.207275390625,-22.677074432373047,6.17500114440918,-17.920360565185547,530.3639495372772
D4:22:CD:00:05:5E,-143.26541137695312,-87.46449279785156,-71.31058502197266,-2.6016359329223633,-3.3252205848693848,-0.37274646759033203,530.3639495372772
D4:22:CD:00:05:5D,-6.137459754943848,-63.535221099853516,67.38311004638672,15.273555755615234,19.90298080444336,-16.965682983398438,530.4089300632477
D4:22:CD:00:05:6B,70.22665405273438,-55.02244567871094,137.6179656982422,-3.025278091430664,8.044633865356445,-8.320676803588867,530.4089300632477
D4:22:CD:00:49:AA,-175.29933166503906,-76.53873443603516,96.19710540771484,1.65090012550354,-3.197068691253662,0.22826766967773438,530.4089300632477
D4:22:CD:00:05:6E,68.14613342285156,32.09354019165039,174.23583984375,-1.4308784008026123,-9.430330276489258,-3.2881479263305664,530.4089300632477
D4:22:CD:00:05:5E,-138.9414520263672,-86.9498291015625,-79.02081298828125,-0.0052657416090369225,-2.243631362915039,2.453780174255371,530.4089300632477
D4:22:CD:00:05:5D,10.961169242858887,-71.45304107666016,54.53936004638672,8.477819442749023,13.901535034179688,-4.237157821655273,530.4539287090302
D4:22:CD:00:05:6B,71.52364349365234,-53.934810638427734,138.14405822753906,-4.02821159362793,3.9451160430908203,-6.383857727050781,530.4539287090302
D4:22:CD:00:49:AA,-170.0833740234375,-76.99748229980469,91.51434326171875,9.787919998168945,1.8463563919067383,4.284336090087891,530.4539287090302
D4:22:CD:00:05:6E,72.46116638183594,37.05647277832031,172.82997131347656,4.3933820724487305,3.7068686485290527,-15.88029670715332,530.4539287090302
D4:22:CD:00:05:5E,-123.53001403808594,-86.04581451416016,-96.10908508300781,-1.9602479934692383,-4.753069877624512,4.454474449157715,530.4539287090302
D4:22:CD:00:05:5D,59.07840347290039,-78.56302642822266,16.69242286682129,8.15087890625,10.322669982910156,1.6420698165893555,530.4842963218689
D4:22:CD:00:05:6B,78.42367553710938,-53.81965255737305,134.5689239501953,-6.2338972091674805,7.623175621032715,-0.45508861541748047,530.4842963218689
D4:22:CD:00:49:AA,-173.82046508789062,-77.03387451171875,94.47027587890625,4.5384979248046875,0.24385866522789001,1.734787940979004,530.4842963218689
D4:22:CD:00:05:6E,82.02172088623047,43.886940002441406,170.94630432128906,-4.494001388549805,-4.958653450012207,-1.694082260131836,530.4842963218689
D4:22:CD:00:05:5E,-103.85015106201172,-84.306640625,-115.76408386230469,-1.9048810005187988,-2.1774744987487793,6.0312700271606445,530.4842963218689
D4:22:CD:00:05:5D,107.77669525146484,-78.27576446533203,-25.21283531188965,-5.549202919006348,-21.55960464477539,4.207547187805176,530.513908624649
D4:22:CD:00:05:6B,91.27838134765625,-53.0581169128418,127.9961929321289,-5.552077293395996,7.389751434326172,1.2488155364990234,530.513908624649
D4:22:CD:00:49:AA,-172.54971313476562,-77.05558013916016,93.931396484375,0.32450324296951294,-0.5659329891204834,7.719053268432617,530.513908624649
D4:22:CD:00:05:6E,80.5916748046875,52.67218780517578,165.185546875,-7.498915672302246,-0.37051624059677124,-11.193462371826172,530.513908624649
D4:22:CD:00:05:5E,-84.38780212402344,-81.80303192138672,-133.51925659179688,-0.6375200748443604,-2.1240549087524414,5.997936248779297,530.513908624649
D4:22:CD:00:05:5D,121.13836669921875,-79.3558578491211,-38.85414505004883,1.874190330505371,8.072967529296875,8.226295471191406,530.5440897941589
D4:22:CD:00:05:6B,107.33158111572266,-51.123626708984375,120.09244537353516,-3.800739288330078,3.640798568725586,3.741048812866211,530.5440897941589
D4:22:CD:00:49:AA,-169.76844787597656,-77.01374816894531,94.71900177001953,1.7265028953552246,-2.3285202980041504,1.4808769226074219,530.5440897941589
D4:22:CD:00:05:6E,73.27046966552734,64.32210540771484,152.94271850585938,-12.127429962158203,5.21413516998291,-14.951166152954102,530.5440897941589
D4:22:CD:00:05:5E,-63.72487258911133,-78.3221435546875,-148.39590454101562,0.4901975393295288,-4.881145477294922,-0.7602319717407227,530.5440897941589
D4:22:CD:00:05:5D,139.27659606933594,-79.99127197265625,-56.371768951416016,0.3035028576850891,-9.674806594848633,6.664709091186523,530.5743036270142
D4:22:CD:00:05:6B,121.81681823730469,-48.45938491821289,112.64472198486328,0.02256953716278076,3.3440656661987305,1.2089519500732422,530.5743036270142
D4:22:CD:00:49:AA,-166.6576385498047,-75.63776397705078,96.46692657470703,-2.9831013679504395,-2.5464587211608887,-4.413229942321777,530.5743036270142
D4:22:CD:00:05:6E,54.41246032714844,73.97586059570312,129.14645385742188,-4.928312301635742,2.983851909637451,-10.23863410949707,530.5743036270142
D4:22:CD:00:05:5E,-63.139930725097656,-75.59484100341797,-140.70880126953125,-17.445167541503906,-3.4907331466674805,-2.2214527130126953,530.5743036270142
D4:22:CD:00:05:5D,155.79055786132812,-78.47911834716797,-66.24134826660156,-0.1201607882976532,-0.08308489620685577,-0.4964933395385742,530.6040151119232
D4:22:CD:00:05:6B,135.68458557128906,-45.63102722167969,107.35233306884766,3.1370601654052734,2.102682113647461,-1.7448015213012695,530.6040151119232
D4:22:CD:00:49:AA,-167.839111328125,-72.34082794189453,103.58129119873047,-4.080448150634766,0.7358888387680054,-5.827491760253906,530.6040151119232
D4:22:CD:00:05:6E,21.071041107177734,77.28343963623047,89.44691467285156,2.753791332244873,0.860329270362854,-7.062595367431641,530.6040151119232
D4:22:CD:00:05:5E,-76.73961639404297,-74.25281524658203,-116.626220703125,-33.07716369628906,-4.787805557250977,-2.1035962104797363,530.6040151119232
D4:22:CD:00:05:5D,166.59010314941406,-75.9107437133789,-72.9027099609375,-0.9437470436096191,-2.448519706726074,2.55452823638916,530.634104013443
D4:22:CD:00:05:6B,146.1116943359375,-43.71516799926758,104.34922790527344,6.757143974304199,-3.3670167922973633,-1.8295631408691406,530.634104013443
D4:22:CD:00:49:AA,-172.5496826171875,-70.41765594482422,110.47039794921875,0.535427451133728,1.8628723621368408,-3.9948906898498535,530.634104013443
D4:22:CD:00:05:6E,1.4382507801055908,74.57766723632812,58.8474006652832,2.0657520294189453,0.08656969666481018,0.19278621673583984,530.634104013443
D4:22:CD:00:05:5E,-106.05380249023438,-70.69893646240234,-80.64151000976562,-18.033626556396484,-9.084161758422852,-1.6333436965942383,530.634104013443
D4:22:CD:00:05:5D,171.01702880859375,-72.45124816894531,-75.3790054321289,-0.4770023226737976,-0.2575780749320984,0.08887100219726562,530.6651885509491
D4:22:CD:00:05:6B,149.86427307128906,-42.29666519165039,102.62216186523438,4.790925025939941,-1.1218268871307373,1.8375349044799805,530.6651885509491
D4:22:CD:00:49:AA,-175.89512634277344,-69.90948486328125,113.7470932006836,0.16648495197296143,1.6603224277496338,-1.4814949035644531,530.6651885509491
D4:22:CD:00:05:6E,5.237443447113037,68.9826431274414,48.746864318847656,9.508367538452148,-5.620739936828613,3.1704559326171875,530.6651885509491
D4:22:CD:00:05:5E,-127.61347961425781,-63.412513732910156,-54.3137321472168,-7.157225608825684,-7.565517425537109,-7.679969787597656,530.6651885509491
D4:22:CD:00:05:5D,173.29464721679688,-69.24011993408203,-75.37467193603516,1.0551745891571045,0.21125125885009766,0.5008993148803711,530.6938829421997
D4:22:CD:00:05:6B,149.37208557128906,-41.28551483154297,100.88958740234375,0.7477501630783081,3.25534725189209,3.29364013671875,530.6938829421997
D4:22:CD:00:49:AA,-178.18450927734375,-68.85518646240234,116.27427673339844,-3.405888080596924,1.0135009288787842,0.9865846633911133,530.6938829421997
D4:22:CD:00:05:6E,29.946916580200195,62.73181915283203,50.61595916748047,5.783182144165039,-7.813385963439941,1.803971290588379,530.6938829421997
D4:22:CD:00:05:5E,-142.59800720214844,-54.50713348388672,-37.38225173950195,-0.7582029104232788,-5.386895179748535,-10.929399490356445,530.6938829421997
D4:22:CD:00:05:5D,174.0635528564453,-66.47718811035156,-73.71853637695312,0.7412763833999634,1.2582452297210693,0.4160327911376953,530.7543995380402
D4:22:CD:00:05:6B,149.04066467285156,-40.76224899291992,98.39014434814453,0.08862495422363281,7.18995475769043,1.0298528671264648,530.7543995380402
D4:22:CD:00:49:AA,178.53187561035156,-68.42028045654297,118.97427368164062,-2.136704921722412,2.318953514099121,2.290363311767578,530.7543995380402
D4:22:CD:00:05:6E,55.09721755981445,54.089778900146484,56.0770378112793,-5.480319023132324,9.632265090942383,6.862565994262695,530.7543995380402
D4:22:CD:00:05:5E,-156.1171875,-45.765525817871094,-26.61906623840332,0.27461159229278564,-2.6762194633483887,-11.310979843139648,530.7543995380402
D4:22:CD:00:05:5D,174.34031677246094,-64.15707397460938,-72.22593688964844,-1.998178243637085,-0.3038269281387329,0.8136157989501953,530.7843980789185
D4:22:CD:00:05:6B,148.9895782470703,-40.80134201049805,95.9137954711914,-1.1318635940551758,8.702444076538086,0.1151895523071289,530.7843980789185
D4:22:CD:00:49:AA,174.8978271484375,-69.11170196533203,121.550048828125,-2.7450766563415527,1.1980862617492676,3.129283905029297,530.7843980789185
D4:22:CD:00:05:6E,66.61376190185547,43.923248291015625,56.53752517700195,-2.2640185356140137,3.1845436096191406,10.210269927978516,530.7843980789185
D4:22:CD:00:05:5E,-169.87135314941406,-39.815738677978516,-18.37872314453125,-0.3230714201927185,-2.493680953979492,-7.1520233154296875,530.7843980789185
D4:22:CD:00:05:5D,175.05491638183594,-62.157752990722656,-71.00244140625,0.17443755269050598,0.7707051038742065,0.5405635833740234,530.8139278888702
D4:22:CD:00:05:6B,147.6990966796875,-41.1228141784668,93.79817962646484,-1.7347447872161865,7.067161560058594,-0.5843601226806641,530.8139278888702
D4:22:CD:00:49:AA,170.46133422851562,-70.19198608398438,125.48181915283203,-3.662039279937744,-0.6607780456542969,3.1147947311401367,530.8139278888702
D4:22:CD:00:05:6E,75.38377380371094,32.92903518676758,51.27480697631836,0.829285740852356,1.489701747894287,-0.32619285583496094,530.8139278888702
D4:22:CD:00:05:5E,178.39517211914062,-38.278629302978516,-10.761967658996582,6.771384239196777,-1.3899660110473633,-4.66127872467041,530.8139278888702
D4:22:CD:00:05:5D,175.98712158203125,-61.02131271362305,-70.96405792236328,-3.10916805267334,-1.4520831108093262,0.6580095291137695,530.8441505432129
D4:22:CD:00:05:6B,144.75772094726562,-41.43527603149414,92.04752349853516,-2.391178607940674,7.510467529296875,-3.3793392181396484,530.8441505432129
D4:22:CD:00:49:AA,166.4308319091797,-71.05160522460938,128.05194091796875,-1.9186558723449707,0.7148853540420532,3.738579750061035,530.8441505432129
D4:22:CD:00:05:6E,81.48243713378906,19.033363342285156,42.3532600402832,5.2857208251953125,9.584579467773438,-3.207277774810791,530.8441505432129
D4:22:CD:00:05:5E,167.7029571533203,-40.8481330871582,-3.480105400085449,11.495861053466797,6.148848533630371,0.4037141799926758,530.8441505432129
D4:22:CD:00:05:5D,175.67788696289062,-60.44984436035156,-72.69213104248047,-1.7799551486968994,-0.14871299266815186,0.7611227035522461,530.874311208725
D4:22:CD:00:05:6B,141.4955291748047,-41.475128173828125,90.8342056274414,-1.894395112991333,9.128841400146484,-5.0770463943481445,530.874311208725
D4:22:CD:00:49:AA,163.7122344970703,-72.47572326660156,129.75079345703125,-1.121917486190796,0.24073371291160583,0.7119655609130859,530.874311208725
D4:22:CD:00:05:6E,81.53760528564453,1.5277179479599,31.593542098999023,17.96529769897461,11.698310852050781,-1.1280059814453125,530.874311208725
D4:22:CD:00:05:5E,165.48565673828125,-46.345985412597656,4.350942611694336,2.2575759887695312,15.817811965942383,14.691524505615234,530.874311208725
D4:22:CD:00:05:5D,175.74949645996094,-59.279293060302734,-74.16902160644531,0.5157846212387085,-0.5031450986862183,0.13358592987060547,530.9039425849915
D4:22:CD:00:05:6B,138.5279083251953,-41.71372604370117,89.4632568359375,-0.6457991600036621,8.900341033935547,-6.885894775390625,530.9039425849915
D4:22:CD:00:49:AA,159.13961791992188,-73.97339630126953,133.86647033691406,0.9381663799285889,0.923046350479126,-4.811711311340332,530.9039425849915
D4:22:CD:00:05:6E,73.51893615722656,-17.279708862304688,23.420024871826172,31.892669677734375,12.711532592773438,11.931392669677734,530.9039425849915
D4:22:CD:00:05:5E,169.12327575683594,-48.81317138671875,8.213521003723145,12.502731323242188,9.85207748413086,-10.03458023071289,530.9039425849915
D4:22:CD:00:05:5D,175.73146057128906,-57.59203338623047,-74.05193328857422,-0.741572380065918,-0.4533758759498596,0.5790510177612305,530.9340918064117
D4:22:CD:00:05:6B,136.54415893554688,-44.16715621948242,87.2316665649414,1.3996481895446777,11.469018936157227,-7.584585189819336,530.9340918064117
D4:22:CD:00:49:AA,151.07508850097656,-74.38349151611328,141.25721740722656,1.4477543830871582,1.6358237266540527,-5.482700347900391,530.9340918064117
D4:22:CD:00:05:6E,58.70016098022461,-29.771074295043945,22.302045822143555,23.649242401123047,5.771757125854492,5.007528305053711,530.9340918064117
D4:22:CD:00:05:5E,165.71145629882812,-51.36504364013672,12.179582595825195,11.675765991210938,3.4215292930603027,4.779457092285156,530.9340918064117
D4:22:CD:00:05:5D,175.32608032226562,-55.841426849365234,-72.55961608886719,0.2406376302242279,0.31241869926452637,-1.5303192138671875,530.9793009757996
D4:22:CD:00:05:6B,136.0946807861328,-51.450618743896484,82.73715209960938,-2.7736196517944336,14.870462417602539,-6.332786560058594,530.9793009757996
D4:22:CD:00:49:AA,144.2111053466797,-74.2719955444336,146.45767211914062,-0.04837937653064728,1.5807552337646484,1.6383886337280273,530.9793009757996
D4:22:CD:00:05:6E,48.777706146240234,-33.825965881347656,25.570886611938477,20.731800079345703,-4.428829193115234,-6.976360321044922,530.9793009757996
D4:22:CD:00:05:5E,161.7624053955078,-53.95610427856445,13.829732894897461,8.626310348510742,2.2569527626037598,12.240976333618164,530.9793009757996
D4:22:CD:00:05:5D,175.66188049316406,-54.4833869934082,-72.0845718383789,2.571314811706543,0.5367902517318726,1.6729259490966797,530.9943208694458
D4:22:CD:00:05:6B,145.25784301757812,-63.8763313293457,69.36418914794922,-3.103121757507324,29.13663101196289,5.4259843826293945,530.9943208694458
D4:22:CD:00:49:AA,142.009033203125,-74.10047912597656,147.48583984375,-3.1297969818115234,-0.12093459069728851,4.599782943725586,530.9943208694458
D4:22:CD:00:05:6E,55.778419494628906,-33.822998046875,30.18742561340332,21.27237319946289,7.080368995666504,-6.9260759353637695,530.9943208694458
D4:22:CD:00:05:5E,160.74276733398438,-53.459716796875,11.742445945739746,5.918688774108887,-1.9823617935180664,9.900945663452148,530.9943208694458
