Device,EulerX,EulerY,EulerZ,FreeAccX,FreeAccY,FreeAccZ,Timestamp
D4:22:CD:00:05:5D,-178.9441680908203,-56.4139518737793,-112.79545593261719,0.25419145822525024,2.38604736328125,2.8811426162719727,1347.6226224899292
D4:22:CD:00:05:6B,-39.20753479003906,-7.347822666168213,-32.498390197753906,10.715826034545898,-0.7701787948608398,4.445137023925781,1347.6226224899292
D4:22:CD:00:49:AA,152.02162170410156,-64.39653015136719,137.85772705078125,-2.467219829559326,2.4415602684020996,10.484457015991211,1347.6226224899292
D4:22:CD:00:05:6E,96.63675689697266,-0.7190183401107788,-11.737959861755371,3.755126953125,3.1058120727539062,-0.3135366439819336,1347.6226224899292
D4:22:CD:00:05:5E,-158.33531188964844,2.0592451095581055,-54.40909194946289,4.92214298248291,-5.318452835083008,1.724029541015625,1347.6226224899292
D4:22:CD:00:05:5D,-176.9921875,-61.21508026123047,-114.8487319946289,-0.556196928024292,2.2928338050842285,4.650993347167969,1347.631626367569
D4:22:CD:00:05:6B,-20.10312271118164,0.39349156618118286,-25.31479263305664,7.037363052368164,5.737846374511719,1.9139385223388672,1347.631626367569
D4:22:CD:00:49:AA,153.01919555664062,-66.34894561767578,137.3072967529297,-6.763099670410156,-0.39761924743652344,7.232933044433594,1347.631626367569
D4:22:CD:00:05:6E,101.66535949707031,-14.695230484008789,-5.242033958435059,2.8184971809387207,4.7234697341918945,1.4842729568481445,1347.631626367569
D4:22:CD:00:05:5E,-157.00848388671875,-0.5490830540657043,-57.23439407348633,0.6986696720123291,2.7989754676818848,1.1961641311645508,1347.631626367569
D4:22:CD:00:05:5D,-145.2487335205078,-73.86450958251953,-150.2972412109375,0.15828850865364075,0.09349992871284485,0.11361980438232422,1347.637626171112
D4:22:CD:00:05:6B,-6.261266708374023,5.023453712463379,-25.62510108947754,6.507364273071289,5.7026166915893555,1.6146421432495117,1347.637626171112
D4:22:CD:00:49:AA,156.06002807617188,-68.63434600830078,136.39724731445312,-6.090766906738281,-1.037078619003296,3.43595027923584,1347.637626171112
D4:22:CD:00:05:6E,106.0064926147461,-30.15120506286621,-1.7818832397460938,5.562925338745117,-0.5237091779708862,0.4141683578491211,1347.637626171112
D4:22:CD:00:05:5E,-154.0590362548828,-4.891711711883545,-60.85136413574219,1.2208714485168457,6.538213729858398,-2.84144926071167,1347.637626171112
D4:22:CD:00:05:5D,-153.40716552734375,-70.83635711669922,-143.33944702148438,-2.691075325012207,-1.5333664417266846,0.36969757080078125,1347.6419949531555
D4:22:CD:00:49:AA,162.5919952392578,-70.67282104492188,133.3135986328125,-2.697188377380371,-1.437368631362915,-2.5303006172180176,1347.6419949531555
D4:22:CD:00:05:5E,-149.4099884033203,-10.38266658782959,-65.16537475585938,2.575888156890869,6.342840194702148,-8.08596420288086,1347.6419949531555
D4:22:CD:00:05:5D,-164.81390380859375,-68.27371215820312,-131.92703247070312,-1.1529812812805176,5.926156044006348,-5.482386589050293,1347.6521575450897
D4:22:CD:00:05:6B,-85.69742584228516,-35.08344268798828,-67.70185089111328,-1.1287434101104736,-5.695951461791992,9.144420623779297,1347.6521575450897
D4:22:CD:00:49:AA,93.18427276611328,-85.52289581298828,-174.9951934814453,2.4670157432556152,0.4814470410346985,-4.737972259521484,1347.6521575450897
D4:22:CD:00:05:6E,-71.77314758300781,-74.34217071533203,-151.63011169433594,17.315731048583984,17.79242706298828,20.779624938964844,1347.6521575450897
D4:22:CD:00:05:5D,-174.06837463378906,-62.063846588134766,-121.89898681640625,-0.8193408250808716,0.29966068267822266,3.652566909790039,1347.687272310257
D4:22:CD:00:05:6B,-92.31771850585938,-26.379392623901367,-73.49576568603516,0.232255220413208,-7.576994895935059,7.328104019165039,1347.687272310257
D4:22:CD:00:49:AA,96.14800262451172,-79.04330444335938,-179.14939880371094,-0.16451850533485413,-1.8030226230621338,1.5521678924560547,1347.687272310257
D4:22:CD:00:05:6E,-73.64337158203125,-51.386474609375,-144.42990112304688,-5.236035346984863,9.540897369384766,14.10399055480957,1347.687272310257
D4:22:CD:00:05:5E,-49.06346130371094,-73.11385345458984,-91.30966186523438,-4.956523895263672,-3.914144992828369,18.790691375732422,1347.687272310257
D4:22:CD:00:05:5D,-176.84585571289062,-57.51786422729492,-119.47792053222656,0.013091152533888817,1.6558465957641602,1.635188102722168,1347.727779865265
D4:22:CD:00:05:6B,-94.84285736083984,-18.39765167236328,-80.40453338623047,17.712051391601562,7.7072296142578125,23.041587829589844,1347.727779865265
D4:22:CD:00:49:AA,113.47757720947266,-77.28679656982422,163.59262084960938,-4.162509918212891,-5.523097038269043,11.795682907104492,1347.727779865265
D4:22:CD:00:05:6E,-87.54886627197266,-35.867916107177734,-130.53369140625,-14.81483268737793,-9.205877304077148,10.381959915161133,1347.727779865265
D4:22:CD:00:05:5E,-105.30013275146484,-74.38197326660156,-38.802982330322266,-1.8049893379211426,-4.417109489440918,21.915157318115234,1347.727779865265
D4:22:CD:00:05:5D,-177.3278350830078,-54.7315788269043,-119.01536560058594,1.6614205837249756,3.4729552268981934,0.887176513671875,1347.7578027248383
D4:22:CD:00:05:6B,-81.28137969970703,-6.2220458984375,-84.94224548339844,7.799927711486816,12.53717041015625,-2.7082862854003906,1347.7578027248383
D4:22:CD:00:49:AA,135.04945373535156,-76.3547134399414,142.699462890625,0.9059145450592041,-5.644283294677734,10.744020462036133,1347.7578027248383
D4:22:CD:00:05:6E,-92.25100708007812,-38.37278366088867,-124.57792663574219,-16.32925796508789,-18.019702911376953,13.446916580200195,1347.7578027248383
D4:22:CD:00:05:5E,-151.1407928466797,-67.25244140625,4.539377689361572,9.62335205078125,-7.472861289978027,19.52071762084961,1347.7578027248383
D4:22:CD:00:05:5D,-176.57740783691406,-53.869598388671875,-119.50698852539062,1.865278959274292,3.765265941619873,0.44670677185058594,1347.7780525684357
D4:22:CD:00:05:6B,-82.13697052001953,13.322031021118164,-78.67631530761719,18.854835510253906,1.655364990234375,39.697845458984375,1347.7780525684357
D4:22:CD:00:49:AA,149.46034240722656,-73.82170104980469,127.61431121826172,0.5719704627990723,-3.154357433319092,9.036088943481445,1347.7780525684357
D4:22:CD:00:05:6E,-85.04776763916016,-46.07417297363281,-122.22518157958984,-26.301193237304688,-18.143115997314453,2.8345394134521484,1347.7780525684357
D4:22:CD:00:05:5E,-172.42178344726562,-65.05847930908203,25.592866897583008,10.673057556152344,-1.378272294998169,16.752010345458984,1347.7780525684357
D4:22:CD:00:05:5D,-175.37103271484375,-54.885536193847656,-120.01307678222656,-2.073948860168457,1.3363652229309082,3.2727270126342773,1347.807712316513
D4:22:CD:00:05:6B,-56.52129364013672,29.640769958496094,-65.61085510253906,1.516599178314209,-8.777717590332031,18.166927337646484,1347.807712316513
D4:22:CD:00:49:AA,159.39312744140625,-71.49870300292969,118.36876678466797,-2.456765651702881,-4.059048652648926,7.657747268676758,1347.807712316513
D4:22:CD:00:05:6E,-80.23261260986328,-56.780208587646484,-118.41205596923828,-21.538082122802734,-16.893508911132812,-1.4510583877563477,1347.807712316513
D4:22:CD:00:05:5E,172.67343139648438,-66.05406188964844,37.98561096191406,1.8673460483551025,-0.4430500268936157,9.57480239868164,1347.807712316513
D4:22:CD:00:05:5D,-174.0032501220703,-57.368106842041016,-121.0738296508789,-3.5006041526794434,2.3913331031799316,3.4189958572387695,1347.837733745575
D4:22:CD:00:05:6B,-24.10608673095703,37.689510345458984,-46.67226791381836,-4.843372344970703,-2.940978527069092,4.587224960327148,1347.837733745575
D4:22:CD:00:49:AA,166.96702575683594,-70.56544494628906,111.76643371582031,-4.167389869689941,-0.003146615345031023,8.842737197875977,1347.837733745575
D4:22:CD:00:05:6E,-75.1961898803711,-66.33946228027344,-112.39727020263672,-17.365638732910156,-15.928112030029297,-6.382323265075684,1347.837733745575
D4:22:CD:00:05:5E,164.35951232910156,-69.8051528930664,46.57532501220703,-4.559944152832031,5.66948127746582,1.5109663009643555,1347.837733745575
D4:22:CD:00:05:5D,-172.75169372558594,-61.6257438659668,-123.6146469116211,-1.497464656829834,1.2410452365875244,6.236413955688477,1347.8669970035553
D4:22:CD:00:05:6B,3.797227382659912,40.80690383911133,-30.632356643676758,-5.409151077270508,-10.722633361816406,4.864943504333496,1347.8669970035553
D4:22:CD:00:49:AA,176.18048095703125,-70.9875259399414,105.30375671386719,-3.9378089904785156,1.465620756149292,5.07413387298584,1347.8669970035553
D4:22:CD:00:05:6E,-76.52351379394531,-72.2633285522461,-100.97127532958984,-10.703720092773438,-13.840553283691406,-9.835140228271484,1347.8669970035553
D4:22:CD:00:05:5E,159.8472137451172,-76.94254302978516,52.89814758300781,-2.5732851028442383,5.873220443725586,-6.329556465148926,1347.8669970035553
D4:22:CD:00:05:5D,-172.0444793701172,-68.07756805419922,-127.0038070678711,-5.4001922607421875,-2.7728939056396484,10.988529205322266,1347.9228451251984
D4:22:CD:00:05:6B,25.788379669189453,44.48469924926758,-22.128480911254883,-2.2440080642700195,-2.0639090538024902,-4.408885955810547,1347.9228451251984
D4:22:CD:00:49:AA,-174.4764404296875,-70.91840362548828,99.43254852294922,-1.3904244899749756,3.0665345191955566,-2.2983922958374023,1347.9228451251984
D4:22:CD:00:05:6E,-89.32225799560547,-73.9971923828125,-80.74638366699219,-2.8943915367126465,-12.52579116821289,-11.35207748413086,1347.9228451251984
D4:22:CD:00:05:5E,109.95140075683594,-86.7311019897461,103.44578552246094,6.968764305114746,8.911260604858398,-7.7838850021362305,1347.9228451251984
D4:22:CD:00:05:5D,-172.40528869628906,-76.40836334228516,-133.65643310546875,-9.30118179321289,-4.20775032043457,-0.3755378723144531,1347.9578440189362
D4:22:CD:00:05:6B,30.175857543945312,49.48377227783203,-19.602876663208008,3.7003674507141113,-0.07930397987365723,-9.294321060180664,1347.9578440189362
D4:22:CD:00:49:AA,-168.87205505371094,-67.57472229003906,97.5555419921875,-0.4424189329147339,0.13209912180900574,-7.717240333557129,1347.9578440189362
D4:22:CD:00:05:6E,-102.85653686523438,-73.19026184082031,-61.282344818115234,1.4205594062805176,-7.486506462097168,-12.149608612060547,1347.9578440189362
D4:22:CD:00:05:5E,9.815694808959961,-72.71583557128906,-157.42547607421875,0.5304923057556152,1.2530746459960938,-2.3829216957092285,1347.9578440189362
D4:22:CD:00:05:5D,179.92022705078125,-80.73953247070312,-127.48933410644531,10.108535766601562,3.081256866455078,-9.129274368286133,1347.9870750904083
D4:22:CD:00:05:6B,23.977575302124023,55.219608306884766,-24.01416015625,1.1229782104492188,-2.972529888153076,-12.837539672851562,1347.9870750904083
D4:22:CD:00:49:AA,-164.5290069580078,-64.66253662109375,95.66693115234375,1.6096231937408447,-2.167616367340088,-6.7043046951293945,1347.9870750904083
D4:22:CD:00:05:6E,-111.24991607666016,-71.5406494140625,-47.57195281982422,2.8570632934570312,-5.729665756225586,-11.180524826049805,1347.9870750904083
D4:22:CD:00:05:5E,5.011352062225342,-52.93946838378906,-155.50491333007812,-15.053869247436523,-10.286731719970703,-7.007424354553223,1347.9870750904083
D4:22:CD:00:05:5D,169.03350830078125,-82.09595489501953,-111.35588836669922,4.6847028732299805,-4.371706008911133,-9.46103286743164,1348.0172288417816
D4:22:CD:00:05:6B,12.411282539367676,60.36930465698242,-36.74399948120117,0.5310003757476807,-5.047043800354004,-13.89533805847168,1348.0172288417816
D4:22:CD:00:49:AA,-158.98269653320312,-63.64580535888672,92.73448944091797,-1.299644947052002,1.0903372764587402,-7.701749801635742,1348.0172288417816
D4:22:CD:00:05:6E,-114.55013275146484,-70.4178237915039,-40.24790954589844,4.805329322814941,-4.2490997314453125,-6.918813705444336,1348.0172288417816
D4:22:CD:00:05:5E,0.034992605447769165,-37.951778411865234,-157.04103088378906,-23.74179458618164,-14.304243087768555,-7.044329643249512,1348.0172288417816
D4:22:CD:00:05:5D,157.05487060546875,-84.23680114746094,-92.75055694580078,6.46528434753418,-1.3062586784362793,-12.71048355102539,1348.0476303100586
D4:22:CD:00:05:6B,-6.562632083892822,62.74959182739258,-61.05990982055664,-0.33256053924560547,-4.497369766235352,-16.067615509033203,1348.0476303100586
D4:22:CD:00:49:AA,-152.52745056152344,-64.61576080322266,90.2811050415039,0.27365821599960327,1.35579252243042,-8.981151580810547,1348.0476303100586
D4:22:CD:00:05:6E,-113.9889907836914,-70.4048843383789,-36.095977783203125,4.514711380004883,-0.6481642723083496,-8.647453308105469,1348.0476303100586
D4:22:CD:00:05:5E,-3.098606824874878,-28.234634399414062,-158.94363403320312,-16.014774322509766,-10.385536193847656,-24.708282470703125,1348.0476303100586
D4:22:CD:00:05:5D,151.08726501464844,-84.26185607910156,-82.12899017333984,-5.504179000854492,25.588783264160156,-4.311931610107422,1348.0776417255402
D4:22:CD:00:05:6B,-27.60890007019043,57.97530746459961,-91.04113006591797,-2.1139326095581055,-7.078519821166992,-20.65026092529297,1348.0776417255402
D4:22:CD:00:49:AA,-147.2576446533203,-65.60328674316406,87.77606964111328,1.4018776416778564,1.0290861129760742,-8.061452865600586,1348.0776417255402
D4:22:CD:00:05:6E,-110.5914306640625,-71.20991516113281,-33.718170166015625,6.290045738220215,-1.3055076599121094,-7.811650276184082,1348.0776417255402
D4:22:CD:00:05:5E,-5.335158348083496,-25.040786743164062,-159.52459716796875,-16.378875732421875,4.351188659667969,-24.080188751220703,1348.0776417255402
D4:22:CD:00:05:5D,149.76980590820312,-82.24581909179688,-81.0961685180664,0.5063064098358154,-5.137843132019043,0.012411117553710938,1348.1074917316437
D4:22:CD:00:05:6B,-39.66392135620117,47.9405403137207,-111.30962371826172,-8.033758163452148,-12.946062088012695,-24.82265853881836,1348.1074917316437
D4:22:CD:00:49:AA,-140.75274658203125,-67.4720687866211,84.74844360351562,0.05705782771110535,-1.0373640060424805,-4.862678527832031,1348.1074917316437
D4:22:CD:00:05:6E,-105.46600341796875,-72.95065307617188,-33.28318405151367,5.370772361755371,-1.2777557373046875,-2.9547247886657715,1348.1074917316437
D4:22:CD:00:05:5E,-4.417277812957764,-29.023710250854492,-155.3826141357422,-9.630115509033203,-11.088750839233398,-26.48837661743164,1348.1074917316437
D4:22:CD:00:05:5D,151.12648010253906,-80.09573364257812,-79.14014434814453,-0.05182013660669327,-1.4546122550964355,0.5547771453857422,1348.167602777481
D4:22:CD:00:05:6B,-44.67949295043945,41.50411605834961,-120.70555114746094,-8.129276275634766,3.495361328125,-15.701154708862305,1348.167602777481
D4:22:CD:00:49:AA,-139.6028289794922,-68.1448974609375,84.91078186035156,2.8682427406311035,0.7378660440444946,1.1944141387939453,1348.167602777481
D4:22:CD:00:05:6E,-100.85006713867188,-73.99541473388672,-32.31254577636719,7.429819107055664,-3.813650131225586,0.09324073791503906,1348.167602777481
D4:22:CD:00:05:5E,-7.851282119750977,-38.84690475463867,-148.43368530273438,-14.812644958496094,-11.913642883300781,-12.947542190551758,1348.167602777481
D4:22:CD:00:05:5D,149.24322509765625,-77.64783477783203,-75.41455078125,1.0990426540374756,-3.9146666526794434,2.210890769958496,1348.1973469257355
D4:22:CD:00:05:6B,-55.572906494140625,45.96797180175781,-114.33234405517578,-6.132909774780273,-0.13999509811401367,-2.6578564643859863,1348.1973469257355
D4:22:CD:00:49:AA,-142.55079650878906,-68.84944915771484,86.08856964111328,3.613588809967041,1.1616795063018799,3.415037155151367,1348.1973469257355
D4:22:CD:00:05:6E,-107.24134063720703,-74.127685546875,-25.660856246948242,11.650949478149414,-4.267409324645996,-1.787698745727539,1348.1973469257355
D4:22:CD:00:05:5E,-16.190874099731445,-50.32560729980469,-139.74295043945312,-7.1710405349731445,-20.601428985595703,-6.340651512145996,1348.1973469257355
D4:22:CD:00:05:5D,144.75674438476562,-75.45228576660156,-69.39734649658203,0.692693829536438,-0.7788265943527222,5.445950508117676,1348.2223513126373
D4:22:CD:00:05:6B,-49.914512634277344,53.1263542175293,-96.31974029541016,-18.662452697753906,-8.552324295043945,-12.937870025634766,1348.2223513126373
D4:22:CD:00:49:AA,-143.6494140625,-70.2977523803711,85.39437866210938,-6.267295837402344,-0.6946746110916138,2.4770355224609375,1348.2223513126373
D4:22:CD:00:05:6E,-122.34762573242188,-72.37928771972656,-17.756433486938477,8.856039047241211,-3.9073328971862793,-1.3439664840698242,1348.2223513126373
D4:22:CD:00:05:5E,-24.146038055419922,-61.6141471862793,-133.3073272705078,2.832901954650879,-21.512107849121094,0.9914379119873047,1348.2223513126373
D4:22:CD:00:05:5D,135.2942657470703,-74.57749938964844,-58.88142395019531,2.29807186126709,-2.031625747680664,3.2909326553344727,1348.2564873695374
D4:22:CD:00:05:6B,-31.65145492553711,54.48005294799805,-71.18148803710938,-9.20145034790039,-7.475086212158203,-20.82622528076172,1348.2564873695374
D4:22:CD:00:49:AA,-143.8935546875,-71.61431884765625,83.4486083984375,-2.3523788452148438,1.3277313709259033,2.5560836791992188,1348.2564873695374
D4:22:CD:00:05:6E,-138.9518585205078,-70.39997863769531,-13.063885688781738,8.947816848754883,-1.4829962253570557,3.9977550506591797,1348.2564873695374
D4:22:CD:00:05:5E,-19.045907974243164,-64.70848846435547,-135.34622192382812,13.458158493041992,5.624194145202637,-0.1552104949951172,1348.2564873695374
D4:22:CD:00:05:5D,127.33297729492188,-73.0728759765625,-50.62837219238281,0.7590968608856201,-2.5511555671691895,0.14043235778808594,1348.2876632213593
D4:22:CD:00:05:6B,-20.191986083984375,49.821868896484375,-50.176475524902344,-4.809165954589844,-4.009398460388184,-6.189104080200195,1348.2876632213593
D4:22:CD:00:49:AA,-145.51620483398438,-71.20711517333984,82.08406829833984,9.145679473876953,0.3675909638404846,0.1952657699584961,1348.2876632213593
D4:22:CD:00:05:6E,-149.863037109375,-69.95921325683594,-10.5538911819458,11.044475555419922,6.646389007568359,-0.055245399475097656,1348.2876632213593
D4:22:CD:00:05:5E,-16.558191299438477,-67.33282470703125,-138.8360137939453,-3.311910629272461,5.285900115966797,6.6082305908203125,1348.2876632213593
D4:22:CD:00:05:5D,121.28346252441406,-71.2016830444336,-48.480499267578125,3.3208508491516113,-1.5692617893218994,4.987392425537109,1348.3177931308746
D4:22:CD:00:05:6B,-18.31470489501953,42.99652099609375,-37.39106369018555,-1.1096444129943848,1.0929551124572754,1.2992610931396484,1348.3177931308746
D4:22:CD:00:49:AA,-150.23463439941406,-69.99759674072266,83.14910888671875,5.560599327087402,-3.3745665550231934,-2.2717719078063965,1348.3177931308746
D4:22:CD:00:05:6E,-156.10614013671875,-71.27741241455078,-7.770514011383057,4.692675590515137,-0.27595430612564087,0.14981460571289062,1348.3177931308746
D4:22:CD:00:05:5E,-15.37472915649414,-69.98741149902344,-141.8802490234375,-3.4606337547302246,-10.771268844604492,-2.4755287170410156,1348.3177931308746
D4:22:CD:00:05:5D,117.41301727294922,-69.59198760986328,-54.14982986450195,11.611083984375,2.048184394836426,4.013411521911621,1348.376799106598
D4:22:CD:00:05:6B,-21.498645782470703,36.616371154785156,-29.375917434692383,1.675053358078003,5.42901611328125,12.26817512512207,1348.376799106598
D4:22:CD:00:49:AA,-154.72276306152344,-68.05745697021484,83.2972640991211,3.1565194129943848,-0.9954043626785278,2.516169548034668,1348.376799106598
D4:22:CD:00:05:6E,-168.16696166992188,-73.21669006347656,-1.7647844552993774,-4.021030426025391,4.685162544250488,0.9376516342163086,1348.376799106598
D4:22:CD:00:05:5E,-11.3997163772583,-71.678466796875,-146.39744567871094,-2.75044584274292,-6.618124008178711,-6.490876197814941,1348.376799106598
D4:22:CD:00:05:5D,126.02312469482422,-65.1430435180664,-71.52662658691406,25.108051300048828,13.36734390258789,3.1997241973876953,1348.3848712444305
D4:22:CD:00:05:6B,-27.680551528930664,27.824628829956055,-23.03337287902832,-5.826045036315918,-0.17893767356872559,0.9158458709716797,1348.3848712444305
D4:22:CD:00:49:AA,-155.6649627685547,-66.82604217529297,82.35433197021484,0.27986371517181396,2.2352771759033203,0.6406459808349609,1348.3848712444305
D4:22:CD:00:05:6E,-176.10391235351562,-75.30802917480469,4.107662677764893,-7.106931686401367,7.586526870727539,-0.9398593902587891,1348.3848712444305
D4:22:CD:00:05:5E,-12.370074272155762,-72.58483123779297,-147.32073974609375,-7.4606428146362305,-3.807953357696533,0.5971784591674805,1348.3848712444305
D4:22:CD:00:05:5D,139.18966674804688,-56.2205810546875,-89.86705017089844,11.397012710571289,7.386456489562988,7.325786590576172,1348.40797996521
D4:22:CD:00:05:6B,-33.126243591308594,18.223363876342773,-16.627233505249023,3.928466796875,-7.567782402038574,10.530405044555664,1348.40797996521
D4:22:CD:00:49:AA,-156.15921020507812,-67.5263900756836,82.774169921875,0.7081050872802734,2.525975227355957,-3.410130023956299,1348.40797996521
D4:22:CD:00:05:6E,179.20535278320312,-76.71436309814453,10.775413513183594,-7.415945053100586,1.7979092597961426,1.9016380310058594,1348.40797996521
D4:22:CD:00:05:5E,-19.607271194458008,-74.1969985961914,-141.85548400878906,-5.748075485229492,-0.22610077261924744,-2.8175315856933594,1348.40797996521
D4:22:CD:00:05:5D,146.85928344726562,-44.87865447998047,-103.71222686767578,2.1310067176818848,-0.30119752883911133,-0.5812711715698242,1348.43759059906
D4:22:CD:00:05:6B,-27.620006561279297,9.324029922485352,-10.456908226013184,0.7244992256164551,-2.106442451477051,-2.2014894485473633,1348.43759059906
D4:22:CD:00:49:AA,-157.57550048828125,-66.8549575805664,84.08750915527344,4.484240531921387,1.758324384689331,1.1470212936401367,1348.43759059906
D4:22:CD:00:05:6E,171.367431640625,-76.98827362060547,22.55891227722168,-4.095398902893066,0.5150055885314941,1.273045539855957,1348.43759059906
D4:22:CD:00:05:5E,-22.71196746826172,-75.65618133544922,-139.2147216796875,-5.2012939453125,-1.4771292209625244,0.5516195297241211,1348.43759059906
D4:22:CD:00:05:5D,150.869140625,-33.41795349121094,-114.08882904052734,-4.863698959350586,-0.9218558073043823,-5.301065444946289,1348.4973061084747
D4:22:CD:00:05:6B,-25.37759780883789,0.27298644185066223,-4.154292106628418,1.5570437908172607,7.289926528930664,-6.463679313659668,1348.4973061084747
D4:22:CD:00:49:AA,-156.83900451660156,-66.4609146118164,84.05416870117188,7.37122917175293,3.318500518798828,2.8060789108276367,1348.4973061084747
D4:22:CD:00:05:6E,162.49415588378906,-76.36337280273438,38.629905700683594,-1.2068259716033936,0.9066116809844971,-0.20111465454101562,1348.4973061084747
D4:22:CD:00:05:5E,-21.356821060180664,-76.99835968017578,-139.59381103515625,-4.829992294311523,-3.116978645324707,-0.37926578521728516,1348.4973061084747
D4:22:CD:00:05:5D,153.4086456298828,-23.207544326782227,-120.97173309326172,-2.7249488830566406,0.5595788955688477,-10.533184051513672,1348.5220243930817
D4:22:CD:00:05:6B,-32.391632080078125,-9.347737312316895,0.5070763230323792,0.11760330200195312,3.041886806488037,-6.7221221923828125,1348.5220243930817
D4:22:CD:00:49:AA,-155.68820190429688,-67.37700653076172,83.28386688232422,3.0205488204956055,3.02608585357666,0.988739013671875,1348.5220243930817
D4:22:CD:00:05:6E,157.52272033691406,-75.31272888183594,53.063133239746094,1.0787882804870605,-1.6571621894836426,-1.8929228782653809,1348.5220243930817
D4:22:CD:00:05:5E,-21.582406997680664,-78.45006561279297,-138.2432403564453,-1.747657299041748,-6.162737846374512,-4.325239181518555,1348.5220243930817
D4:22:CD:00:05:5D,154.78018188476562,-15.453286170959473,-126.35679626464844,-3.4160208702087402,2.1811084747314453,-9.680959701538086,1348.5575399398804
D4:22:CD:00:05:6B,-38.94305419921875,-20.78713035583496,4.594331741333008,3.6758627891540527,-2.94130802154541,-2.069291591644287,1348.5575399398804
D4:22:CD:00:49:AA,-153.7291259765625,-69.39970397949219,81.87028503417969,0.026005730032920837,2.392200469970703,-4.52078914642334,1348.5575399398804
D4:22:CD:00:05:6E,153.83602905273438,-73.45967864990234,63.41172790527344,3.9228391647338867,-5.006717681884766,-2.870150089263916,1348.5575399398804
D4:22:CD:00:05:5E,-26.439983367919922,-79.8194580078125,-132.73089599609375,-4.152640342712402,-4.575701713562012,-1.7634220123291016,1348.5575399398804
D4:22:CD:00:05:5D,156.4029541015625,-10.8180570602417,-130.4500732421875,-3.631618022918701,-0.7852513790130615,-13.196025848388672,1348.5870876312256
D4:22:CD:00:05:6B,-41.09627151489258,-34.58298110961914,9.678049087524414,6.986347198486328,1.81852126121521,-2.6791152954101562,1348.5870876312256
D4:22:CD:00:49:AA,-152.74465942382812,-71.28172302246094,81.92164611816406,3.287320137023926,2.776909351348877,-3.45098876953125,1348.5870876312256
D4:22:CD:00:05:6E,145.26036071777344,-70.3006820678711,69.64736938476562,7.015859603881836,-5.539872169494629,-0.7686166763305664,1348.5870876312256
D4:22:CD:00:05:5E,-39.3419189453125,-80.75446319580078,-119.92281341552734,-3.748286247253418,-4.028907775878906,-2.816612720489502,1348.5870876312256
D4:22:CD:00:05:5D,160.16310119628906,-11.107919692993164,-133.60879516601562,-10.247692108154297,-3.3870744705200195,-12.760848999023438,1348.6173486709595
D4:22:CD:00:05:6B,-44.730587005615234,-50.847660064697266,12.259028434753418,15.66995620727539,8.577529907226562,14.896316528320312,1348.6173486709595
D4:22:CD:00:49:AA,-152.13388061523438,-72.19280242919922,81.85578918457031,3.2756052017211914,1.3750722408294678,-1.7367868423461914,1348.6173486709595
D4:22:CD:00:05:6E,134.57363891601562,-66.98805236816406,75.35576629638672,9.99884033203125,0.43236202001571655,0.7916498184204102,1348.6173486709595
D4:22:CD:00:05:5E,-56.16865539550781,-81.11995697021484,-103.50012969970703,-4.949779510498047,-2.2787466049194336,-1.1461448669433594,1348.6173486709595
D4:22:CD:00:05:5D,160.97866821289062,-17.55458641052246,-135.2878875732422,-20.638015747070312,-10.661558151245117,-7.044589042663574,1348.6475400924683
D4:22:CD:00:05:6B,-36.93959045410156,-63.675113677978516,1.434063196182251,14.388864517211914,8.448463439941406,33.664527893066406,1348.6475400924683
D4:22:CD:00:49:AA,-150.5895233154297,-73.46737670898438,81.0797119140625,1.1142423152923584,1.2147305011749268,-1.8294692039489746,1348.6475400924683
D4:22:CD:00:05:6E,118.82989501953125,-62.82453918457031,86.03060150146484,12.667743682861328,-4.160280227661133,12.874666213989258,1348.6475400924683
D4:22:CD:00:05:5E,-70.43065643310547,-81.41236114501953,-89.56015014648438,-4.678488731384277,-3.300907611846924,-0.7048215866088867,1348.6475400924683
D4:22:CD:00:05:5D,162.64895629882812,-21.319896697998047,-134.44790649414062,-26.67058563232422,-3.9645566940307617,41.072540283203125,1348.6777489185333
D4:22:CD:00:05:6B,-27.93366241455078,-63.813472747802734,-9.031009674072266,18.514339447021484,9.627920150756836,11.333198547363281,1348.6777489185333
D4:22:CD:00:49:AA,-151.25173950195312,-74.20608520507812,82.06776428222656,2.015625476837158,-2.5418272018432617,2.813844680786133,1348.6777489185333
D4:22:CD:00:05:6E,100.38265991210938,-53.94401550292969,101.70989227294922,16.719966888427734,6.067127227783203,23.292049407958984,1348.6777489185333
D4:22:CD:00:05:5E,-83.94866180419922,-82.22095489501953,-77.2008056640625,-6.342923164367676,-3.4398903846740723,-1.3430557250976562,1348.6777489185333
D4:22:CD:00:05:5D,164.33126831054688,-16.164703369140625,-129.49972534179688,-14.554073333740234,-13.850448608398438,21.688678741455078,1348.7074980735779
D4:22:CD:00:05:6B,-39.31982421875,-52.33208465576172,-4.2714762687683105,19.661590576171875,-14.66684341430664,21.142803192138672,1348.7074980735779
D4:22:CD:00:49:AA,-154.7779083251953,-71.06704711914062,85.9905014038086,-0.3713824152946472,-1.1564323902130127,5.313754081726074,1348.7074980735779
D4:22:CD:00:05:6E,94.69929504394531,-39.81843185424805,112.89990997314453,17.067626953125,5.1284332275390625,16.800994873046875,1348.7074980735779
D4:22:CD:00:05:5E,-97.77913665771484,-83.50774383544922,-65.21690368652344,-5.320126533508301,-3.343677520751953,0.46213817596435547,1348.7074980735779
D4:22:CD:00:05:5D,167.51202392578125,-7.160682201385498,-126.07218170166016,-20.023303985595703,-12.2940673828125,15.710367202758789,1348.7374970912933
D4:22:CD:00:05:6B,-44.99415969848633,-37.7158203125,-8.03222370147705,25.762191772460938,-16.233287811279297,0.0040645599365234375,1348.7374970912933
D4:22:CD:00:49:AA,-159.61080932617188,-68.30777740478516,90.86785888671875,1.3979716300964355,1.2324602603912354,12.969856262207031,1348.7374970912933
D4:22:CD:00:05:6E,104.43402862548828,-25.535888671875,116.28648376464844,4.8014326095581055,-0.9755606651306152,6.68218994140625,1348.7374970912933
D4:22:CD:00:05:5E,-91.62333679199219,-85.58279418945312,-72.66031646728516,-5.398162841796875,-5.736193656921387,-0.9887123107910156,1348.7374970912933
D4:22:CD:00:05:5D,163.56126403808594,0.7834303975105286,-124.38928985595703,-10.511817932128906,-9.986160278320312,2.1690988540649414,1348.7675995826721
D4:22:CD:00:05:6B,-54.18787384033203,-26.944732666015625,-18.584970474243164,2.897831439971924,-20.869091033935547,-3.6852874755859375,1348.7675995826721
D4:22:CD:00:49:AA,-160.27581787109375,-68.64524841308594,91.72742462158203,4.801547050476074,5.989824295043945,9.597663879394531,1348.7675995826721
D4:22:CD:00:05:6E,114.39848327636719,-12.02068042755127,115.606201171875,8.418207168579102,-0.5689718723297119,17.25152587890625,1348.7675995826721
D4:22:CD:00:05:5E,-47.6855354309082,-85.8992691040039,-118.08363342285156,-6.993038177490234,-5.949230194091797,-0.49595069885253906,1348.7675995826721
D4:22:CD:00:05:5D,160.924560546875,4.4697585105896,-124.10005950927734,-1.5424509048461914,-1.1023423671722412,-10.475873947143555,1348.8224380016327
D4:22:CD:00:05:6B,-59.73883056640625,-24.563650131225586,-33.20607376098633,-8.96584701538086,-7.200429916381836,-4.047511100769043,1348.8224380016327
D4:22:CD:00:49:AA,-163.07041931152344,-69.12950897216797,92.73531341552734,10.923969268798828,5.864544868469238,7.141664505004883,1348.8224380016327
D4:22:CD:00:05:6E,114.29174041748047,0.5052579045295715,111.93852233886719,5.396451950073242,4.851837158203125,-0.21106338500976562,1348.8224380016327
D4:22:CD:00:05:5E,-18.850900650024414,-81.64389038085938,-149.2434844970703,-7.850981712341309,-5.804875373840332,1.787236213684082,1348.8224380016327
D4:22:CD:00:05:5D,162.15966796875,2.03570556640625,-124.52375030517578,0.1949928104877472,2.7438268661499023,-21.70224380493164,1348.8575327396393
D4:22:CD:00:05:6B,-63.11809158325195,-29.29831886291504,-45.63996505737305,-10.511749267578125,-1.9163730144500732,0.06844234466552734,1348.8575327396393
D4:22:CD:00:49:AA,-167.70872497558594,-69.68067169189453,92.94566345214844,7.178389549255371,2.0281472206115723,3.261920928955078,1348.8575327396393
D4:22:CD:00:05:6E,112.11473846435547,10.302207946777344,108.91844940185547,8.082328796386719,4.905845642089844,-0.3180961608886719,1348.8575327396393
D4:22:CD:00:05:5E,-3.006791114807129,-71.54999542236328,-162.9434814453125,2.2294883728027344,0.4974967837333679,12.933900833129883,1348.8575327396393
D4:22:CD:00:05:5D,163.79124450683594,-7.466791152954102,-125.67408752441406,-4.305225372314453,0.7846026420593262,-26.563236236572266,1348.8870372772217
D4:22:CD:00:05:6B,-64.55744934082031,-37.161922454833984,-55.280704498291016,-8.27438735961914,0.6800389289855957,-2.892667293548584,1348.8870372772217
D4:22:CD:00:49:AA,-174.5392303466797,-70.13301086425781,94.24090576171875,2.338967800140381,0.3532819151878357,-3.9078617095947266,1348.8870372772217
D4:22:CD:00:05:6E,104.4328384399414,17.671567916870117,108.35962677001953,4.744175910949707,0.7194485664367676,-0.044661521911621094,1348.8870372772217
D4:22:CD:00:05:5E,2.363572359085083,-67.3651351928711,-164.2852020263672,-4.987168312072754,-3.6347131729125977,-7.74807071685791,1348.8870372772217
D4:22:CD:00:05:5D,162.03643798828125,-22.583654403686523,-127.49134063720703,-9.09251594543457,-4.2667341232299805,-23.099079132080078,1348.9179656505585
D4:22:CD:00:05:6B,-63.35541534423828,-45.48655700683594,-65.19559478759766,-2.9172024726867676,3.2772321701049805,-1.8559236526489258,1348.9179656505585
D4:22:CD:00:49:AA,179.41873168945312,-69.33512878417969,95.61387634277344,-2.955972671508789,-1.6900296211242676,-7.5497636795043945,1348.9179656505585
D4:22:CD:00:05:6E,90.64041137695312,22.992706298828125,108.5353012084961,-0.9200547933578491,-3.091775894165039,-5.878532409667969,1348.9179656505585
D4:22:CD:00:05:5E,0.6703812479972839,-69.16141510009766,-162.4397430419922,-6.942569732666016,-7.002180099487305,-10.634084701538086,1348.9179656505585
D4:22:CD:00:05:5D,159.70094299316406,-41.56117630004883,-129.67776489257812,-8.850217819213867,-5.67976188659668,-9.639225006103516,1348.948397397995
D4:22:CD:00:05:6B,-60.47057342529297,-51.65104675292969,-76.9133071899414,-5.250471115112305,3.640594005584717,-4.720521926879883,1348.948397397995
D4:22:CD:00:49:AA,178.72543334960938,-69.18938446044922,94.06187438964844,-3.994044303894043,1.6648309230804443,-10.474971771240234,1348.948397397995
D4:22:CD:00:05:6E,77.59147644042969,26.013446807861328,110.98399353027344,-2.762507915496826,-5.496853828430176,-10.179931640625,1348.948397397995
D4:22:CD:00:05:5E,-5.677198886871338,-71.0336685180664,-158.75021362304688,6.618762016296387,4.981683731079102,-7.280916213989258,1348.948397397995
D4:22:CD:00:05:5D,158.86416625976562,-63.499168395996094,-134.37904357910156,-6.015505790710449,-1.5115301609039307,10.488325119018555,1348.977394580841
D4:22:CD:00:05:6B,-56.85417556762695,-55.768001556396484,-88.10417175292969,-4.729494094848633,5.55674934387207,-7.021913528442383,1348.977394580841
D4:22:CD:00:49:AA,177.94210815429688,-70.31613159179688,92.44232177734375,2.8203039169311523,1.8931560516357422,-9.159379959106445,1348.977394580841
D4:22:CD:00:05:6E,68.76058197021484,26.760631561279297,117.04847717285156,-1.5533854961395264,-2.8532004356384277,-11.219654083251953,1348.977394580841
D4:22:CD:00:05:5E,-9.678529739379883,-69.73399353027344,-158.35716247558594,-10.533260345458984,-2.605867862701416,-12.8973388671875,1348.977394580841
D4:22:CD:00:05:5D,-170.56854248046875,-85.61563873291016,-171.7519989013672,0.3575429320335388,4.869322776794434,23.005531311035156,1349.0069925785065
D4:22:CD:00:05:6B,-51.69203567504883,-58.402652740478516,-97.99076843261719,-2.0996861457824707,5.6687726974487305,-7.39796257019043,1349.0069925785065
D4:22:CD:00:49:AA,173.84754943847656,-71.65339660644531,92.90496826171875,3.846189498901367,-0.25022798776626587,-9.530485153198242,1349.0069925785065
D4:22:CD:00:05:6E,65.5616226196289,26.7475528717041,127.62084197998047,-5.582062721252441,2.9715609550476074,-9.119325637817383,1349.0069925785065
D4:22:CD:00:05:5E,-16.700483322143555,-70.50353240966797,-156.48724365234375,-3.7730140686035156,-1.6130177974700928,-5.39729118347168,1349.0069925785065
D4:22:CD:00:05:5D,-37.98308563232422,-72.78491973876953,53.12472915649414,9.999917984008789,14.055423736572266,23.473007202148438,1349.057297706604
D4:22:CD:00:05:6B,-47.745975494384766,-60.453678131103516,-105.17003631591797,-1.9342899322509766,4.670629501342773,-8.341781616210938,1349.057297706604
D4:22:CD:00:49:AA,169.16067504882812,-72.73050689697266,94.15724182128906,0.23973402380943298,-0.47115880250930786,-5.375916481018066,1349.057297706604
D4:22:CD:00:05:6E,64.09154510498047,26.005651473999023,142.76348876953125,-18.691486358642578,5.685792922973633,-9.344207763671875,1349.057297706604
D4:22:CD:00:05:5E,-21.451478958129883,-71.27311706542969,-154.62522888183594,-2.3445754051208496,-7.795821189880371,-3.9419631958007812,1349.057297706604
D4:22:CD:00:05:5D,-25.407215118408203,-62.096092224121094,41.00737762451172,24.451171875,14.743230819702148,-41.46387481689453,1349.0672833919525
D4:22:CD:00:05:6B,-44.74065399169922,-62.9768180847168,-109.35533142089844,-0.46265363693237305,7.593382835388184,-5.006290435791016,1349.0672833919525
D4:22:CD:00:49:AA,169.242431640625,-73.3883285522461,91.72209167480469,0.2875671982765198,-2.9001994132995605,-4.547698974609375,1349.0672833919525
D4:22:CD:00:05:6E,63.6702880859375,24.148906707763672,160.16165161132812,-28.672504425048828,6.8564958572387695,-20.122528076171875,1349.0672833919525
D4:22:CD:00:05:5E,-30.273839950561523,-72.80459594726562,-149.2035675048828,-1.5084145069122314,-1.127955675125122,-2.139601707458496,1349.0672833919525
D4:22:CD:00:05:5D,-26.699357986450195,-62.30741882324219,37.76650619506836,8.129901885986328,3.0143942832946777,2.034921646118164,1349.12255859375
D4:22:CD:00:05:6B,-40.4061279296875,-65.58521270751953,-111.36015319824219,-0.017006874084472656,6.174962043762207,-2.366598606109619,1349.12255859375
D4:22:CD:00:49:AA,174.73927307128906,-72.15110778808594,85.13328552246094,2.284543514251709,-4.122805595397949,1.416304588317871,1349.12255859375
D4:22:CD:00:05:6E,72.12918853759766,25.092283248901367,166.711669921875,12.196578979492188,-7.15177059173584,-2.7622642517089844,1349.12255859375
D4:22:CD:00:05:5E,-41.673561096191406,-74.11908721923828,-139.3414306640625,-0.22652378678321838,-6.0743408203125,-2.4864158630371094,1349.12255859375
D4:22:CD:00:05:5D,-27.570934295654297,-64.36603546142578,35.78232955932617,9.96550178527832,4.852118492126465,-7.744260787963867,1349.1577198505402
D4:22:CD:00:05:6B,-38.19998550415039,-67.31361389160156,-110.95841217041016,0.41786980628967285,2.8749866485595703,1.148341178894043,1349.1577198505402
D4:22:CD:00:49:AA,175.7549591064453,-72.95654296875,82.87265014648438,-0.859879732131958,3.2405056953430176,3.261002540588379,1349.1577198505402
D4:22:CD:00:05:6E,74.7491226196289,29.286365509033203,161.2206268310547,-4.60761833190918,-16.85437774658203,1.7626028060913086,1349.1577198505402
D4:22:CD:00:05:5E,-53.49813461303711,-74.67826080322266,-128.09661865234375,-3.7269020080566406,-7.577679634094238,1.2581462860107422,1349.1577198505402
D4:22:CD:00:05:5D,-20.79547691345215,-69.73880004882812,31.516006469726562,6.125499725341797,-5.457143783569336,1.6543092727661133,1349.1872715950012
D4:22:CD:00:05:6B,-40.98468017578125,-67.9373550415039,-108.7742919921875,1.7461349964141846,1.6141517162322998,1.5389509201049805,1349.1872715950012
D4:22:CD:00:49:AA,177.6378631591797,-73.99832153320312,80.45365142822266,0.15104827284812927,6.421338081359863,0.021050453186035156,1349.1872715950012
D4:22:CD:00:05:6E,72.74390411376953,34.15802001953125,154.5084228515625,1.3489162921905518,5.201483726501465,-10.38880729675293,1349.1872715950012
D4:22:CD:00:05:5E,-61.13326644897461,-73.96340942382812,-120.08573913574219,-6.038791656494141,-1.2354607582092285,4.749544143676758,1349.1872715950012
D4:22:CD:00:05:5D,-6.37367057800293,-77.03030395507812,26.720413208007812,10.334951400756836,6.253361701965332,-4.211450576782227,1349.2172811031342
D4:22:CD:00:05:6B,-46.3248291015625,-68.89674377441406,-104.92375946044922,2.2343297004699707,4.830182075500488,2.221149444580078,1349.2172811031342
D4:22:CD:00:49:AA,-176.9132843017578,-73.93270111083984,75.33447265625,7.418902397155762,1.331162691116333,3.3796606063842773,1349.2172811031342
D4:22:CD:00:05:6E,71.65773010253906,44.0040283203125,142.42498779296875,-16.221954345703125,7.258923530578613,-3.997987747192383,1349.2172811031342
D4:22:CD:00:05:5E,-66.07611083984375,-72.50055694580078,-115.09912872314453,-3.946498394012451,-4.968840599060059,3.772550582885742,1349.2172811031342
D4:22:CD:00:05:5D,17.419841766357422,-84.24620056152344,9.81539535522461,-9.060859680175781,-10.155845642089844,11.615106582641602,1349.2474324703217
D4:22:CD:00:05:6B,-48.92121505737305,-71.62405395507812,-100.28315734863281,2.9890565872192383,2.5572938919067383,3.693264961242676,1349.2474324703217
D4:22:CD:00:49:AA,-173.6352996826172,-73.81907653808594,73.38240051269531,6.061596870422363,-1.5441834926605225,4.232623100280762,1349.2474324703217
D4:22:CD:00:05:6E,61.19416427612305,56.0623893737793,118.41617584228516,-14.607513427734375,16.73186492919922,-17.73700714111328,1349.2474324703217
D4:22:CD:00:05:5E,-66.87185668945312,-70.26671600341797,-113.10733032226562,-5.068581581115723,-6.053616523742676,0.8597097396850586,1349.2474324703217
D4:22:CD:00:05:5D,18.888587951660156,-88.20082092285156,7.007497787475586,-0.4409615397453308,-18.374099731445312,6.221721649169922,1349.2870168685913
D4:22:CD:00:05:6B,-51.74287033081055,-76.0372314453125,-95.11676025390625,4.516571044921875,-2.8861775398254395,7.668424606323242,1349.2870168685913
D4:22:CD:00:49:AA,-172.72288513183594,-72.66292572021484,73.91820526123047,0.13405323028564453,-0.05053403973579407,2.7760963439941406,1349.2870168685913
D4:22:CD:00:05:6E,43.7933464050293,65.06784057617188,84.63912200927734,-0.12897703051567078,8.516061782836914,-7.205687522888184,1349.2870168685913
D4:22:CD:00:05:5E,-62.86081314086914,-67.2622299194336,-115.50148010253906,-3.7432446479797363,-7.042920112609863,-0.22263526916503906,1349.2870168685913
D4:22:CD:00:05:5D,169.66590881347656,-88.37393951416016,-140.45216369628906,-0.8280855417251587,-2.854159355163574,-0.8683309555053711,1349.3168025016785
D4:22:CD:00:05:6B,-62.821983337402344,-79.58104705810547,-86.30876922607422,3.7542057037353516,1.6339442729949951,8.231901168823242,1349.3168025016785
D4:22:CD:00:49:AA,-174.180419921875,-71.28321075439453,76.82476043701172,-1.71683669090271,-1.451695203781128,2.8274898529052734,1349.3168025016785
D4:22:CD:00:05:6E,19.579330444335938,66.57828521728516,45.47663497924805,5.91975212097168,-10.137025833129883,-6.63065242767334,1349.3168025016785
D4:22:CD:00:05:5E,-58.73427963256836,-63.83780288696289,-116.47484588623047,0.15465959906578064,-7.938709259033203,-0.3277626037597656,1349.3168025016785
D4:22:CD:00:05:5D,175.56471252441406,-86.02896881103516,-139.58375549316406,0.08564166724681854,6.739736557006836,3.1312408447265625,1349.3377084732056
D4:22:CD:00:05:6B,-75.40347290039062,-80.89079284667969,-71.7892837524414,1.1914126873016357,4.996908187866211,2.9824838638305664,1349.3377084732056
D4:22:CD:00:49:AA,-179.09930419921875,-69.65564727783203,83.59163665771484,-2.904381275177002,0.6087453365325928,-1.760085105895996,1349.3377084732056
D4:22:CD:00:05:6E,19.715152740478516,63.88156509399414,23.8109073638916,2.9771575927734375,-21.38317108154297,4.934338569641113,1349.3377084732056
D4:22:CD:00:05:5E,-51.80561828613281,-61.54570007324219,-114.73516845703125,-5.5948028564453125,-16.675334930419922,-5.583234786987305,1349.3377084732056
D4:22:CD:00:05:5D,179.41929626464844,-83.91114807128906,-142.21937561035156,-1.9173808097839355,4.316634178161621,0.19524002075195312,1349.3924050331116
D4:22:CD:00:05:6B,-74.22802734375,-80.11222839355469,-66.03091430664062,-2.09965181350708,0.6771918535232544,-2.4402294158935547,1349.3924050331116
D4:22:CD:00:49:AA,178.3395233154297,-67.3134994506836,91.44611358642578,-8.428253173828125,0.35605788230895996,-3.607863426208496,1349.3924050331116
D4:22:CD:00:05:6E,56.022544860839844,59.01862716674805,27.38776397705078,-4.808915138244629,-26.442455291748047,-16.02947235107422,1349.3924050331116
D4:22:CD:00:05:5E,-43.91800308227539,-62.14452362060547,-109.32368469238281,-26.026172637939453,-23.242191314697266,-13.931133270263672,1349.3924050331116
D4:22:CD:00:05:5D,-171.728515625,-81.8443374633789,-151.36814880371094,-2.868055820465088,2.8039937019348145,0.5535621643066406,1349.4226875305176
D4:22:CD:00:05:6B,-69.4854507446289,-77.47859191894531,-67.35816192626953,-5.515281677246094,-2.7600393295288086,-4.003238677978516,1349.4226875305176
D4:22:CD:00:49:AA,-178.7949981689453,-66.20216369628906,96.11787414550781,-5.078677177429199,-0.5195039510726929,-0.1477813720703125,1349.4226875305176
D4:22:CD:00:05:6E,87.90391540527344,47.42913055419922,37.101417541503906,10.71695327758789,30.292068481445312,20.67865753173828,1349.4226875305176
D4:22:CD:00:05:5E,-49.54853820800781,-67.08451843261719,-94.35930633544922,-13.78073501586914,-21.57958984375,-14.239168167114258,1349.4226875305176
D4:22:CD:00:05:5D,-164.6419219970703,-79.85396575927734,-158.8240509033203,1.4354217052459717,1.1173007488250732,1.0471134185791016,1349.4568984508514
D4:22:CD:00:05:6B,-62.587310791015625,-74.49432373046875,-73.00910186767578,-7.961586952209473,-4.6212663650512695,0.8567266464233398,1349.4568984508514
D4:22:CD:00:49:AA,-176.32962036132812,-66.1137466430664,97.64932250976562,7.570110321044922,3.9074296951293945,4.303281784057617,1349.4568984508514
D4:22:CD:00:05:6E,92.84986877441406,32.760616302490234,39.601318359375,7.894294738769531,-2.668668746948242,-1.6893186569213867,1349.4568984508514
D4:22:CD:00:05:5E,-76.32467651367188,-72.81578063964844,-65.40211486816406,-4.312763214111328,-10.552982330322266,-9.761707305908203,1349.4568984508514
D4:22:CD:00:05:5D,-159.7466278076172,-78.48019409179688,-164.28623962402344,0.5212031602859497,0.9077707529067993,0.9228401184082031,1349.4874742031097
D4:22:CD:00:05:6B,-56.09663772583008,-72.0870590209961,-78.11929321289062,-5.387630462646484,-4.496706962585449,3.496525764465332,1349.4874742031097
D4:22:CD:00:49:AA,179.82081604003906,-65.69144439697266,100.9922866821289,3.2576894760131836,3.2136406898498535,1.193359375,1349.4874742031097
D4:22:CD:00:05:6E,99.6014633178711,15.630119323730469,37.570579528808594,10.852062225341797,16.846969604492188,15.317832946777344,1349.4874742031097
D4:22:CD:00:05:5E,-116.62482452392578,-74.16909790039062,-26.9480037689209,0.15216004848480225,2.326216220855713,-5.8649702072143555,1349.4874742031097
D4:22:CD:00:05:5D,-156.5968780517578,-77.72709655761719,-168.2777557373047,0.5922480821609497,-0.39319103956222534,0.5312013626098633,1349.517480134964
D4:22:CD:00:05:6B,-49.24428939819336,-70.23087310791016,-82.17667388916016,-1.195490837097168,-3.9484024047851562,0.3885374069213867,1349.517480134964
D4:22:CD:00:49:AA,173.15988159179688,-65.47421264648438,105.73870849609375,-4.644559860229492,2.679121494293213,0.5329074859619141,1349.517480134964
D4:22:CD:00:05:6E,91.70088195800781,-3.7154645919799805,30.751298904418945,16.541542053222656,9.096771240234375,-7.495981216430664,1349.517480134964
D4:22:CD:00:05:5E,-147.15603637695312,-71.67507934570312,0.3292846977710724,-0.7982742786407471,2.4773240089416504,-5.985077857971191,1349.517480134964
D4:22:CD:00:05:5D,-155.99295043945312,-76.94593048095703,-169.2573699951172,-1.4602198600769043,-1.5028929710388184,-0.015895843505859375,1349.5475568771362
D4:22:CD:00:05:6B,-46.483924865722656,-68.58108520507812,-84.18706512451172,3.4318270683288574,-2.517216682434082,-2.439244270324707,1349.5475568771362
D4:22:CD:00:49:AA,168.34934997558594,-65.32717895507812,108.7457046508789,-4.374731063842773,-0.22060659527778625,0.5128002166748047,1349.5475568771362
D4:22:CD:00:05:6E,90.06697082519531,-23.100004196166992,26.597095489501953,29.543094635009766,9.257482528686523,11.583230972290039,1349.5475568771362
D4:22:CD:00:05:5E,-170.57041931152344,-69.22509765625,17.539478302001953,0.0077903904020786285,-0.17583897709846497,-6.582436561584473,1349.5475568771362
D4:22:CD:00:05:5D,-162.01766967773438,-75.25874328613281,-163.83277893066406,-2.3338451385498047,-3.2710013389587402,0.5576601028442383,1349.577615737915
D4:22:CD:00:05:6B,-46.132511138916016,-66.2824478149414,-86.6868896484375,-0.12014579772949219,2.1586222648620605,-2.5442986488342285,1349.577615737915
D4:22:CD:00:49:AA,164.75186157226562,-66.28069305419922,111.55501556396484,0.7742332220077515,0.293847918510437,-5.078530311584473,1349.577615737915
D4:22:CD:00:05:6E,86.38667297363281,-37.23301696777344,25.868473052978516,18.51453399658203,2.239898681640625,8.97415542602539,1349.577615737915
D4:22:CD:00:05:5E,169.77635192871094,-68.23921966552734,30.898330688476562,3.5090484619140625,9.052204132080078,-2.6280078887939453,1349.577615737915
D4:22:CD:00:05:5D,-172.8764190673828,-72.64281463623047,-149.96005249023438,-3.1575865745544434,-3.6391706466674805,-1.387681007385254,1349.6073153018951
D4:22:CD:00:05:6B,-43.15190124511719,-62.72417449951172,-90.02398681640625,-0.10564368963241577,1.440032720565796,-5.371253967285156,1349.6073153018951
D4:22:CD:00:49:AA,160.94979858398438,-67.47875213623047,114.1613540649414,3.852540969848633,1.0231294631958008,-8.733404159545898,1349.6073153018951
D4:22:CD:00:05:6E,83.76020812988281,-41.267578125,24.432788848876953,4.352174758911133,-6.371308326721191,-6.12923526763916,1349.6073153018951
D4:22:CD:00:05:5E,160.51278686523438,-71.26248931884766,42.35385513305664,6.451371192932129,17.173301696777344,-4.450198173522949,1349.6073153018951
D4:22:CD:00:05:5D,179.69955444335938,-69.48014831542969,-134.70697021484375,0.16618722677230835,0.5151259899139404,-3.6384072303771973,1349.6373581886292
D4:22:CD:00:05:6B,-41.42575454711914,-57.86344909667969,-92.85563659667969,1.6412901878356934,-0.3431571125984192,-7.376333236694336,1349.6373581886292
D4:22:CD:00:49:AA,154.98416137695312,-68.16812133789062,118.05339050292969,1.658865213394165,2.1781086921691895,-5.190512657165527,1349.6373581886292
D4:22:CD:00:05:6E,82.03282165527344,-40.32621765136719,23.628662109375,7.632955551147461,-3.5403671264648438,-5.748549461364746,1349.6373581886292
D4:22:CD:00:05:5E,157.18875122070312,-71.74884796142578,46.52623748779297,-8.615377426147461,-4.873627662658691,16.025123596191406,1349.6373581886292
D4:22:CD:00:05:5D,176.3381805419922,-65.10549926757812,-124.38424682617188,3.930868625640869,-0.10466888546943665,-0.7132177352905273,1349.6922326087952
D4:22:CD:00:05:6B,-43.1589469909668,-52.62568664550781,-94.60742950439453,1.1192269325256348,4.142230033874512,-1.8604402542114258,1349.6922326087952
D4:22:CD:00:49:AA,144.6703338623047,-68.85688781738281,126.42134094238281,-5.40614128112793,0.23512443900108337,-2.7643346786499023,1349.6922326087952
D4:22:CD:00:05:6E,83.3504409790039,-39.45509338378906,26.71706771850586,15.006824493408203,1.0573155879974365,-5.846290588378906,1349.6922326087952
D4:22:CD:00:05:5E,151.50650024414062,-71.21524810791016,44.21913528442383,1.0628361701965332,6.019772529602051,10.733762741088867,1349.6922326087952
D4:22:CD:00:05:5D,176.04673767089844,-60.09026336669922,-121.02642059326172,4.1874494552612305,-1.9601325988769531,0.3461170196533203,1349.7231695652008
D4:22:CD:00:05:6B,-45.319602966308594,-47.09552001953125,-94.41944885253906,2.527358055114746,3.5272865295410156,6.143567085266113,1349.7231695652008
D4:22:CD:00:49:AA,140.0951385498047,-68.63764953613281,131.87933349609375,-4.99184513092041,-1.7242100238800049,0.4776792526245117,1349.7231695652008
D4:22:CD:00:05:6E,89.18647003173828,-38.14190673828125,30.325374603271484,10.37508773803711,9.601343154907227,1.1669940948486328,1349.7231695652008
D4:22:CD:00:05:5E,149.17166137695312,-72.8344955444336,42.982940673828125,1.6498279571533203,1.9953587055206299,11.374931335449219,1349.7231695652008
