Device,EulerX,EulerY,EulerZ,FreeAccX,FreeAccY,FreeAccZ,Timestamp
D4:22:CD:00:05:5D,178.82643127441406,-59.04279327392578,-103.83519744873047,0.5099045038223267,-2.5719261169433594,4.012514114379883,616.4880669116974
D4:22:CD:00:05:6B,-22.905597686767578,22.36023712158203,-59.053794860839844,4.916400909423828,-9.799003601074219,4.871000289916992,616.4880669116974
D4:22:CD:00:49:AA,140.87884521484375,-65.61575317382812,138.68246459960938,-8.108430862426758,-1.5714373588562012,1.6963844299316406,616.4880669116974
D4:22:CD:00:05:6E,63.90269088745117,-49.90118408203125,49.66899108886719,9.447311401367188,14.511934280395508,1.2769927978515625,616.4880669116974
D4:22:CD:00:05:5E,-158.60427856445312,-31.83573341369629,-42.88158416748047,10.712730407714844,-5.411035537719727,8.321268081665039,616.4880669116974
D4:22:CD:00:05:6B,-0.9847270846366882,35.12131118774414,-51.293601989746094,-0.8861124515533447,-6.981440544128418,4.978669166564941,616.5000576972961
D4:22:CD:00:49:AA,141.3307342529297,-66.705078125,141.29408264160156,-2.558169364929199,0.011449003592133522,4.405032157897949,616.5000576972961
D4:22:CD:00:05:6E,74.18875122070312,-51.75341796875,51.28430938720703,4.4270734786987305,13.317451477050781,6.594507217407227,616.5000576972961
D4:22:CD:00:05:5E,-154.83067321777344,-28.79467010498047,-43.258907318115234,5.350367546081543,1.713167428970337,3.1714096069335938,616.5000576972961
D4:22:CD:00:05:5D,-87.7671890258789,-69.06389617919922,-154.06565856933594,-2.0944271087646484,1.1941101551055908,-0.9462614059448242,616.5060608386993
D4:22:CD:00:49:AA,144.46890258789062,-68.41790008544922,143.13031005859375,-3.9956588745117188,0.2263202667236328,9.233797073364258,616.5060608386993
D4:22:CD:00:05:6E,83.40032958984375,-54.121665954589844,54.786800384521484,0.4326633810997009,9.859075546264648,7.074554443359375,616.5060608386993
D4:22:CD:00:05:5E,-151.904296875,-29.862943649291992,-45.7331657409668,1.8338050842285156,6.071189880371094,-4.297492027282715,616.5060608386993
D4:22:CD:00:05:5D,-97.01807403564453,-70.34861755371094,-144.26144409179688,-6.43720817565918,0.055465854704380035,0.40706825256347656,616.5114533901215
D4:22:CD:00:05:6B,-85.65868377685547,-15.95278263092041,-47.08317947387695,0.7283250093460083,-3.913931369781494,-3.5962963104248047,616.5114533901215
D4:22:CD:00:05:6E,91.14837646484375,-57.36919021606445,59.37266159057617,-1.2168076038360596,6.215116500854492,6.896932601928711,616.5114533901215
D4:22:CD:00:05:5E,-148.3624267578125,-34.618385314941406,-50.879669189453125,0.7471176385879517,8.346498489379883,-8.388633728027344,616.5114533901215
D4:22:CD:00:05:5D,-136.1007080078125,-75.84618377685547,-104.07198333740234,0.22521734237670898,-1.4523224830627441,-3.7575559616088867,616.5174627304077
D4:22:CD:00:05:6B,-90.58880615234375,-14.766347885131836,-46.763607025146484,0.5371713638305664,-5.303422927856445,-1.1435298919677734,616.5174627304077
D4:22:CD:00:49:AA,-105.80799865722656,-54.70302200317383,9.24986743927002,3.327329158782959,-0.8426682949066162,-3.7700843811035156,616.5174627304077
D4:22:CD:00:05:5D,-170.68479919433594,-73.96369934082031,-64.71208190917969,-5.559500694274902,3.6907548904418945,-4.646247863769531,616.5532321929932
D4:22:CD:00:05:6B,-94.99471282958984,-11.22861385345459,-48.51138687133789,6.156723976135254,-0.6020064353942871,10.344776153564453,616.5532321929932
D4:22:CD:00:49:AA,-106.8683090209961,-58.549903869628906,10.381481170654297,6.597131729125977,-1.1592507362365723,-1.4013175964355469,616.5532321929932
D4:22:CD:00:05:6E,80.73971557617188,-60.175689697265625,40.86193084716797,7.003679275512695,10.32025146484375,-4.215091705322266,616.5532321929932
D4:22:CD:00:05:5E,-107.19529724121094,-84.49679565429688,-65.69379425048828,-4.076912879943848,0.020563863217830658,11.513784408569336,616.5532321929932
D4:22:CD:00:05:5D,174.83380126953125,-66.05601501464844,-46.344337463378906,4.092276573181152,3.508481502532959,2.733884811401367,616.5832376480103
D4:22:CD:00:05:6B,-88.57720947265625,-4.845544338226318,-54.522178649902344,9.185422897338867,-5.748884201049805,15.996753692626953,616.5832376480103
D4:22:CD:00:49:AA,-117.16531372070312,-69.81721496582031,20.738052368164062,10.856729507446289,-2.4174442291259766,2.3725643157958984,616.5832376480103
D4:22:CD:00:05:6E,111.32734680175781,-74.88723754882812,21.63068962097168,25.168212890625,12.368644714355469,0.9363346099853516,616.5832376480103
D4:22:CD:00:05:5E,-146.97869873046875,-83.535888671875,-24.6584529876709,-4.754630088806152,0.06700079143047333,12.218423843383789,616.5832376480103
D4:22:CD:00:05:5D,176.44683837890625,-60.995391845703125,-46.290985107421875,0.13213035464286804,6.8977508544921875,0.04461669921875,616.6132464408875
D4:22:CD:00:05:6B,-83.48341369628906,3.548509120941162,-60.62161636352539,5.718278884887695,-6.297765731811523,14.698314666748047,616.6132464408875
D4:22:CD:00:49:AA,-151.70980834960938,-77.69855499267578,55.1064567565918,6.679403305053711,1.2371127605438232,10.072702407836914,616.6132464408875
D4:22:CD:00:05:6E,-76.57948303222656,-76.60853576660156,-136.78811645507812,-10.996686935424805,-7.8221940994262695,8.484508514404297,616.6132464408875
D4:22:CD:00:05:5E,-170.7452850341797,-73.85148620605469,-0.7637129426002502,-0.9213405847549438,-3.2543845176696777,14.794780731201172,616.6132464408875
D4:22:CD:00:05:5D,178.9313507080078,-58.343441009521484,-47.3426628112793,-2.848639965057373,1.5264883041381836,2.8942604064941406,616.643208026886
D4:22:CD:00:05:6B,-75.52740478515625,13.862080574035645,-62.73972702026367,19.298568725585938,-5.749541282653809,19.802387237548828,616.643208026886
D4:22:CD:00:49:AA,171.92581176757812,-78.02161407470703,91.4859390258789,-0.2091437578201294,-0.7041028738021851,11.770551681518555,616.643208026886
D4:22:CD:00:05:6E,-80.85218048095703,-70.46934509277344,-131.80801391601562,-2.1054186820983887,-2.6137781143188477,20.47386932373047,616.643208026886
D4:22:CD:00:05:5E,-175.41075134277344,-69.46529388427734,8.149884223937988,12.122119903564453,-2.1400628089904785,15.584930419921875,616.643208026886
D4:22:CD:00:05:5D,-179.60787963867188,-57.85032272338867,-46.89967727661133,-3.0330214500427246,-0.88298499584198,2.569561004638672,616.6732079982758
D4:22:CD:00:05:6B,-57.603397369384766,23.86675453186035,-59.28401565551758,17.13140106201172,-11.487085342407227,13.099172592163086,616.6732079982758
D4:22:CD:00:49:AA,158.60548400878906,-77.28547668457031,104.71724700927734,-1.6596407890319824,-1.0810203552246094,11.070632934570312,616.6732079982758
D4:22:CD:00:05:6E,-83.40009307861328,-65.23695373535156,-126.71029663085938,-5.64523983001709,-9.666500091552734,13.076225280761719,616.6732079982758
D4:22:CD:00:05:5E,-177.21725463867188,-68.38665771484375,9.954355239868164,1.4925882816314697,-7.038425445556641,11.073461532592773,616.6732079982758
D4:22:CD:00:05:5D,-177.77650451660156,-58.97084426879883,-47.385379791259766,-3.6026854515075684,-1.4262516498565674,2.6650924682617188,616.7032105922699
D4:22:CD:00:05:6B,-32.8732795715332,30.53620147705078,-50.6055908203125,14.454992294311523,-13.011423110961914,6.372825622558594,616.7032105922699
D4:22:CD:00:49:AA,154.86508178710938,-77.33447265625,109.7661361694336,-1.7711281776428223,-0.9354491233825684,5.5368547439575195,616.7032105922699
D4:22:CD:00:05:6E,-81.73741912841797,-62.71427917480469,-123.4648666381836,-7.596381187438965,-9.160673141479492,6.116725921630859,616.7032105922699
D4:22:CD:00:05:5E,176.63514709472656,-67.68084716796875,14.529004096984863,1.6255502700805664,4.369208335876465,6.130699157714844,616.7032105922699
D4:22:CD:00:05:5D,-175.69911193847656,-61.775386810302734,-47.99477005004883,-1.5168969631195068,-1.621290683746338,3.1914892196655273,616.7338030338287
D4:22:CD:00:05:6B,-9.930230140686035,33.303253173828125,-41.516944885253906,5.917283058166504,-8.47736930847168,3.003215789794922,616.7338030338287
D4:22:CD:00:49:AA,156.87698364257812,-77.67622375488281,110.21806335449219,1.3463637828826904,-0.7619001865386963,4.100019454956055,616.7338030338287
D4:22:CD:00:05:6E,-76.96060180664062,-62.39549255371094,-120.10066986083984,-6.827945709228516,-8.236339569091797,-1.3825721740722656,616.7338030338287
D4:22:CD:00:05:5E,177.5325164794922,-69.52865600585938,14.672013282775879,-3.868743419647217,6.018860816955566,-2.0463414192199707,616.7338030338287
D4:22:CD:00:05:5D,-174.85867309570312,-66.08442687988281,-44.2181282043457,-2.8307361602783203,-7.106683731079102,5.943303108215332,616.7929475307465
D4:22:CD:00:05:6B,8.47445297241211,34.75710678100586,-35.84112548828125,0.5277879238128662,-5.880461692810059,0.6212701797485352,616.7929475307465
D4:22:CD:00:49:AA,160.34498596191406,-78.82108306884766,109.3031997680664,1.6255619525909424,1.524024486541748,1.2711706161499023,616.7929475307465
D4:22:CD:00:05:6E,-70.36449432373047,-63.304176330566406,-115.9800796508789,-8.273033142089844,-8.468759536743164,-5.663734436035156,616.7929475307465
D4:22:CD:00:05:5E,-179.9329376220703,-72.62769317626953,11.573217391967773,0.03610944002866745,3.4777283668518066,-7.734862327575684,616.7929475307465
D4:22:CD:00:05:5D,-178.1641082763672,-71.0643539428711,-33.876312255859375,8.246826171875,-7.085916519165039,7.925004959106445,616.8230500221252
D4:22:CD:00:05:6B,17.092206954956055,35.195274353027344,-31.671974182128906,-6.528924942016602,-2.3450708389282227,-4.159772872924805,616.8230500221252
D4:22:CD:00:49:AA,167.71755981445312,-78.97367858886719,105.1687240600586,-2.7480664253234863,0.3478793501853943,-3.287187099456787,616.8230500221252
D4:22:CD:00:05:6E,-67.08586883544922,-64.89911651611328,-110.0478286743164,-5.102365493774414,-9.142328262329102,-8.26260757446289,616.8230500221252
D4:22:CD:00:05:5E,-176.43170166015625,-78.52582550048828,5.805232048034668,2.7552103996276855,3.1260986328125,-11.103082656860352,616.8230500221252
D4:22:CD:00:05:5D,169.9774169921875,-74.62859344482422,-18.468669891357422,1.6567356586456299,2.2030296325683594,-5.172347068786621,616.8535795211792
D4:22:CD:00:05:6B,13.882264137268066,34.46222686767578,-29.33570671081543,-6.312067985534668,-1.189382791519165,-5.39111328125,616.8535795211792
D4:22:CD:00:49:AA,175.90216064453125,-77.48131561279297,100.32720947265625,-0.7196094989776611,-0.14070212841033936,-7.935545921325684,616.8535795211792
D4:22:CD:00:05:6E,-67.99166870117188,-66.76500701904297,-102.61822509765625,-1.324204921722412,-7.92011833190918,-9.743558883666992,616.8535795211792
D4:22:CD:00:05:5E,-145.10928344726562,-86.8084945678711,-27.429933547973633,-0.1056780070066452,3.0536623001098633,-10.817983627319336,616.8535795211792
D4:22:CD:00:05:5D,159.9718780517578,-72.41099548339844,-3.2199690341949463,-7.193920135498047,5.941588401794434,-8.634073257446289,616.8835783004761
D4:22:CD:00:05:6B,8.765469551086426,34.84907150268555,-32.826656341552734,-1.7472853660583496,-2.6971874237060547,-7.054827690124512,616.8835783004761
D4:22:CD:00:49:AA,-179.9064483642578,-76.82560729980469,98.2587890625,3.464395046234131,0.8620749711990356,-8.735326766967773,616.8835783004761
D4:22:CD:00:05:6E,-72.52916717529297,-68.46204376220703,-94.50504302978516,1.5324523448944092,-7.070869445800781,-11.378095626831055,616.8835783004761
D4:22:CD:00:05:5E,-21.44993019104004,-81.51913452148438,-152.32708740234375,-5.4631242752075195,3.3080954551696777,-10.75545883178711,616.8835783004761
D4:22:CD:00:05:5D,154.51129150390625,-71.3952407836914,5.995426177978516,7.852599143981934,-0.049579307436943054,-13.704832077026367,616.9135890007019
D4:22:CD:00:05:6B,8.426770210266113,36.19623947143555,-45.49666976928711,-0.13661229610443115,-3.516770362854004,-11.035852432250977,616.9135890007019
D4:22:CD:00:49:AA,-176.9185791015625,-78.00508117675781,97.7909164428711,-0.3303748369216919,2.8174614906311035,-7.6101484298706055,616.9135890007019
D4:22:CD:00:05:6E,-79.99690246582031,-70.45913696289062,-87.04338073730469,3.773381233215332,-6.1650848388671875,-11.285444259643555,616.9135890007019
D4:22:CD:00:05:5E,-12.660825729370117,-70.94332885742188,-160.53900146484375,-10.750730514526367,-0.036111101508140564,-9.636089324951172,616.9135890007019
D4:22:CD:00:05:5D,152.94720458984375,-72.36936950683594,10.353697776794434,-19.123600006103516,11.212875366210938,-0.7402048110961914,616.9435744285583
D4:22:CD:00:05:6B,12.642069816589355,36.40191650390625,-66.80382537841797,-1.9895718097686768,-5.442592620849609,-14.425590515136719,616.9435744285583
D4:22:CD:00:49:AA,-175.88067626953125,-80.64911651611328,99.1463623046875,-0.28973013162612915,1.1894152164459229,-9.289579391479492,616.9435744285583
D4:22:CD:00:05:6E,-87.21061706542969,-73.35750579833984,-81.7962875366211,3.3186874389648438,-4.270373344421387,-8.829521179199219,616.9435744285583
D4:22:CD:00:05:5E,-11.108089447021484,-61.9139289855957,-161.41796875,-17.22503662109375,-5.204493522644043,-8.752840042114258,616.9435744285583
D4:22:CD:00:05:5D,157.11367797851562,-69.89997100830078,9.411774635314941,3.755474090576172,3.144272804260254,-5.254717826843262,616.9735732078552
D4:22:CD:00:05:6B,13.20630168914795,33.38991928100586,-90.8693618774414,0.19060611724853516,-27.510120391845703,-23.643630981445312,616.9735732078552
D4:22:CD:00:49:AA,-176.6052703857422,-82.83976745605469,101.17010498046875,1.9574615955352783,1.2149457931518555,-4.669716835021973,616.9735732078552
D4:22:CD:00:05:6E,-92.18819427490234,-76.91021728515625,-78.41560363769531,2.966367721557617,-3.1840977668762207,-3.7126355171203613,616.9735732078552
D4:22:CD:00:05:5E,-12.776042938232422,-56.147674560546875,-159.8683319091797,-20.947669982910156,-6.879578590393066,-11.479909896850586,616.9735732078552
D4:22:CD:00:05:5D,159.40768432617188,-67.2703857421875,8.152225494384766,2.181960105895996,4.1927337646484375,1.257206916809082,617.0036602020264
D4:22:CD:00:05:6B,7.511423110961914,34.17280960083008,-108.94292449951172,19.801498413085938,-9.664070129394531,-31.25762939453125,617.0036602020264
D4:22:CD:00:49:AA,175.02316284179688,-84.69393157958984,108.88496398925781,1.6170530319213867,1.2146689891815186,1.912820816040039,617.0036602020264
D4:22:CD:00:05:6E,-90.03289794921875,-79.93069458007812,-78.62982177734375,2.3904714584350586,-2.3151450157165527,0.6734228134155273,617.0036602020264
D4:22:CD:00:05:5E,-17.331096649169922,-54.83719253540039,-156.43995666503906,-16.71426773071289,-11.99244499206543,-15.259710311889648,617.0036602020264
D4:22:CD:00:05:5D,160.0139923095703,-65.23637390136719,8.558640480041504,1.941180944442749,-0.9801592826843262,3.4850873947143555,617.033360004425
D4:22:CD:00:05:6B,-16.987567901611328,37.15724563598633,-97.3725357055664,1.1256766319274902,6.107128143310547,-5.139192581176758,617.033360004425
D4:22:CD:00:49:AA,155.61314392089844,-85.38968658447266,126.17500305175781,-4.534585952758789,-1.8039467334747314,2.5279436111450195,617.033360004425
D4:22:CD:00:05:6E,-81.3152847290039,-81.06200408935547,-80.12627410888672,2.6808218955993652,-4.519370079040527,1.926980972290039,617.033360004425
D4:22:CD:00:05:5E,-30.74264144897461,-57.5974235534668,-150.59909057617188,-25.270252227783203,-12.205236434936523,-20.46446990966797,617.033360004425
D4:22:CD:00:05:5D,157.74063110351562,-63.994712829589844,10.228580474853516,0.8012757301330566,-0.8077989816665649,4.1624555587768555,617.0934495925903
D4:22:CD:00:05:6B,-31.008590698242188,45.68958282470703,-73.85131072998047,-14.700706481933594,-12.736797332763672,-13.46876335144043,617.0934495925903
D4:22:CD:00:49:AA,132.30589294433594,-85.5367431640625,147.3448028564453,-6.794946670532227,-0.6486064195632935,3.965733528137207,617.0934495925903
D4:22:CD:00:05:6E,-79.65582275390625,-81.19475555419922,-72.42110443115234,8.46605110168457,-10.616996765136719,2.673097610473633,617.0934495925903
D4:22:CD:00:05:5E,-44.22815704345703,-61.214935302734375,-144.3945770263672,4.515677452087402,-5.02901554107666,8.269294738769531,617.0934495925903
D4:22:CD:00:05:5D,154.24244689941406,-63.63071823120117,13.10179328918457,1.5169291496276855,1.517744541168213,4.577794075012207,617.1235239505768
D4:22:CD:00:05:6B,-21.086767196655273,47.85942459106445,-46.94828796386719,1.8305914402008057,-10.764156341552734,-18.925045013427734,617.1235239505768
D4:22:CD:00:49:AA,119.89264678955078,-85.8402328491211,159.0379638671875,-3.973456382751465,-1.8083226680755615,2.8285951614379883,617.1235239505768
D4:22:CD:00:05:6E,-101.7242202758789,-81.39136505126953,-51.69462203979492,13.09153938293457,-15.287700653076172,1.7290658950805664,617.1235239505768
D4:22:CD:00:05:5E,-41.689273834228516,-63.248077392578125,-145.0976104736328,-9.528387069702148,-12.0911865234375,7.497987747192383,617.1235239505768
D4:22:CD:00:05:5D,149.05026245117188,-63.28832244873047,16.83753776550293,3.380366802215576,1.9233386516571045,3.186112403869629,617.1533353328705
D4:22:CD:00:05:6B,-11.971221923828125,42.75439453125,-28.49535369873047,-2.1104421615600586,-1.112952709197998,-6.622518539428711,617.1533353328705
D4:22:CD:00:49:AA,119.37826538085938,-85.76358795166016,158.82763671875,1.2015106678009033,-1.6298985481262207,3.1365013122558594,617.1533353328705
D4:22:CD:00:05:6E,-151.9980010986328,-81.6598129272461,-16.542251586914062,5.367765426635742,-5.464042663574219,7.584739685058594,617.1533353328705
D4:22:CD:00:05:5E,-50.574859619140625,-66.19100189208984,-141.5478973388672,-6.764803886413574,2.301100730895996,4.062053680419922,617.1533353328705
D4:22:CD:00:05:5D,141.92185974121094,-62.52526092529297,19.947004318237305,5.432689666748047,2.13608455657959,4.9682207107543945,617.1835677623749
D4:22:CD:00:05:6B,-11.285959243774414,35.39459228515625,-19.253108978271484,-8.631692886352539,5.885198593139648,-1.1146068572998047,617.1835677623749
D4:22:CD:00:49:AA,132.42654418945312,-85.61144256591797,143.89585876464844,3.391573429107666,-2.3174753189086914,1.1846132278442383,617.1835677623749
D4:22:CD:00:05:6E,170.4488525390625,-81.76868438720703,6.045697212219238,4.266434669494629,23.28638458251953,4.597377777099609,617.1835677623749
D4:22:CD:00:05:5E,-48.38194274902344,-68.31879425048828,-145.4025115966797,-5.037769317626953,-2.760535717010498,-3.972184658050537,617.1835677623749
D4:22:CD:00:05:5D,131.96722412109375,-61.609920501708984,18.849044799804688,-2.42578125,15.215873718261719,0.5693864822387695,617.2135765552521
D4:22:CD:00:05:6B,-18.35947608947754,28.184810638427734,-13.10589599609375,-12.967765808105469,9.789161682128906,6.258476257324219,617.2135765552521
D4:22:CD:00:49:AA,155.66490173339844,-84.52045440673828,117.7701644897461,7.377436637878418,-0.5376956462860107,-1.9214048385620117,617.2135765552521
D4:22:CD:00:05:6E,140.86338806152344,-80.97169494628906,19.236482620239258,-5.217652320861816,6.068449020385742,-1.6314449310302734,617.2135765552521
D4:22:CD:00:05:5E,-38.15074157714844,-69.34298706054688,-153.04598999023438,-6.336931228637695,-4.586091041564941,-0.9778585433959961,617.2135765552521
D4:22:CD:00:05:5D,132.2367706298828,-56.886226654052734,6.066355228424072,-8.099584579467773,24.686519622802734,6.348394393920898,617.2432465553284
D4:22:CD:00:05:6B,-29.796573638916016,22.004575729370117,-6.5555925369262695,-11.53740119934082,11.253931045532227,5.854630470275879,617.2432465553284
D4:22:CD:00:49:AA,167.77471923828125,-83.19340515136719,102.51687622070312,4.670856475830078,-2.3720569610595703,-3.9718427658081055,617.2432465553284
D4:22:CD:00:05:6E,122.82830047607422,-79.30267333984375,30.89219856262207,1.8211393356323242,5.513772964477539,-2.1862730979919434,617.2432465553284
D4:22:CD:00:05:5E,-38.16371536254883,-70.93282318115234,-153.48374938964844,-5.3179473876953125,-2.3478055000305176,-2.4292197227478027,617.2432465553284
D4:22:CD:00:05:5D,137.24365234375,-49.28685760498047,-9.716538429260254,2.5518808364868164,17.41079330444336,0.5356674194335938,617.2732467651367
D4:22:CD:00:05:6B,-38.291011810302734,16.843259811401367,-0.5172266960144043,-7.242205619812012,4.85566520690918,0.9037466049194336,617.2732467651367
D4:22:CD:00:49:AA,176.4686279296875,-82.0984878540039,92.42948913574219,-2.783881187438965,0.6316003799438477,0.9115438461303711,617.2732467651367
D4:22:CD:00:05:6E,110.00283813476562,-78.998779296875,47.61921310424805,-7.390817642211914,-1.6371898651123047,-0.2583322525024414,617.2732467651367
D4:22:CD:00:05:5E,-41.916778564453125,-72.34398651123047,-150.68955993652344,-5.127389907836914,-1.9974193572998047,-0.8973855972290039,617.2732467651367
D4:22:CD:00:05:5D,146.12930297851562,-40.2452507019043,-23.781665802001953,6.828144073486328,7.584249496459961,-6.228996276855469,617.3032441139221
D4:22:CD:00:05:6B,-51.66395950317383,10.366310119628906,5.038202285766602,-6.439997673034668,1.2854485511779785,-16.298450469970703,617.3032441139221
D4:22:CD:00:49:AA,-179.29428100585938,-80.91913604736328,87.60126495361328,2.344067096710205,2.1468281745910645,0.37399768829345703,617.3032441139221
D4:22:CD:00:05:6E,92.63345336914062,-77.79486083984375,69.57426452636719,-10.468969345092773,-4.435839653015137,0.2627840042114258,617.3032441139221
D4:22:CD:00:05:5E,-46.08806228637695,-73.59642028808594,-146.76113891601562,-4.972397804260254,-1.3157963752746582,-1.5535287857055664,617.3032441139221
D4:22:CD:00:05:5D,157.86807250976562,-31.059814453125,-34.594940185546875,0.16618511080741882,-3.8466482162475586,-9.398042678833008,617.333869934082
D4:22:CD:00:05:6B,-73.12715148925781,4.30393648147583,12.211384773254395,2.7978081703186035,-9.420888900756836,7.8885650634765625,617.333869934082
D4:22:CD:00:49:AA,-178.9630584716797,-79.66376495361328,85.62249755859375,6.3851470947265625,-1.166072130203247,-1.1327476501464844,617.333869934082
D4:22:CD:00:05:6E,80.08352661132812,-74.82652282714844,84.89908599853516,-4.024380683898926,-0.8131842613220215,-1.9892220497131348,617.333869934082
D4:22:CD:00:05:5E,-52.40059280395508,-75.09002685546875,-140.99215698242188,-4.246000289916992,-1.793215036392212,-1.6815433502197266,617.333869934082
D4:22:CD:00:05:5D,168.78419494628906,-23.158668518066406,-41.23036575317383,-4.014867782592773,-3.383732318878174,-9.381002426147461,617.3934319019318
D4:22:CD:00:05:6B,-83.90154266357422,0.6844994425773621,17.229787826538086,-2.926095962524414,5.752712249755859,8.648202896118164,617.3934319019318
D4:22:CD:00:49:AA,-178.27383422851562,-78.81526947021484,83.31782531738281,1.6548168659210205,1.1788322925567627,-2.020669460296631,617.3934319019318
D4:22:CD:00:05:6E,76.45945739746094,-70.91832733154297,93.73086547851562,-0.8064173460006714,0.5112274885177612,-2.9934511184692383,617.3934319019318
D4:22:CD:00:05:5E,-63.787166595458984,-76.56441497802734,-130.1162872314453,-4.373928070068359,-3.6922764778137207,-2.4941158294677734,617.3934319019318
D4:22:CD:00:05:5D,177.65489196777344,-18.303497314453125,-45.96961975097656,-5.063823699951172,-3.385852813720703,-6.965727806091309,617.4239451885223
D4:22:CD:00:05:6B,-87.46208953857422,-3.9155161380767822,19.818937301635742,-3.578648090362549,-1.1225125789642334,-8.47825813293457,617.4239451885223
D4:22:CD:00:49:AA,-175.20025634765625,-78.7860107421875,79.3313217163086,-1.4317803382873535,0.6246813535690308,-1.9191255569458008,617.4239451885223
D4:22:CD:00:05:6E,79.53759765625,-67.10572052001953,99.1447982788086,-1.0174214839935303,-0.9177309274673462,-3.7858409881591797,617.4239451885223
D4:22:CD:00:05:5E,-75.41192626953125,-77.38274383544922,-118.20906066894531,-4.6970415115356445,-2.8755898475646973,-2.005465030670166,617.4239451885223
D4:22:CD:00:05:5D,-178.92518615722656,-16.18590545654297,-50.832027435302734,-1.2742919921875,-7.08575439453125,-10.865257263183594,617.4532425403595
D4:22:CD:00:05:6B,-93.06436920166016,-12.101393699645996,21.79203224182129,1.0812921524047852,1.1080620288848877,-2.329341411590576,617.4532425403595
D4:22:CD:00:49:AA,-170.28054809570312,-79.38121795654297,74.2600326538086,1.0664281845092773,0.8492610454559326,-3.117414951324463,617.4532425403595
D4:22:CD:00:05:6E,84.14191436767578,-64.29225158691406,102.5418701171875,1.2002537250518799,-3.5028467178344727,-2.100363254547119,617.4532425403595
D4:22:CD:00:05:5E,-88.4928970336914,-77.7613525390625,-104.68798828125,-3.674539566040039,-1.5355024337768555,-0.9398422241210938,617.4532425403595
D4:22:CD:00:05:5D,179.0404510498047,-17.54271697998047,-55.32694625854492,0.7976992130279541,-9.037826538085938,-9.154668807983398,617.4837048053741
D4:22:CD:00:05:6B,-92.27162170410156,-26.872798919677734,21.800140380859375,6.199382781982422,3.9416966438293457,4.891511917114258,617.4837048053741
D4:22:CD:00:49:AA,-163.0890350341797,-79.90326690673828,66.33824157714844,4.204543113708496,0.377718448638916,-1.6873540878295898,617.4837048053741
D4:22:CD:00:05:6E,86.615234375,-62.57994842529297,106.2269058227539,6.455605506896973,2.7975845336914062,-3.6591057777404785,617.4837048053741
D4:22:CD:00:05:5E,-102.70466613769531,-77.61280059814453,-89.9170913696289,-5.124977111816406,-2.3948488235473633,-0.8030595779418945,617.4837048053741
D4:22:CD:00:05:5D,176.01571655273438,-21.37294578552246,-59.918128967285156,-1.6682913303375244,-6.18731689453125,23.452320098876953,617.5136964321136
D4:22:CD:00:05:6B,-78.46910095214844,-49.14031219482422,17.643047332763672,13.53866958618164,-0.3030257225036621,19.30272674560547,617.5136964321136
D4:22:CD:00:49:AA,-157.0181121826172,-80.56643676757812,59.0159912109375,4.319340705871582,-0.5995360612869263,-0.5860834121704102,617.5136964321136
D4:22:CD:00:05:6E,93.4840087890625,-60.44573974609375,110.26665496826172,3.9629902839660645,-6.376953125,2.711942672729492,617.5136964321136
D4:22:CD:00:05:5E,-113.2834701538086,-76.77392578125,-79.0081558227539,-5.985200881958008,-3.263258457183838,-1.6223926544189453,617.5136964321136
D4:22:CD:00:05:5D,175.88851928710938,-22.388811111450195,-62.99258041381836,5.040592193603516,-23.704421997070312,6.915605545043945,617.5442109107971
D4:22:CD:00:05:6B,-37.61309814453125,-66.34396362304688,-5.7177815437316895,12.84373664855957,2.43135404586792,36.840919494628906,617.5442109107971
D4:22:CD:00:49:AA,-153.2333221435547,-80.87663269042969,53.88847351074219,-4.089509010314941,0.4284083843231201,1.2315235137939453,617.5442109107971
D4:22:CD:00:05:6E,94.53897857666016,-57.05315399169922,113.06356811523438,5.526053428649902,-6.094498634338379,12.003799438476562,617.5442109107971
D4:22:CD:00:05:5E,-118.73181915283203,-76.02769470214844,-73.56571197509766,-6.006221771240234,-1.8077640533447266,-0.6862707138061523,617.5442109107971
D4:22:CD:00:05:5D,174.3045654296875,-21.34357261657715,-64.77505493164062,-0.6152265071868896,-20.71475601196289,10.642814636230469,617.5732264518738
D4:22:CD:00:05:6B,-27.159698486328125,-65.82999420166016,-4.840315341949463,17.53820037841797,21.495532989501953,1.8481264114379883,617.5732264518738
D4:22:CD:00:49:AA,-152.18905639648438,-80.8493423461914,53.10002899169922,-1.4558017253875732,-1.3702616691589355,7.281679153442383,617.5732264518738
D4:22:CD:00:05:6E,98.58612060546875,-49.95027542114258,113.11560821533203,1.297607421875,-0.9927864074707031,13.932666778564453,617.5732264518738
D4:22:CD:00:05:5E,-121.39177703857422,-76.13892364501953,-71.04052734375,-5.3982343673706055,-1.7412164211273193,-0.7045202255249023,617.5732264518738
D4:22:CD:00:05:5D,172.8209991455078,-16.791187286376953,-64.52241516113281,3.8290743827819824,-22.691204071044922,6.577110290527344,617.6032164096832
D4:22:CD:00:05:6B,-51.10178756713867,-57.35904312133789,13.335586547851562,19.45409393310547,0.677276611328125,13.779897689819336,617.6032164096832
D4:22:CD:00:49:AA,-156.24134826660156,-80.03573608398438,56.9916877746582,4.176092147827148,-0.8486111164093018,5.858255386352539,617.6032164096832
D4:22:CD:00:05:6E,101.50740814208984,-41.43935775756836,103.54998016357422,10.792999267578125,-23.175960540771484,26.39288330078125,617.6032164096832
D4:22:CD:00:05:5E,-122.19189453125,-77.13706970214844,-70.42090606689453,-6.242807388305664,-1.9771523475646973,-0.9988508224487305,617.6032164096832
D4:22:CD:00:05:5D,171.809326171875,-11.4567289352417,-63.46971130371094,3.2525038719177246,-16.838966369628906,8.339784622192383,617.6334462165833
D4:22:CD:00:05:6B,-63.519126892089844,-46.9461784362793,18.242656707763672,14.192766189575195,-5.293535232543945,10.81427001953125,617.6334462165833
D4:22:CD:00:49:AA,-158.6541748046875,-79.2184066772461,58.29192352294922,1.5285913944244385,0.05105147510766983,4.773323059082031,617.6334462165833
D4:22:CD:00:05:6E,90.65949249267578,-32.5012092590332,86.9044418334961,2.341597557067871,-7.022260665893555,23.11172103881836,617.6334462165833
D4:22:CD:00:05:5E,-118.50428771972656,-78.57426452636719,-74.63611602783203,-6.79317569732666,-2.4941515922546387,-0.8051290512084961,617.6334462165833
D4:22:CD:00:05:5D,170.7798309326172,-7.110934257507324,-62.60990524291992,-1.4883427619934082,-10.917474746704102,4.066472053527832,617.6934795379639
D4:22:CD:00:05:6B,-68.62633514404297,-40.98515319824219,15.678075790405273,7.058036804199219,-4.438128471374512,-0.07844352722167969,617.6934795379639
D4:22:CD:00:49:AA,-162.08311462402344,-78.91868591308594,62.22468948364258,2.3740267753601074,1.0252602100372314,7.153331756591797,617.6934795379639
D4:22:CD:00:05:6E,79.33960723876953,-25.83969497680664,70.65068817138672,-2.420043468475342,4.298036575317383,11.99079704284668,617.6934795379639
D4:22:CD:00:05:5E,-106.27262878417969,-80.28973388671875,-88.04326629638672,-6.9417009353637695,-1.6875452995300293,0.21510791778564453,617.6934795379639
D4:22:CD:00:05:5D,170.52740478515625,-5.315742015838623,-61.6340217590332,-1.0146241188049316,-3.647599220275879,-1.5858888626098633,617.723465681076
D4:22:CD:00:05:6B,-72.00605773925781,-41.902427673339844,10.415987968444824,0.9497750997543335,-3.3841552734375,-1.350367546081543,617.723465681076
D4:22:CD:00:49:AA,-168.20306396484375,-77.82142639160156,67.09490203857422,2.643493175506592,0.4455759525299072,6.550188064575195,617.723465681076
D4:22:CD:00:05:6E,69.5248794555664,-24.094316482543945,57.81651306152344,-2.7093496322631836,3.570436954498291,4.841155052185059,617.723465681076
D4:22:CD:00:05:5E,-77.9792709350586,-81.28873443603516,-118.1788558959961,-7.902820587158203,-1.622814655303955,0.7812938690185547,617.723465681076
D4:22:CD:00:05:5D,170.7245635986328,-7.122159004211426,-60.85576248168945,-1.4975361824035645,-0.5246133804321289,-6.0251569747924805,617.7549948692322
D4:22:CD:00:05:6B,-72.05123901367188,-49.48845672607422,1.9652535915374756,-2.4798502922058105,-3.3989295959472656,4.071412086486816,617.7549948692322
D4:22:CD:00:49:AA,-173.9728546142578,-76.62846374511719,71.97240447998047,4.115786552429199,1.2615807056427002,4.591400146484375,617.7549948692322
D4:22:CD:00:05:6E,62.978755950927734,-26.56447982788086,50.69281005859375,-0.5979325771331787,-1.7996575832366943,-2.6967382431030273,617.7549948692322
D4:22:CD:00:05:5E,-23.036094665527344,-76.07656860351562,-170.06869506835938,-0.6927489042282104,2.9358949661254883,5.187498092651367,617.7549948692322
D4:22:CD:00:05:5D,169.405029296875,-12.74487590789795,-60.45322799682617,-1.4600918292999268,-0.664634108543396,-11.071996688842773,617.7839984893799
D4:22:CD:00:05:6B,-65.42231750488281,-60.55559158325195,-12.015284538269043,-5.01560115814209,-4.061490058898926,4.76249885559082,617.7839984893799
D4:22:CD:00:49:AA,-179.64947509765625,-75.33238983154297,76.57646179199219,1.985473394393921,1.5363764762878418,2.0499658584594727,617.7839984893799
D4:22:CD:00:05:6E,58.8706169128418,-29.39963150024414,49.833770751953125,-3.10842227935791,-1.2019405364990234,-2.570309638977051,617.7839984893799
D4:22:CD:00:05:5E,-15.67253303527832,-71.80281066894531,-176.6929473876953,-4.237760543823242,0.3839859962463379,-0.7682723999023438,617.7839984893799
D4:22:CD:00:05:5D,165.86097717285156,-21.663419723510742,-60.41136932373047,-1.3650012016296387,-3.741086483001709,-14.305070877075195,617.8142557144165
D4:22:CD:00:05:6B,-42.32413864135742,-71.77787017822266,-41.01434326171875,-1.564262866973877,-3.3365249633789062,0.9442539215087891,617.8142557144165
D4:22:CD:00:49:AA,177.01266479492188,-74.23992156982422,78.74455261230469,0.6793434619903564,0.5756012201309204,-4.42491340637207,617.8142557144165
D4:22:CD:00:05:6E,51.00288009643555,-29.216611862182617,53.97273254394531,-7.112969398498535,2.691554546356201,0.8945636749267578,617.8142557144165
D4:22:CD:00:05:5E,-23.434724807739258,-72.57809448242188,-171.95835876464844,-12.88072395324707,5.634998321533203,-8.243289947509766,617.8142557144165
D4:22:CD:00:05:5D,160.63844299316406,-32.92530822753906,-60.2376708984375,-0.5544419288635254,-5.427512168884277,-13.628561019897461,617.8439071178436
D4:22:CD:00:05:6B,10.20476245880127,-74.93096160888672,-100.69409942626953,-0.022861003875732422,-5.60006046295166,1.1464242935180664,617.8439071178436
D4:22:CD:00:49:AA,175.51605224609375,-73.97700500488281,79.40568542480469,0.17362108826637268,-0.9897340536117554,-9.03493881225586,617.8439071178436
D4:22:CD:00:05:6E,36.960391998291016,-24.193754196166992,60.88491439819336,-7.412567138671875,5.839394569396973,-5.6946563720703125,617.8439071178436
D4:22:CD:00:05:5E,-47.084739685058594,-74.65049743652344,-152.3062744140625,3.6382393836975098,-1.742612361907959,-5.787286758422852,617.8439071178436
D4:22:CD:00:05:5D,156.0015411376953,-46.001644134521484,-59.294349670410156,0.6354883909225464,-6.154295921325684,-10.288232803344727,617.8732318878174
D4:22:CD:00:05:6B,33.54953384399414,-67.69739532470703,-139.61459350585938,-6.786681175231934,-5.691102981567383,0.07980537414550781,617.8732318878174
D4:22:CD:00:49:AA,174.4696502685547,-75.02384948730469,79.94316101074219,-0.1885422170162201,-0.07703621685504913,-8.305173873901367,617.8732318878174
D4:22:CD:00:05:6E,21.860998153686523,-14.838263511657715,68.81123352050781,5.621100425720215,3.155348777770996,-8.628910064697266,617.8732318878174
D4:22:CD:00:05:5E,-61.950164794921875,-74.21158599853516,-143.91517639160156,6.318228721618652,-14.133735656738281,-8.037410736083984,617.8732318878174
D4:22:CD:00:05:5D,151.01535034179688,-61.22402572631836,-56.677024841308594,0.4597218632698059,-4.912845611572266,-3.171018600463867,617.903425693512
D4:22:CD:00:05:6B,27.97270965576172,-59.414947509765625,-155.60256958007812,-10.887716293334961,-0.5207123756408691,-5.0970659255981445,617.903425693512
D4:22:CD:00:49:AA,171.92564392089844,-77.15910339355469,80.88297271728516,3.4848532676696777,1.9741594791412354,-9.357154846191406,617.903425693512
D4:22:CD:00:05:6E,15.008784294128418,-1.1843682527542114,77.84097290039062,15.077047348022461,2.2124509811401367,-3.7575817108154297,617.903425693512
D4:22:CD:00:05:5E,-73.83008575439453,-74.3260498046875,-138.72056579589844,-5.01765251159668,-6.798051834106445,-3.1347198486328125,617.903425693512
D4:22:CD:00:05:5D,140.34645080566406,-77.65875244140625,-45.49123764038086,4.295581817626953,-1.054184913635254,8.798851013183594,617.9330673217773
D4:22:CD:00:05:6B,18.00542640686035,-51.46343994140625,-164.6373748779297,-8.248762130737305,5.103336334228516,-7.353013038635254,617.9330673217773
D4:22:CD:00:49:AA,166.58566284179688,-78.04539489746094,82.57015228271484,2.950063705444336,-1.1922526359558105,-8.760908126831055,617.9330673217773
D4:22:CD:00:05:6E,16.433616638183594,15.181357383728027,90.60584259033203,-1.5904932022094727,8.28305435180664,-12.446298599243164,617.9330673217773
D4:22:CD:00:05:5E,-82.79708862304688,-74.23426818847656,-131.33029174804688,-3.051236629486084,-2.3256406784057617,-4.979713439941406,617.9330673217773
D4:22:CD:00:05:5D,37.108131408691406,-83.39574432373047,66.94676971435547,1.099168300628662,22.974449157714844,19.140758514404297,617.9935035705566
D4:22:CD:00:05:6B,11.98690128326416,-44.231285095214844,-172.18301391601562,-8.146026611328125,5.694372177124023,-6.829559326171875,617.9935035705566
D4:22:CD:00:49:AA,166.47201538085938,-77.779052734375,80.88233947753906,-2.872692108154297,-2.1920013427734375,-0.3680572509765625,617.9935035705566
D4:22:CD:00:05:6E,17.574920654296875,30.837919235229492,108.38307189941406,-16.55972671508789,7.121362686157227,-29.40896224975586,617.9935035705566
D4:22:CD:00:05:5E,-93.12409210205078,-73.27488708496094,-121.87449645996094,-6.238487243652344,-6.279538154602051,1.2507562637329102,617.9935035705566
D4:22:CD:00:05:5D,27.804426193237305,-74.91100311279297,87.3416976928711,-19.57464599609375,24.124351501464844,-12.81502914428711,618.0240666866302
D4:22:CD:00:05:6B,6.528127193450928,-38.372196197509766,-178.99107360839844,-11.17774772644043,4.571170806884766,-6.388333320617676,618.0240666866302
D4:22:CD:00:49:AA,169.44851684570312,-79.23299407958984,79.63272094726562,-3.9595866203308105,-0.12700900435447693,1.8078298568725586,618.0240666866302
D4:22:CD:00:05:6E,29.47870445251465,40.63779830932617,130.4954376220703,6.413357734680176,15.074098587036133,-19.037887573242188,618.0240666866302
D4:22:CD:00:05:5E,-99.32020568847656,-71.82144165039062,-116.82728576660156,-4.366103172302246,-1.039506435394287,3.6880950927734375,618.0240666866302
D4:22:CD:00:05:5D,28.827930450439453,-75.98015594482422,81.25709533691406,-6.194807052612305,23.616477966308594,-6.666938781738281,618.0535771846771
D4:22:CD:00:05:6B,-4.880740642547607,-34.928680419921875,176.88047790527344,-11.526590347290039,6.41749382019043,-11.779058456420898,618.0535771846771
D4:22:CD:00:49:AA,172.8463592529297,-80.20352935791016,78.3583755493164,7.752594947814941,-1.3403191566467285,0.7888736724853516,618.0535771846771
D4:22:CD:00:05:6E,63.12030792236328,43.53400421142578,137.3922119140625,-7.7188920974731445,-11.234027862548828,-1.0768938064575195,618.0535771846771
D4:22:CD:00:05:5E,-98.37101745605469,-70.31188201904297,-117.56028747558594,-6.975595474243164,-4.337643623352051,4.413031578063965,618.0535771846771
D4:22:CD:00:05:5D,73.43421936035156,-80.50508117675781,36.26945114135742,13.563339233398438,8.531864166259766,12.983955383300781,618.083705663681
D4:22:CD:00:05:6B,-19.119667053222656,-34.56861877441406,176.51145935058594,-8.551586151123047,7.608753204345703,-4.721702575683594,618.083705663681
D4:22:CD:00:49:AA,174.50030517578125,-80.08849334716797,76.69120025634766,11.684886932373047,-2.2287468910217285,7.208362579345703,618.083705663681
D4:22:CD:00:05:6E,70.87569427490234,45.31052017211914,135.79766845703125,-12.400102615356445,-9.316436767578125,2.462246894836426,618.083705663681
D4:22:CD:00:05:5E,-91.80928802490234,-68.48344421386719,-123.1383285522461,-5.843256950378418,-4.049737930297852,3.7221508026123047,618.083705663681
D4:22:CD:00:05:5D,116.59542846679688,-78.60565185546875,-2.268165349960327,11.775665283203125,-18.381328582763672,5.480403900146484,618.1380279064178
D4:22:CD:00:05:6B,-25.0302734375,-36.755882263183594,176.51104736328125,-6.301311492919922,9.11378288269043,0.14173316955566406,618.1380279064178
D4:22:CD:00:49:AA,173.06793212890625,-79.7090835571289,77.93558502197266,1.8553788661956787,1.1975619792938232,5.190407752990723,618.1380279064178
D4:22:CD:00:05:6E,59.00834655761719,47.7946662902832,128.010498046875,0.5321307182312012,-7.508577346801758,-11.04864501953125,618.1380279064178
D4:22:CD:00:05:5E,-78.81835174560547,-66.31764221191406,-134.14517211914062,-2.758208751678467,-7.43498420715332,2.6318769454956055,618.1380279064178
D4:22:CD:00:05:5D,129.15708923339844,-79.40824127197266,-12.998024940490723,7.44644832611084,4.194636344909668,4.747365951538086,618.1440329551697
D4:22:CD:00:05:6B,-18.296295166015625,-42.3700065612793,174.34036254882812,-3.7821497917175293,10.908180236816406,0.19939041137695312,618.1440329551697
D4:22:CD:00:49:AA,173.62701416015625,-78.65619659423828,79.01705169677734,-2.6479811668395996,0.11401619017124176,2.8840465545654297,618.1440329551697
D4:22:CD:00:05:6E,50.0396728515625,53.180572509765625,115.68476104736328,-3.995314121246338,12.95844841003418,-7.246723175048828,618.1440329551697
D4:22:CD:00:05:5E,-70.237060546875,-62.96934509277344,-138.29373168945312,-5.627103805541992,-6.6859941482543945,-8.185747146606445,618.1440329551697
D4:22:CD:00:05:5D,147.08407592773438,-79.0528335571289,-27.584665298461914,-7.843112945556641,-3.784442901611328,1.2444534301757812,618.1737504005432
D4:22:CD:00:05:6B,2.229496479034424,-49.5910758972168,167.42486572265625,-1.141993761062622,7.650555610656738,1.6042280197143555,618.1737504005432
D4:22:CD:00:49:AA,175.22286987304688,-78.17818450927734,81.12920379638672,-2.450373649597168,-4.771027565002441,-1.8770031929016113,618.1737504005432
D4:22:CD:00:05:6E,47.48258972167969,60.15731430053711,98.17633056640625,1.8305749893188477,-0.026050295680761337,-6.89608097076416,618.1737504005432
D4:22:CD:00:05:5E,-61.163421630859375,-60.37888717651367,-137.3124542236328,-15.968828201293945,1.1302454471588135,-6.741207122802734,618.1737504005432
D4:22:CD:00:05:5D,160.8360595703125,-79.04039764404297,-40.698665618896484,0.373940646648407,1.8967962265014648,-0.9148397445678711,618.2042636871338
D4:22:CD:00:05:6B,37.78102111816406,-52.69282531738281,154.43429565429688,2.4870996475219727,10.395877838134766,-3.2357687950134277,618.2042636871338
D4:22:CD:00:49:AA,174.86805725097656,-76.80378723144531,84.64409637451172,-2.289437770843506,1.8775150775909424,-5.777448654174805,618.2042636871338
D4:22:CD:00:05:6E,45.722137451171875,65.08702850341797,74.91259002685547,-11.144523620605469,-4.519644737243652,-0.606170654296875,618.2042636871338
D4:22:CD:00:05:5E,-47.391605377197266,-59.73626708984375,-131.51235961914062,-26.688922882080078,-14.613761901855469,-13.139965057373047,618.2042636871338
D4:22:CD:00:05:5D,173.3339385986328,-78.70758819580078,-52.13522720336914,1.462303876876831,-0.25673770904541016,0.16194915771484375,618.2337851524353
D4:22:CD:00:05:6B,67.7777328491211,-50.26849365234375,145.52587890625,8.694009780883789,-9.438533782958984,2.529224395751953,618.2337851524353
D4:22:CD:00:49:AA,172.66920471191406,-74.7191162109375,88.58295440673828,-3.557875633239746,1.3802618980407715,-5.841353416442871,618.2337851524353
D4:22:CD:00:05:6E,32.67391586303711,66.40592193603516,47.771881103515625,-4.786653518676758,-6.432723045349121,-3.237697124481201,618.2337851524353
D4:22:CD:00:05:5E,-50.288421630859375,-61.970088958740234,-115.052978515625,-17.477283477783203,-15.066596984863281,-7.441705703735352,618.2337851524353
D4:22:CD:00:05:5D,-177.30247497558594,-77.66122436523438,-60.86477279663086,0.30105775594711304,-0.838894248008728,-0.0279541015625,618.2934720516205
D4:22:CD:00:05:6B,68.6933364868164,-50.1147575378418,145.93753051757812,7.79818058013916,-6.171515464782715,4.5804853439331055,618.2934720516205
D4:22:CD:00:49:AA,168.54953002929688,-73.02320098876953,92.95925903320312,-1.757291555404663,-0.19882014393806458,-1.692728042602539,618.2934720516205
D4:22:CD:00:05:6E,22.743865966796875,62.69450378417969,22.8564453125,-6.675301551818848,-9.432968139648438,-4.0246381759643555,618.2934720516205
D4:22:CD:00:05:5E,-69.92505645751953,-64.91719055175781,-90.56538391113281,-7.902692794799805,-9.926559448242188,-10.012285232543945,618.2934720516205
D4:22:CD:00:05:5D,-171.97618103027344,-76.07987213134766,-65.80963134765625,1.637793779373169,-0.1826702058315277,0.1536550521850586,618.3235635757446
D4:22:CD:00:05:6B,54.7927360534668,-52.53772735595703,152.35040283203125,-2.168588638305664,0.13471931219100952,2.5690746307373047,618.3235635757446
D4:22:CD:00:49:AA,164.9855194091797,-71.04879760742188,95.90335845947266,-0.9863787889480591,1.427198886871338,4.490790367126465,618.3235635757446
D4:22:CD:00:05:6E,23.95995330810547,55.06340789794922,7.738805770874023,-7.562475204467773,-3.4642372131347656,-5.758973121643066,618.3235635757446
D4:22:CD:00:05:5E,-96.49494934082031,-65.69877624511719,-63.992515563964844,-3.0552492141723633,-3.0130558013916016,-9.400121688842773,618.3235635757446
D4:22:CD:00:05:5D,-170.65257263183594,-74.43107604980469,-66.65743255615234,1.7465472221374512,1.2722499370574951,0.16316699981689453,618.3530840873718
D4:22:CD:00:05:6B,42.374053955078125,-54.760128021240234,161.71095275878906,-6.076740264892578,1.128141164779663,2.1788206100463867,618.3530840873718
D4:22:CD:00:49:AA,162.68711853027344,-70.19482421875,97.3536376953125,-2.1584157943725586,3.3025264739990234,1.2312374114990234,618.3530840873718
D4:22:CD:00:05:6E,31.699304580688477,45.88528823852539,1.7261701822280884,0.5140621662139893,-6.174121856689453,-4.831829071044922,618.3530840873718
D4:22:CD:00:05:5E,-121.72888946533203,-64.23513793945312,-41.719791412353516,0.16761088371276855,0.19139757752418518,-9.095256805419922,618.3530840873718
D4:22:CD:00:05:5D,-171.0436553955078,-72.85999298095703,-65.6398696899414,-0.2380291223526001,-0.2957031726837158,0.20197105407714844,618.3840801715851
D4:22:CD:00:05:6B,34.34706115722656,-57.18197250366211,173.169921875,-7.4004716873168945,-3.1128697395324707,0.8459806442260742,618.3840801715851
D4:22:CD:00:49:AA,160.52008056640625,-70.03038024902344,99.22261047363281,-3.306464195251465,3.094046115875244,-1.032893180847168,618.3840801715851
D4:22:CD:00:05:6E,47.544883728027344,36.59500503540039,4.377171516418457,1.9616281986236572,-12.387035369873047,-10.256645202636719,618.3840801715851
D4:22:CD:00:05:5E,-144.36502075195312,-62.78816604614258,-25.622468948364258,1.676039218902588,-1.2152202129364014,-7.075399398803711,618.3840801715851
D4:22:CD:00:05:5D,-172.16566467285156,-71.1114501953125,-64.0586166381836,0.7205370664596558,-0.8384819030761719,-0.19190311431884766,618.4163868427277
D4:22:CD:00:05:6B,23.329166412353516,-60.04163360595703,-171.83416748046875,-8.315427780151367,-4.7772369384765625,-0.6175298690795898,618.4163868427277
D4:22:CD:00:49:AA,157.6601104736328,-70.29418182373047,102.33831024169922,-2.3408241271972656,1.7524054050445557,0.16244220733642578,618.4163868427277
D4:22:CD:00:05:6E,65.56593322753906,24.173053741455078,11.55082893371582,9.916790008544922,2.881533622741699,-5.614711761474609,618.4163868427277
D4:22:CD:00:05:5E,-165.86038208007812,-64.00448608398438,-11.326643943786621,4.366946220397949,-1.10392427444458,-0.8270435333251953,618.4163868427277
D4:22:CD:00:05:5D,-173.60850524902344,-68.8893814086914,-62.11521530151367,-0.06926308572292328,-1.0341877937316895,-0.3439455032348633,618.4434039592743
D4:22:CD:00:05:6B,7.4766998291015625,-61.472713470458984,-153.73641967773438,-7.692217826843262,-2.901522159576416,-2.6368470191955566,618.4434039592743
D4:22:CD:00:49:AA,152.61270141601562,-71.05342102050781,106.9822006225586,1.13228440284729,-0.30688172578811646,-2.3753838539123535,618.4434039592743
D4:22:CD:00:05:6E,70.99129486083984,8.06898021697998,18.76093101501465,7.117959976196289,4.500964164733887,-0.42792606353759766,618.4434039592743
D4:22:CD:00:05:5E,178.2132110595703,-67.5346450805664,1.639090657234192,2.275987148284912,5.271821975708008,8.01416015625,618.4434039592743
D4:22:CD:00:05:5D,-175.68026733398438,-66.11815643310547,-59.88213348388672,-0.3533676266670227,-0.33470290899276733,-0.07925605773925781,618.4733998775482
D4:22:CD:00:05:6B,-8.162322998046875,-60.39023208618164,-135.73126220703125,-6.461962699890137,-0.7433290481567383,-3.405327320098877,618.4733998775482
D4:22:CD:00:49:AA,146.452392578125,-71.15790557861328,112.29180908203125,0.02253234013915062,-0.5076116323471069,-4.393247604370117,618.4733998775482
D4:22:CD:00:05:6E,65.64114379882812,-11.294215202331543,26.022357940673828,8.305458068847656,4.107685089111328,-4.802572250366211,618.4733998775482
D4:22:CD:00:05:5E,174.9771728515625,-67.75203704833984,7.510343551635742,18.750396728515625,11.34820556640625,9.62830924987793,618.4733998775482
D4:22:CD:00:05:5D,-178.16262817382812,-62.952659606933594,-57.53047180175781,1.274153470993042,-0.695345401763916,-0.4560689926147461,618.5035443305969
D4:22:CD:00:05:6B,-20.908178329467773,-57.08928298950195,-120.23104095458984,-5.37004280090332,0.7751500606536865,-3.9914398193359375,618.5035443305969
D4:22:CD:00:49:AA,140.58154296875,-70.8563003540039,118.46065521240234,-3.325023651123047,0.40500056743621826,-3.4270119667053223,618.5035443305969
D4:22:CD:00:05:6E,55.712806701660156,-33.082275390625,36.33941650390625,22.575057983398438,10.288192749023438,8.517463684082031,618.5035443305969
D4:22:CD:00:05:5E,173.48910522460938,-69.16924285888672,10.947820663452148,0.9220987558364868,3.46974515914917,6.479030609130859,618.5035443305969
D4:22:CD:00:05:5D,-179.93031311035156,-59.64645004272461,-55.398956298828125,-0.8013198375701904,0.04218069463968277,0.08332538604736328,618.5476639270782
D4:22:CD:00:05:6B,-32.71126937866211,-52.18238067626953,-107.06983947753906,-5.121273994445801,2.9588513374328613,-4.067404747009277,618.5476639270782
D4:22:CD:00:49:AA,135.14698791503906,-70.50536346435547,125.6219482421875,-2.9106688499450684,0.5273879766464233,-0.907257080078125,618.5476639270782
D4:22:CD:00:05:6E,42.643287658691406,-50.16387176513672,55.35296630859375,20.547405242919922,22.176830291748047,35.54081726074219,618.5476639270782
D4:22:CD:00:05:5E,168.1717987060547,-72.09794616699219,17.305742263793945,3.9648728370666504,8.842090606689453,8.437156677246094,618.5476639270782
