Device,EulerX,EulerY,EulerZ,FreeAccX,FreeAccY,FreeAccZ,Timestamp
D4:22:CD:00:05:5D,174.87457275390625,-54.805484771728516,2.3456838130950928,0.15066757798194885,-0.7878568172454834,1.9075098037719727,1468.7953026294708
D4:22:CD:00:05:6B,-69.83663940429688,-55.776641845703125,-81.01945495605469,3.670571804046631,13.753314971923828,16.886653900146484,1468.7953026294708
D4:22:CD:00:49:AA,138.00308227539062,-70.57610321044922,146.54493713378906,-0.27460306882858276,-0.6633278131484985,7.032871246337891,1468.7953026294708
D4:22:CD:00:05:6E,94.24503326416016,-36.088619232177734,28.91217041015625,11.889781951904297,6.0228471755981445,2.4426536560058594,1468.7953026294708
D4:22:CD:00:05:5E,-142.66677856445312,-33.48063278198242,-118.0770034790039,-13.966436386108398,-11.412092208862305,4.507669448852539,1468.7953026294708
D4:22:CD:00:05:6B,-67.00025939941406,-44.09757995605469,-76.49959564208984,2.6365838050842285,11.828084945678711,23.618186950683594,1468.80531167984
D4:22:CD:00:49:AA,137.2657012939453,-70.91619873046875,148.27403259277344,-2.6812753677368164,-2.7538323402404785,4.484825134277344,1468.80531167984
D4:22:CD:00:05:6E,95.27298736572266,-32.307613372802734,29.78673553466797,11.41873550415039,6.541983604431152,4.316553115844727,1468.80531167984
D4:22:CD:00:05:5E,-138.49208068847656,-30.570035934448242,-114.78874969482422,-9.90975570678711,-11.77772331237793,5.829329490661621,1468.80531167984
D4:22:CD:00:49:AA,137.97982788085938,-72.07241821289062,149.13551330566406,-1.1914260387420654,-0.7513604164123535,2.7739925384521484,1468.8113069534302
D4:22:CD:00:05:6E,96.18789672851562,-27.913776397705078,29.9991512298584,11.825212478637695,6.168715476989746,4.115255355834961,1468.8113069534302
D4:22:CD:00:05:5E,-134.03887939453125,-28.4057559967041,-112.00265502929688,-7.863651275634766,-6.096170425415039,3.949519157409668,1468.8113069534302
D4:22:CD:00:05:5D,172.95213317871094,-79.07661437988281,-116.39521026611328,-0.5673887729644775,2.129274368286133,0.8817005157470703,1468.8142993450165
D4:22:CD:00:05:6B,-74.32072448730469,-46.35117721557617,-73.5474853515625,-0.10364404320716858,1.194981575012207,5.22691535949707,1468.8142993450165
D4:22:CD:00:05:6E,97.83615112304688,-24.751657485961914,31.343700408935547,8.250638961791992,6.680824279785156,1.4068317413330078,1468.8142993450165
D4:22:CD:00:05:5E,-135.241943359375,-26.39447021484375,-110.20337677001953,-1.3857083320617676,-2.4086408615112305,0.8570289611816406,1468.8142993450165
D4:22:CD:00:05:5D,168.41737365722656,-66.28844451904297,-112.20655059814453,3.292206287384033,0.11811207234859467,1.0546045303344727,1468.8182926177979
D4:22:CD:00:05:6B,-72.546630859375,-33.7365608215332,-78.26361846923828,4.998642921447754,-1.2839055061340332,9.494056701660156,1468.8182926177979
D4:22:CD:00:49:AA,154.05435180664062,-75.20799255371094,133.63436889648438,-0.013629820197820663,0.43524521589279175,5.379589080810547,1468.8182926177979
D4:22:CD:00:05:5D,173.6028594970703,-62.455230712890625,-117.0213851928711,0.4254307746887207,0.7606391906738281,1.3851118087768555,1468.8569877147675
D4:22:CD:00:05:6B,-66.58173370361328,-21.669527053833008,-80.84623718261719,4.483983993530273,0.43951845169067383,14.794536590576172,1468.8569877147675
D4:22:CD:00:49:AA,151.09793090820312,-75.09000396728516,136.92857360839844,-3.047459125518799,-3.371621608734131,4.122505187988281,1468.8569877147675
D4:22:CD:00:05:6E,-16.055164337158203,-54.15678024291992,-173.3329620361328,-14.437339782714844,-9.467256546020508,-2.4110851287841797,1468.8569877147675
D4:22:CD:00:05:5E,115.91879272460938,-83.73196411132812,48.945560455322266,0.6985218524932861,-2.190826416015625,16.476001739501953,1468.8569877147675
D4:22:CD:00:05:5D,176.79197692871094,-60.8070182800293,-119.1152114868164,1.2333908081054688,0.8194866180419922,1.594996452331543,1468.8866939544678
D4:22:CD:00:05:6B,-59.573585510253906,-7.900810241699219,-79.32230377197266,5.973613739013672,-4.724289894104004,18.560779571533203,1468.8866939544678
D4:22:CD:00:49:AA,171.41856384277344,-73.65156555175781,117.41468048095703,-3.110982894897461,-3.1214241981506348,9.131954193115234,1468.8866939544678
D4:22:CD:00:05:6E,13.417823791503906,-71.43639373779297,159.5784912109375,-7.442516326904297,-3.5308351516723633,4.143967628479004,1468.8866939544678
D4:22:CD:00:05:5E,112.84741973876953,-82.10902404785156,53.29384994506836,0.8035656213760376,-3.2610249519348145,14.856334686279297,1468.8866939544678
D4:22:CD:00:05:5D,179.7345733642578,-60.799781799316406,-120.10139465332031,2.081407070159912,-0.7644349336624146,0.676234245300293,1468.916695356369
D4:22:CD:00:05:6B,-45.80073928833008,5.762343406677246,-75.17276000976562,4.142645835876465,-13.27310562133789,19.237789154052734,1468.916695356369
D4:22:CD:00:49:AA,-173.26443481445312,-72.13128662109375,102.52893829345703,0.32227838039398193,0.4408142566680908,5.967159271240234,1468.916695356369
D4:22:CD:00:05:6E,88.69235229492188,-73.01422119140625,85.70240020751953,0.713080883026123,5.31266975402832,9.448020935058594,1468.916695356369
D4:22:CD:00:05:5E,117.16827392578125,-77.86248779296875,47.00276184082031,-2.2620162963867188,-0.6515653133392334,7.473936080932617,1468.916695356369
D4:22:CD:00:05:5D,-177.86947631835938,-61.859344482421875,-120.37071990966797,-1.3534891605377197,1.1287572383880615,1.2101097106933594,1468.9466927051544
D4:22:CD:00:05:6B,-22.771413803100586,17.542407989501953,-70.53252410888672,6.126556396484375,-16.29778289794922,5.6861982345581055,1468.9466927051544
D4:22:CD:00:49:AA,-166.10231018066406,-72.04112243652344,95.96959686279297,0.8835833072662354,2.7769908905029297,0.2470998764038086,1468.9466927051544
D4:22:CD:00:05:6E,107.68449401855469,-71.5087890625,75.26083374023438,-0.04676739126443863,0.7050731182098389,10.554061889648438,1468.9466927051544
D4:22:CD:00:05:5E,126.65681457519531,-76.14478302001953,35.990966796875,4.539868354797363,4.546995162963867,2.0241527557373047,1468.9466927051544
D4:22:CD:00:05:5D,-177.09715270996094,-63.56848907470703,-119.56503295898438,-1.233381986618042,0.976355791091919,0.8618326187133789,1468.9766535758972
D4:22:CD:00:05:6B,-1.3127092123031616,27.286802291870117,-63.53487014770508,0.6069068908691406,-12.609624862670898,-0.16046428680419922,1468.9766535758972
D4:22:CD:00:49:AA,-160.65574645996094,-72.69065856933594,91.29244995117188,-1.6567652225494385,3.710442543029785,2.4726600646972656,1468.9766535758972
D4:22:CD:00:05:6E,109.12895202636719,-70.36837768554688,81.9402084350586,-0.6097559928894043,-8.89175796508789,7.745065689086914,1468.9766535758972
D4:22:CD:00:05:5E,138.03579711914062,-80.2623519897461,24.67535972595215,1.0309991836547852,5.718921661376953,-2.791064739227295,1468.9766535758972
D4:22:CD:00:05:5D,-176.53695678710938,-65.87483978271484,-118.78584289550781,-1.1537292003631592,0.7481192350387573,0.48043346405029297,1469.0087735652924
D4:22:CD:00:05:6B,19.638933181762695,33.93545150756836,-54.420352935791016,-7.092806816101074,-7.373278617858887,-3.740053176879883,1469.0087735652924
D4:22:CD:00:49:AA,-153.91897583007812,-73.90609741210938,85.92390441894531,-1.892998218536377,1.4080784320831299,0.7065525054931641,1469.0087735652924
D4:22:CD:00:05:6E,102.21163940429688,-68.0887451171875,92.6968994140625,1.4505090713500977,-4.111859321594238,-1.0334625244140625,1469.0087735652924
D4:22:CD:00:05:5E,170.4203338623047,-86.26807403564453,-7.493742942810059,0.27275341749191284,4.349422454833984,-5.810975074768066,1469.0087735652924
D4:22:CD:00:05:5D,-175.92555236816406,-68.52530670166016,-118.89754486083984,-2.1179332733154297,0.6495970487594604,0.12356758117675781,1469.0371108055115
D4:22:CD:00:05:6B,36.51897048950195,37.14759063720703,-45.2277717590332,-13.191625595092773,-3.367373466491699,-7.070232391357422,1469.0371108055115
D4:22:CD:00:49:AA,-148.76451110839844,-74.55301666259766,81.8865737915039,0.23473241925239563,2.017902374267578,-3.1428122520446777,1469.0371108055115
D4:22:CD:00:05:6E,95.66357421875,-68.22708129882812,104.83924865722656,1.1412501335144043,-3.6942687034606934,-5.602364540100098,1469.0371108055115
D4:22:CD:00:05:5E,-67.63288879394531,-84.58499908447266,-130.74169921875,0.5891478061676025,1.7575311660766602,-7.1109418869018555,1469.0371108055115
D4:22:CD:00:05:5D,-175.556640625,-71.11554718017578,-119.73294067382812,-1.1142630577087402,-0.8847297430038452,-0.5896339416503906,1469.0968656539917
D4:22:CD:00:05:6B,45.72807693481445,37.89119338989258,-37.20623779296875,-11.195158004760742,0.0744314193725586,-9.874885559082031,1469.0968656539917
D4:22:CD:00:49:AA,-145.4872589111328,-74.55906677246094,79.39350891113281,1.7114520072937012,1.2736918926239014,-3.717639923095703,1469.0968656539917
D4:22:CD:00:05:6E,88.33765411376953,-70.55908966064453,118.98125457763672,1.2627902030944824,-3.1609482765197754,-6.042902946472168,1469.0968656539917
D4:22:CD:00:05:5E,-45.77463150024414,-76.43953704833984,-154.43991088867188,-0.6557910442352295,0.7503106594085693,-6.120416641235352,1469.0968656539917
D4:22:CD:00:05:5D,-175.63877868652344,-73.21366882324219,-120.34785461425781,-0.6217880249023438,-1.9263408184051514,-1.0548286437988281,1469.1320490837097
D4:22:CD:00:05:6B,45.23405456542969,38.387229919433594,-32.28490447998047,-6.425469398498535,6.102441787719727,-11.37118148803711,1469.1320490837097
D4:22:CD:00:49:AA,-144.22218322753906,-74.39349365234375,78.82357788085938,2.4802074432373047,0.7109397649765015,-4.217250823974609,1469.1320490837097
D4:22:CD:00:05:6E,75.38839721679688,-74.29134368896484,139.25845336914062,1.6001412868499756,-2.790818214416504,-6.4140625,1469.1320490837097
D4:22:CD:00:05:5E,-35.75851058959961,-67.5293197631836,-166.19100952148438,-5.582042694091797,0.026959236711263657,-5.117810249328613,1469.1320490837097
D4:22:CD:00:05:5D,-177.3834228515625,-74.42279052734375,-119.32823181152344,-0.16356587409973145,-2.838888168334961,-1.2317390441894531,1469.157122373581
D4:22:CD:00:05:6B,42.58120346069336,40.88973617553711,-31.039125442504883,-0.7525880336761475,1.273853063583374,-9.92894172668457,1469.157122373581
D4:22:CD:00:49:AA,-144.4085235595703,-74.98699188232422,78.83702087402344,1.6693496704101562,0.36691737174987793,-4.176515579223633,1469.157122373581
D4:22:CD:00:05:6E,45.899818420410156,-77.48927307128906,175.54171752929688,2.2557625770568848,-5.372596740722656,-6.280777931213379,1469.157122373581
D4:22:CD:00:05:5E,-32.718162536621094,-59.11374282836914,-173.36524963378906,-13.541532516479492,-1.4219748973846436,-7.797551155090332,1469.157122373581
D4:22:CD:00:05:5D,178.36805725097656,-74.34237670898438,-115.58819580078125,0.4337201714515686,-4.010250091552734,-1.337996482849121,1469.1867337226868
D4:22:CD:00:05:6B,42.23267364501953,45.93473434448242,-34.09467697143555,1.3946800231933594,4.468784332275391,-8.730340957641602,1469.1867337226868
D4:22:CD:00:49:AA,-146.1551971435547,-76.10025024414062,79.51629638671875,0.90157151222229,-0.8937649726867676,-3.3299851417541504,1469.1867337226868
D4:22:CD:00:05:6E,2.7797446250915527,-75.5556869506836,-137.94859313964844,3.6704607009887695,-6.785429000854492,-6.676701545715332,1469.1867337226868
D4:22:CD:00:05:5E,-37.52982711791992,-53.40626907348633,-177.3416748046875,-17.57101821899414,1.755021572113037,-11.117156982421875,1469.1867337226868
D4:22:CD:00:05:5D,172.74600219726562,-72.76937866210938,-110.15664672851562,-1.0382747650146484,-2.8287510871887207,-0.9021587371826172,1469.2176613807678
D4:22:CD:00:05:6B,38.41659927368164,52.479286193847656,-45.29994583129883,4.699341773986816,10.862245559692383,-3.53389835357666,1469.2176613807678
D4:22:CD:00:49:AA,-150.2328338623047,-77.27637481689453,81.72111511230469,-0.4040248990058899,-1.5297696590423584,-2.150798797607422,1469.2176613807678
D4:22:CD:00:05:6E,-21.397228240966797,-68.72700500488281,-109.66881561279297,4.629383087158203,-5.800275802612305,-6.133605003356934,1469.2176613807678
D4:22:CD:00:05:5E,-46.424415588378906,-51.07463836669922,-177.56520080566406,-16.80718231201172,5.157939910888672,-13.737207412719727,1469.2176613807678
D4:22:CD:00:05:5D,167.35775756835938,-69.94232940673828,-104.99305725097656,-0.23411953449249268,-0.8958367109298706,-0.6901102066040039,1469.2471261024475
D4:22:CD:00:05:6B,22.373674392700195,57.57796859741211,-70.81886291503906,6.638184547424316,3.3412551879882812,-6.916467666625977,1469.2471261024475
D4:22:CD:00:49:AA,-155.8302764892578,-78.32601928710938,84.34452819824219,-1.2225117683410645,-1.4678056240081787,-1.7470884323120117,1469.2471261024475
D4:22:CD:00:05:6E,-28.957984924316406,-60.74167251586914,-93.47554779052734,5.097158432006836,-7.299562454223633,-7.149379730224609,1469.2471261024475
D4:22:CD:00:05:5E,-58.535282135009766,-52.07476806640625,-172.7141876220703,-20.510833740234375,12.014461517333984,-20.88817596435547,1469.2471261024475
D4:22:CD:00:05:5D,163.00074768066406,-67.08657836914062,-100.97433471679688,-0.5824383497238159,2.1670894622802734,0.7426509857177734,1469.277025938034
D4:22:CD:00:05:6B,-5.869041442871094,53.354923248291016,-103.9600830078125,0.43683791160583496,-5.138774871826172,-21.618648529052734,1469.277025938034
D4:22:CD:00:49:AA,-158.17535400390625,-79.49681854248047,83.356201171875,-2.1183176040649414,-0.6942790746688843,-1.0613288879394531,1469.277025938034
D4:22:CD:00:05:6E,-30.794614791870117,-53.1944694519043,-80.87290954589844,6.905298233032227,-8.234502792358398,-8.788873672485352,1469.277025938034
D4:22:CD:00:05:5E,-73.4803237915039,-56.4905891418457,-162.4613494873047,-13.480354309082031,-5.685981750488281,-9.275550842285156,1469.277025938034
D4:22:CD:00:05:5D,158.14398193359375,-65.43794250488281,-96.70783996582031,0.4225221872329712,1.437263011932373,1.8165044784545898,1469.3073732852936
D4:22:CD:00:05:6B,-19.474334716796875,42.70397186279297,-129.14224243164062,-24.53514862060547,-11.725851058959961,-16.12714385986328,1469.3073732852936
D4:22:CD:00:49:AA,-154.6384735107422,-81.2617416381836,76.9915771484375,-2.866212844848633,-0.10258081555366516,4.427972793579102,1469.3073732852936
D4:22:CD:00:05:6E,-33.82179260253906,-46.70464324951172,-69.37692260742188,12.960060119628906,-8.800024032592773,-7.316100120544434,1469.3073732852936
D4:22:CD:00:05:5E,-73.82816314697266,-61.76738357543945,-157.767578125,-9.393571853637695,-13.532917022705078,0.6404886245727539,1469.3073732852936
D4:22:CD:00:05:5D,152.0781707763672,-65.13653564453125,-90.55697631835938,0.44891929626464844,1.3351709842681885,2.066756248474121,1469.336802482605
D4:22:CD:00:05:6B,-21.55485725402832,39.04541778564453,-138.2927703857422,21.33049774169922,-1.1042938232421875,-5.717577934265137,1469.336802482605
D4:22:CD:00:49:AA,-152.33694458007812,-81.72763061523438,72.10872650146484,0.05415629595518112,-0.5704222917556763,5.1155500411987305,1469.336802482605
D4:22:CD:00:05:6E,-41.33827590942383,-41.06547927856445,-60.246864318847656,16.121967315673828,-11.356250762939453,-4.897161483764648,1469.336802482605
D4:22:CD:00:05:5E,-83.31434631347656,-64.73074340820312,-148.8310089111328,1.2060565948486328,4.425295829772949,16.235248565673828,1469.336802482605
D4:22:CD:00:05:5D,144.09793090820312,-65.93639373779297,-81.57837677001953,1.7237896919250488,0.8721131086349487,1.854191780090332,1469.3970093727112
D4:22:CD:00:05:6B,-26.39012336730957,40.86262512207031,-129.390380859375,-15.905097961425781,3.8658318519592285,5.736762046813965,1469.3970093727112
D4:22:CD:00:49:AA,-153.74111938476562,-81.14390563964844,70.67864227294922,-0.5652785301208496,-1.6130447387695312,3.286275863647461,1469.3970093727112
D4:22:CD:00:05:6E,-50.637874603271484,-40.17762756347656,-55.24156951904297,13.379560470581055,-11.122468948364258,-4.307808876037598,1469.3970093727112
D4:22:CD:00:05:5E,-93.24552917480469,-66.44098663330078,-141.4855194091797,-2.4708852767944336,6.241015434265137,-1.1522912979125977,1469.3970093727112
D4:22:CD:00:05:5D,135.96205139160156,-67.73237609863281,-73.37257385253906,1.6567418575286865,0.6922702789306641,4.061291694641113,1469.427009820938
D4:22:CD:00:05:6B,-12.269847869873047,41.397491455078125,-117.43722534179688,-2.1326980590820312,-1.6852748394012451,-9.013143539428711,1469.427009820938
D4:22:CD:00:49:AA,-151.66075134277344,-80.89295196533203,65.9703369140625,1.77138090133667,-0.05235432833433151,2.961050033569336,1469.427009820938
D4:22:CD:00:05:6E,-58.50496292114258,-45.28327941894531,-52.208587646484375,11.638296127319336,-3.7058939933776855,1.8849506378173828,1469.427009820938
D4:22:CD:00:05:5E,-94.06855010986328,-69.13801574707031,-140.721923828125,-7.356593132019043,-1.450108289718628,2.980349540710449,1469.427009820938
D4:22:CD:00:05:5D,117.84857940673828,-71.9760513305664,-63.901611328125,8.39840316772461,2.2774605751037598,1.5066747665405273,1469.4570424556732
D4:22:CD:00:05:6B,-4.3680009841918945,37.56759262084961,-101.20082092285156,-10.286630630493164,4.336287498474121,-6.037959098815918,1469.4570424556732
D4:22:CD:00:49:AA,-148.76670837402344,-80.75992584228516,60.968753814697266,6.467855453491211,0.8251935243606567,-1.2299823760986328,1469.4570424556732
D4:22:CD:00:05:6E,-65.40483856201172,-50.76354217529297,-50.402103424072266,6.72653865814209,0.24890044331550598,-0.7236385345458984,1469.4570424556732
D4:22:CD:00:05:5E,-86.94723510742188,-72.56491088867188,-146.8916778564453,-5.65962028503418,0.9728221893310547,-0.6807003021240234,1469.4570424556732
D4:22:CD:00:05:5D,115.2918701171875,-71.815673828125,-71.28694915771484,19.217437744140625,14.36083984375,2.609598159790039,1469.4866743087769
D4:22:CD:00:05:6B,4.614315509796143,28.02808952331543,-87.65567779541016,-9.427135467529297,6.966951370239258,-6.440563201904297,1469.4866743087769
D4:22:CD:00:49:AA,-150.89796447753906,-79.06301879882812,63.16365051269531,3.9726667404174805,-1.0288116931915283,0.8363065719604492,1469.4866743087769
D4:22:CD:00:05:6E,-73.22147369384766,-54.41509246826172,-49.19621276855469,2.2800474166870117,-0.0432358980178833,3.2358579635620117,1469.4866743087769
D4:22:CD:00:05:5E,-75.13858032226562,-74.82632446289062,-158.44577026367188,-6.216712951660156,0.22512760758399963,-1.9406509399414062,1469.4866743087769
D4:22:CD:00:05:5D,132.74368286132812,-64.38135528564453,-91.9316177368164,18.285011291503906,4.672167778015137,8.639747619628906,1469.5171246528625
D4:22:CD:00:05:6B,10.76231861114502,14.048314094543457,-76.71055603027344,0.4620933532714844,3.375699996948242,-10.428945541381836,1469.5171246528625
D4:22:CD:00:49:AA,-150.47206115722656,-78.67486572265625,64.39729309082031,3.0728793144226074,-0.15066984295845032,0.6739320755004883,1469.5171246528625
D4:22:CD:00:05:6E,-76.67713165283203,-57.14393997192383,-49.34349060058594,2.365997791290283,-3.2652125358581543,5.678630828857422,1469.5171246528625
D4:22:CD:00:05:5E,-62.645423889160156,-75.43799591064453,-170.4334259033203,-5.264798164367676,1.6299395561218262,-1.2787647247314453,1469.5171246528625
D4:22:CD:00:05:5D,145.59169006347656,-53.17243957519531,-106.79825592041016,4.73431396484375,-2.4948697090148926,4.612817764282227,1469.5472130775452
D4:22:CD:00:05:6B,8.631278038024902,-2.050886869430542,-65.00038146972656,-0.9397932291030884,-0.5455045700073242,-7.8793487548828125,1469.5472130775452
D4:22:CD:00:49:AA,-149.80953979492188,-78.28643035888672,64.45040130615234,6.682452201843262,1.5156044960021973,-0.8433494567871094,1469.5472130775452
D4:22:CD:00:05:6E,-74.333984375,-60.343807220458984,-50.727474212646484,-0.5165213346481323,-3.121753215789795,2.4843320846557617,1469.5472130775452
D4:22:CD:00:05:5E,-52.564430236816406,-75.55096435546875,179.3346405029297,-4.3318634033203125,1.1461443901062012,-0.8550662994384766,1469.5472130775452
D4:22:CD:00:05:5D,149.92721557617188,-42.6821174621582,-116.22821044921875,-3.0103282928466797,-4.065577507019043,-3.3601317405700684,1469.5768718719482
D4:22:CD:00:05:6B,5.59147834777832,-15.813397407531738,-50.6771240234375,9.605730056762695,-0.8737821578979492,0.5135107040405273,1469.5768718719482
D4:22:CD:00:49:AA,-152.15940856933594,-78.19707489013672,67.08659362792969,5.9333906173706055,0.17336374521255493,-0.30809974670410156,1469.5768718719482
D4:22:CD:00:05:6E,-71.45349884033203,-63.08051300048828,-51.6909065246582,-1.2265732288360596,-3.6146674156188965,-0.7833423614501953,1469.5768718719482
D4:22:CD:00:05:5E,-45.146575927734375,-75.52735900878906,170.90234375,-4.389477729797363,-0.2958304286003113,-1.9130568504333496,1469.5768718719482
D4:22:CD:00:05:5D,150.6890411376953,-34.09601974487305,-122.10431671142578,-5.301596641540527,-1.5774376392364502,-8.694835662841797,1469.606864452362
D4:22:CD:00:05:6B,-8.421347618103027,-23.76933479309082,-35.029205322265625,11.680957794189453,15.84664535522461,-5.032135009765625,1469.606864452362
D4:22:CD:00:49:AA,-156.57872009277344,-78.72298431396484,71.60160827636719,1.6341402530670166,0.3385584354400635,-1.4372663497924805,1469.606864452362
D4:22:CD:00:05:6E,-70.44873046875,-65.04025268554688,-51.72419738769531,-0.9887033700942993,-4.2121734619140625,-1.5050554275512695,1469.606864452362
D4:22:CD:00:05:5E,-42.10337448120117,-75.74525451660156,166.5242919921875,-4.566190719604492,-1.1098995208740234,-2.659599781036377,1469.606864452362
D4:22:CD:00:05:5D,152.64019775390625,-27.656063079833984,-125.83914947509766,-4.850634574890137,-0.7867039442062378,-11.440994262695312,1469.6369631290436
D4:22:CD:00:05:6B,-27.768545150756836,-26.781957626342773,-23.562789916992188,-3.7088708877563477,-2.826054096221924,-1.5405645370483398,1469.6369631290436
D4:22:CD:00:49:AA,-158.14593505859375,-79.66431427001953,73.15885162353516,-0.2089410126209259,1.0031776428222656,-3.533108711242676,1469.6369631290436
D4:22:CD:00:05:6E,-70.28296661376953,-66.87759399414062,-50.697120666503906,-0.5111687183380127,-3.0476341247558594,-3.1051063537597656,1469.6369631290436
D4:22:CD:00:05:5E,-46.57894515991211,-76.54353332519531,169.28514099121094,-3.9756107330322266,-1.442854881286621,-2.336367607116699,1469.6369631290436
D4:22:CD:00:05:5D,156.78623962402344,-24.24916648864746,-128.57241821289062,-4.167147636413574,-1.6843128204345703,-11.692745208740234,1469.6969199180603
D4:22:CD:00:05:6B,-32.70542526245117,-27.715877532958984,-18.98441505432129,-1.5019340515136719,3.9430251121520996,-3.294210433959961,1469.6969199180603
D4:22:CD:00:49:AA,-158.3313751220703,-80.28270721435547,73.76685333251953,1.2679615020751953,0.5197480916976929,-4.0414886474609375,1469.6969199180603
D4:22:CD:00:05:6E,-70.95439147949219,-68.5973129272461,-48.97963333129883,1.7323787212371826,-3.395923137664795,-4.439150810241699,1469.6969199180603
D4:22:CD:00:05:5E,-57.40210723876953,-77.57633209228516,178.9357147216797,-3.920750141143799,-1.6777021884918213,-2.0374274253845215,1469.6969199180603
D4:22:CD:00:05:5D,162.9394073486328,-23.810848236083984,-131.35397338867188,-2.5080933570861816,-3.7890243530273438,-6.443004608154297,1469.7269966602325
D4:22:CD:00:05:6B,-35.095333099365234,-28.842710494995117,-18.891529083251953,-2.66646146774292,3.9282355308532715,-6.827587127685547,1469.7269966602325
D4:22:CD:00:49:AA,-158.769775390625,-80.398681640625,74.99332427978516,1.782322645187378,0.3704487681388855,-4.431512832641602,1469.7269966602325
D4:22:CD:00:05:6E,-72.290283203125,-70.43682861328125,-47.59599685668945,2.581634998321533,-3.1330976486206055,-4.241198539733887,1469.7269966602325
D4:22:CD:00:05:5E,-71.57567596435547,-78.07388305664062,-166.52613830566406,-4.601992607116699,-0.867302656173706,-1.5399837493896484,1469.7269966602325
D4:22:CD:00:05:5D,167.12574768066406,-26.713756561279297,-133.8922576904297,-11.265167236328125,-3.3283843994140625,-10.109506607055664,1469.757206439972
D4:22:CD:00:05:6B,-37.4052848815918,-32.241756439208984,-19.575422286987305,-2.3034873008728027,4.328878402709961,-8.976264953613281,1469.757206439972
D4:22:CD:00:49:AA,-157.84010314941406,-80.57652282714844,74.54315185546875,2.9512939453125,0.0678224265575409,-4.081570625305176,1469.757206439972
D4:22:CD:00:05:6E,-73.17407989501953,-72.69837188720703,-47.4127197265625,2.659250259399414,-2.1153392791748047,-4.365627288818359,1469.757206439972
D4:22:CD:00:05:5E,-86.98265075683594,-77.68373107910156,-150.36463928222656,-4.375009536743164,0.2751368284225464,-1.3083734512329102,1469.757206439972
D4:22:CD:00:05:5D,167.87388610839844,-28.9370059967041,-135.9663848876953,-3.667341709136963,9.172113418579102,21.338634490966797,1469.78684091568
D4:22:CD:00:05:6B,-43.55879592895508,-39.865623474121094,-20.365877151489258,4.448265075683594,4.134234428405762,-14.223257064819336,1469.78684091568
D4:22:CD:00:49:AA,-157.24954223632812,-80.62271118164062,73.02549743652344,6.600336074829102,-0.12635982036590576,-2.2908921241760254,1469.78684091568
D4:22:CD:00:05:6E,-71.94546508789062,-75.4999008178711,-48.63943862915039,2.6759033203125,-1.3651633262634277,-4.287006378173828,1469.78684091568
D4:22:CD:00:05:5E,-100.8668212890625,-76.35259246826172,-136.14349365234375,-4.728641510009766,0.7435518503189087,-1.1713428497314453,1469.78684091568
D4:22:CD:00:05:5D,165.9794921875,-28.226579666137695,-135.31761169433594,-7.124538421630859,-9.165472030639648,-7.224305152893066,1469.8169083595276
D4:22:CD:00:05:6B,-53.87318420410156,-54.5028076171875,-22.53897476196289,2.3032259941101074,-10.747856140136719,8.966598510742188,1469.8169083595276
D4:22:CD:00:49:AA,-154.43878173828125,-81.00570678710938,67.59822845458984,3.912262439727783,-0.47346019744873047,-0.5244636535644531,1469.8169083595276
D4:22:CD:00:05:6E,-68.13572692871094,-78.36344909667969,-50.76188659667969,3.687307357788086,-1.8849971294403076,-3.7401323318481445,1469.8169083595276
D4:22:CD:00:05:5E,-111.04307556152344,-74.4957504272461,-126.2258071899414,-4.99788761138916,0.298221230506897,-0.45659828186035156,1469.8169083595276
D4:22:CD:00:05:5D,166.8582305908203,-28.061071395874023,-135.4644317626953,-12.016565322875977,-7.889360427856445,-0.8025369644165039,1469.8471071720123
D4:22:CD:00:05:6B,-26.722639083862305,-75.94915008544922,-46.142520904541016,7.6959333419799805,-3.196959972381592,68.49528503417969,1469.8471071720123
D4:22:CD:00:49:AA,-153.3922882080078,-80.8388671875,64.27680969238281,-4.168872833251953,0.7595251798629761,-0.37481689453125,1469.8471071720123
D4:22:CD:00:05:6E,-64.28273010253906,-80.0098876953125,-52.4904899597168,7.039653778076172,-4.043440818786621,-0.21214962005615234,1469.8471071720123
D4:22:CD:00:05:5E,-116.0234375,-73.21343231201172,-120.58970642089844,-5.029693603515625,0.8308031558990479,-0.10490798950195312,1469.8471071720123
D4:22:CD:00:05:5D,167.2508087158203,-27.39143180847168,-136.047607421875,-17.647884368896484,-3.4563450813293457,6.44819450378418,1469.8770010471344
D4:22:CD:00:05:6B,19.557926177978516,-77.36859893798828,-76.7613754272461,6.339262008666992,-3.768158435821533,7.541383743286133,1469.8770010471344
D4:22:CD:00:49:AA,-156.72427368164062,-80.2378921508789,67.49029541015625,-3.8775429725646973,-0.09482939541339874,6.752279281616211,1469.8770010471344
D4:22:CD:00:05:6E,-61.682762145996094,-79.37466430664062,-54.85792922973633,12.768211364746094,-8.057464599609375,5.954065322875977,1469.8770010471344
D4:22:CD:00:05:5E,-118.41290283203125,-72.71992492675781,-117.67484283447266,-4.9459028244018555,2.2350072860717773,0.5166034698486328,1469.8770010471344
D4:22:CD:00:05:5D,165.23545837402344,-25.60809326171875,-136.38055419921875,-15.225227355957031,-9.297115325927734,7.669361114501953,1469.9071171283722
D4:22:CD:00:05:6B,-49.96360397338867,-69.28355407714844,-20.173625946044922,19.85769271850586,0.9302434921264648,10.531229019165039,1469.9071171283722
D4:22:CD:00:49:AA,-157.49774169921875,-80.08222198486328,69.3883056640625,3.278374671936035,2.9320878982543945,6.507469177246094,1469.9071171283722
D4:22:CD:00:05:6E,-55.385719299316406,-79.66004943847656,-63.66347122192383,7.361920356750488,-6.922369956970215,3.1897735595703125,1469.9071171283722
D4:22:CD:00:05:5E,-119.23274230957031,-73.07034301757812,-116.9139633178711,-5.118906021118164,1.1928670406341553,-0.16178417205810547,1469.9071171283722
D4:22:CD:00:05:5D,165.6077423095703,-23.340431213378906,-135.95587158203125,-14.229202270507812,-6.882610321044922,3.3997955322265625,1469.937232017517
D4:22:CD:00:05:6B,-63.39457321166992,-52.6171875,-12.11250114440918,1.7288289070129395,-2.520958423614502,24.850791931152344,1469.937232017517
D4:22:CD:00:49:AA,-162.7876434326172,-79.36851501464844,74.54460144042969,5.59473991394043,1.4897511005401611,4.11369514465332,1469.937232017517
D4:22:CD:00:05:6E,-18.248071670532227,-85.10047912597656,-103.73856353759766,14.776681900024414,-10.117147445678711,13.035299301147461,1469.937232017517
D4:22:CD:00:05:5E,-118.25907135009766,-74.04784393310547,-118.41957092285156,-5.2624969482421875,0.8943705558776855,-0.5117206573486328,1469.937232017517
D4:22:CD:00:05:5D,164.1038055419922,-22.945598602294922,-135.4725341796875,-5.554693222045898,-3.3623557090759277,2.447145462036133,1469.9970800876617
D4:22:CD:00:05:6B,-51.57182693481445,-42.01552200317383,-14.512826919555664,15.877853393554688,0.11509847640991211,-5.26718807220459,1469.9970800876617
D4:22:CD:00:49:AA,-168.9912567138672,-78.64913940429688,79.84269714355469,3.3679704666137695,2.2794089317321777,2.8016357421875,1469.9970800876617
D4:22:CD:00:05:6E,71.29295349121094,-78.6560287475586,160.15655517578125,16.96673583984375,-9.732307434082031,19.5015869140625,1469.9970800876617
D4:22:CD:00:05:5E,-114.35265350341797,-75.34954071044922,-122.95750427246094,-5.4918670654296875,0.6461584568023682,-0.8766441345214844,1469.9970800876617
D4:22:CD:00:05:5D,161.9698028564453,-22.97998809814453,-135.6605987548828,-8.502262115478516,-3.8937153816223145,-3.8845081329345703,1470.0271394252777
D4:22:CD:00:05:6B,-53.304588317871094,-33.898895263671875,-16.808452606201172,6.905695915222168,-1.2203831672668457,-10.694822311401367,1470.0271394252777
D4:22:CD:00:49:AA,-173.2582244873047,-78.18717956542969,83.2004623413086,2.27960205078125,1.62156081199646,3.581191062927246,1470.0271394252777
D4:22:CD:00:05:6E,77.75406646728516,-63.97748947143555,144.9122772216797,12.295530319213867,-5.398592948913574,14.266752243041992,1470.0271394252777
D4:22:CD:00:05:5E,-106.51250457763672,-76.73343658447266,-131.6514129638672,-5.334878921508789,1.1241846084594727,-0.4581289291381836,1470.0271394252777
D4:22:CD:00:05:5D,157.3958740234375,-26.181713104248047,-135.75613403320312,-4.725650787353516,-0.26824504137039185,-4.380073547363281,1470.0572400093079
D4:22:CD:00:05:6B,-61.99930953979492,-29.29468536376953,-19.55973243713379,-2.574368476867676,-3.5409998893737793,-5.216455459594727,1470.0572400093079
D4:22:CD:00:49:AA,-177.1546630859375,-77.86145782470703,86.35643005371094,3.1454992294311523,0.382756769657135,1.696122169494629,1470.0572400093079
D4:22:CD:00:05:6E,73.10218048095703,-46.51655197143555,139.75961303710938,9.908760070800781,0.7966089248657227,9.872446060180664,1470.0572400093079
D4:22:CD:00:05:5E,-93.49385833740234,-77.91629791259766,-145.76817321777344,-4.952814102172852,1.1401746273040771,-0.5606765747070312,1470.0572400093079
D4:22:CD:00:05:5D,153.18003845214844,-32.268226623535156,-135.662353515625,-3.359126091003418,-0.8177602291107178,-8.173994064331055,1470.086773633957
D4:22:CD:00:05:6B,-63.70322036743164,-29.371097564697266,-22.91644859313965,-2.257223606109619,0.17004728317260742,-6.589071273803711,1470.086773633957
D4:22:CD:00:49:AA,179.86766052246094,-77.67948913574219,88.60800170898438,1.9086251258850098,1.2932732105255127,-0.7791652679443359,1470.086773633957
D4:22:CD:00:05:6E,64.82787322998047,-28.80803680419922,137.23634338378906,3.4122376441955566,3.0483856201171875,3.1895837783813477,1470.086773633957
D4:22:CD:00:05:5E,-75.32681274414062,-78.26302337646484,-164.80963134765625,-4.579144477844238,0.8709287643432617,-0.8825454711914062,1470.086773633957
D4:22:CD:00:05:5D,150.5972442626953,-40.654624938964844,-135.0358428955078,-4.058107376098633,-0.3170677423477173,-7.768526077270508,1470.116532087326
D4:22:CD:00:05:6B,-64.57653045654297,-33.0100212097168,-25.494043350219727,0.6581096649169922,1.804337978363037,-8.816238403320312,1470.116532087326
D4:22:CD:00:49:AA,177.5463104248047,-77.59456634521484,90.4054946899414,0.9035714864730835,0.7047650814056396,-2.98964262008667,1470.116532087326
D4:22:CD:00:05:6E,60.2250862121582,-12.150886535644531,135.76490783691406,4.145627021789551,6.091808319091797,-2.9703893661499023,1470.116532087326
D4:22:CD:00:05:5E,-57.25921630859375,-77.29798889160156,176.33799743652344,-4.243130683898926,0.5409669876098633,-1.1880521774291992,1470.116532087326
D4:22:CD:00:05:5D,148.36109924316406,-50.91890335083008,-133.2374267578125,-2.839418888092041,-0.5733969211578369,-5.2095232009887695,1470.146841287613
D4:22:CD:00:05:6B,-68.90953826904297,-38.98442840576172,-27.26025390625,1.0093348026275635,1.3029491901397705,-7.3631134033203125,1470.146841287613
D4:22:CD:00:49:AA,176.35440063476562,-77.42033386230469,91.46549224853516,1.038971185684204,0.240770161151886,-4.870532035827637,1470.146841287613
D4:22:CD:00:05:6E,61.515533447265625,2.662755012512207,134.38143920898438,-0.0334775447845459,-0.29355716705322266,-2.264699935913086,1470.146841287613
D4:22:CD:00:05:5E,-44.026214599609375,-75.40670013427734,162.51919555664062,-4.465163230895996,-0.5141973495483398,-1.6817140579223633,1470.146841287613
D4:22:CD:00:05:5D,144.27268981933594,-62.68928527832031,-128.7827606201172,-2.8346028327941895,-1.9676260948181152,-1.5699577331542969,1470.1767337322235
D4:22:CD:00:05:6B,-73.01287078857422,-46.3406867980957,-28.879587173461914,-0.07868856191635132,1.985281229019165,-4.848461151123047,1470.1767337322235
D4:22:CD:00:49:AA,175.38357543945312,-77.45648193359375,92.2790756225586,2.0575571060180664,0.700819730758667,-6.1050825119018555,1470.1767337322235
D4:22:CD:00:05:6E,63.243038177490234,14.7220458984375,133.42184448242188,-3.94356107711792,-4.341399192810059,-3.4529595375061035,1470.1767337322235
D4:22:CD:00:05:5E,-36.41123580932617,-73.2962875366211,154.3551788330078,-4.265460014343262,-0.7373279333114624,-2.1573538780212402,1470.1767337322235
D4:22:CD:00:05:5D,133.7730255126953,-74.74139404296875,-115.41666412353516,0.832810640335083,-3.1769838333129883,4.463842391967773,1470.206933259964
D4:22:CD:00:05:6B,-73.8478012084961,-54.634666442871094,-30.635906219482422,0.7367733716964722,2.272367477416992,-5.359890937805176,1470.206933259964
D4:22:CD:00:49:AA,174.43441772460938,-77.4025650024414,92.51871490478516,2.819632053375244,0.7004382610321045,-4.929591178894043,1470.206933259964
D4:22:CD:00:05:6E,64.84180450439453,23.640674591064453,134.228271484375,-3.923353672027588,-3.9361038208007812,-6.484659194946289,1470.206933259964
D4:22:CD:00:05:5E,-34.31311798095703,-71.7661361694336,152.32484436035156,-3.399411201477051,-5.122628211975098,-4.042341232299805,1470.206933259964
D4:22:CD:00:05:5D,92.4220199584961,-82.02899932861328,-66.79178619384766,10.743114471435547,4.075980186462402,7.999818801879883,1470.2369403839111
D4:22:CD:00:05:6B,-74.34446716308594,-63.64371109008789,-32.57242965698242,2.427412986755371,1.72410249710083,-5.626768112182617,1470.2369403839111
D4:22:CD:00:49:AA,175.14944458007812,-77.2361831665039,90.80281829833984,2.323880672454834,-0.031013652682304382,-2.253983974456787,1470.2369403839111
D4:22:CD:00:05:6E,61.18178939819336,29.320032119750977,137.9717254638672,-6.828614234924316,-5.325566291809082,-6.767229080200195,1470.2369403839111
D4:22:CD:00:05:5E,-37.74301528930664,-71.66108703613281,155.7906951904297,-4.956665992736816,-0.8875442743301392,-1.1040267944335938,1470.2369403839111
D4:22:CD:00:05:5D,59.78696823120117,-79.65834045410156,-25.091012954711914,16.126018524169922,10.724931716918945,-1.9157309532165527,1470.2968916893005
D4:22:CD:00:05:6B,-77.65460968017578,-73.83374786376953,-34.139007568359375,1.0587103366851807,1.8976731300354004,-2.303542137145996,1470.2968916893005
D4:22:CD:00:49:AA,179.96640014648438,-77.39586639404297,86.00773620605469,0.6171015501022339,-0.823297381401062,1.5507068634033203,1470.2968916893005
D4:22:CD:00:05:6E,50.01300811767578,32.084930419921875,145.5523223876953,-2.78627872467041,-4.902398109436035,-12.044483184814453,1470.2968916893005
D4:22:CD:00:05:5E,-42.4693489074707,-71.78797149658203,160.75723266601562,-4.266407012939453,0.1594109833240509,-0.9884500503540039,1470.2968916893005
D4:22:CD:00:05:5D,65.96416473388672,-77.59403228759766,-24.284263610839844,23.017623901367188,11.97171401977539,-9.218420028686523,1470.326982975006
D4:22:CD:00:05:6B,-93.51945495605469,-86.0495834350586,-24.476768493652344,1.4662501811981201,1.9500865936279297,2.787703514099121,1470.326982975006
D4:22:CD:00:49:AA,-170.19061279296875,-77.87905883789062,77.58081817626953,4.048584938049316,-1.6466450691223145,1.2124090194702148,1470.326982975006
D4:22:CD:00:05:6E,44.70354461669922,32.57441329956055,157.75450134277344,-0.2380789816379547,-1.207629919052124,-13.584375381469727,1470.326982975006
D4:22:CD:00:05:5E,-49.07282638549805,-71.56038665771484,167.17660522460938,-6.2808074951171875,-1.6343388557434082,-2.3038039207458496,1470.326982975006
D4:22:CD:00:05:5D,95.75762939453125,-76.71659851074219,-49.290977478027344,8.821563720703125,-4.705194473266602,0.4027690887451172,1470.3564677238464
D4:22:CD:00:05:6B,112.84046936035156,-80.1728286743164,117.06930541992188,-0.7249957323074341,1.5161230564117432,10.583187103271484,1470.3564677238464
D4:22:CD:00:49:AA,-166.3633270263672,-78.28763580322266,74.84458923339844,5.6771087646484375,-0.4622023105621338,1.4955263137817383,1470.3564677238464
D4:22:CD:00:05:6E,48.114715576171875,30.256023406982422,173.84194946289062,-10.899368286132812,-4.628477096557617,-16.882896423339844,1470.3564677238464
D4:22:CD:00:05:5E,-56.84535598754883,-70.242919921875,175.00152587890625,-4.37031364440918,0.39834457635879517,-0.25704002380371094,1470.3564677238464
D4:22:CD:00:05:5D,114.04689025878906,-76.65592193603516,-68.8473129272461,-3.6065640449523926,-10.211523056030273,1.8349409103393555,1470.3871200084686
D4:22:CD:00:05:6B,100.2036361694336,-69.94184112548828,107.83631134033203,-5.500221252441406,10.388616561889648,9.62570571899414,1470.3871200084686
D4:22:CD:00:49:AA,-169.11952209472656,-79.1996841430664,76.97315979003906,-0.43382900953292847,-0.7797137498855591,1.0278797149658203,1470.3871200084686
D4:22:CD:00:05:6E,50.422035217285156,27.28798484802246,-171.51596069335938,-10.716468811035156,-5.066234588623047,-10.357583999633789,1470.3871200084686
D4:22:CD:00:05:5E,-63.558982849121094,-68.09149169921875,-177.8936004638672,-5.715539932250977,-0.7114667892456055,-0.13797569274902344,1470.3871200084686
D4:22:CD:00:05:5D,128.1969451904297,-75.1358413696289,-82.59561920166016,-1.1263256072998047,-3.35843563079834,6.579530715942383,1470.4164032936096
D4:22:CD:00:05:6B,96.14191436767578,-64.92536163330078,102.91437530517578,2.6571502685546875,28.812328338623047,-3.3777756690979004,1470.4164032936096
D4:22:CD:00:49:AA,-171.5218048095703,-79.59805297851562,79.62113952636719,-2.7851476669311523,-2.02707576751709,0.28744029998779297,1470.4164032936096
D4:22:CD:00:05:6E,69.22514343261719,30.01705551147461,-169.39703369140625,9.576467514038086,-1.2153074741363525,-5.252607345581055,1470.4164032936096
D4:22:CD:00:05:5E,-67.50605773925781,-65.73859405517578,-173.18580627441406,-6.001124382019043,-0.7467246055603027,2.810640335083008,1470.4164032936096
D4:22:CD:00:05:5D,144.7118682861328,-72.83744812011719,-92.63558959960938,-4.37631893157959,8.743158340454102,3.914215087890625,1470.4464237689972
D4:22:CD:00:05:6B,111.9322280883789,-65.00962829589844,105.22019958496094,-5.209145545959473,7.015666961669922,0.39434242248535156,1470.4464237689972
D4:22:CD:00:49:AA,-172.23634338378906,-79.24295043945312,82.55216217041016,0.3423846364021301,-1.4645607471466064,-1.1015729904174805,1470.4464237689972
D4:22:CD:00:05:6E,76.81502532958984,32.621463775634766,-174.27142333984375,-0.3859631419181824,-7.935453414916992,8.908102035522461,1470.4464237689972
D4:22:CD:00:05:5E,-65.09270477294922,-63.29804229736328,-171.8818359375,-7.693060874938965,-3.777365207672119,3.3971633911132812,1470.4464237689972
D4:22:CD:00:05:5D,152.7204132080078,-71.64511108398438,-99.05681610107422,5.353851318359375,-2.1425089836120605,0.7190475463867188,1470.4769461154938
D4:22:CD:00:05:6B,126.77096557617188,-69.61394500732422,107.51600646972656,0.6679359674453735,1.8538317680358887,7.047977447509766,1470.4769461154938
D4:22:CD:00:49:AA,-173.65061950683594,-78.09575653076172,87.82353210449219,-0.6773300170898438,0.31195902824401855,1.3632850646972656,1470.4769461154938
D4:22:CD:00:05:6E,75.64086151123047,34.88589096069336,176.45004272460938,4.654535293579102,-5.179954528808594,-4.8274993896484375,1470.4769461154938
D4:22:CD:00:05:5E,-56.44034957885742,-60.63322067260742,-174.18601989746094,-8.412714004516602,-0.8047983646392822,0.05348491668701172,1470.4769461154938
D4:22:CD:00:05:5D,159.69830322265625,-71.36021423339844,-103.91304779052734,-0.5693415403366089,2.0396809577941895,0.9548978805541992,1470.5070478916168
D4:22:CD:00:05:6B,133.15060424804688,-75.31524658203125,104.8543701171875,2.751887321472168,-0.2856966257095337,3.0417957305908203,1470.5070478916168
D4:22:CD:00:49:AA,-174.7105255126953,-75.58293914794922,93.21501159667969,-2.2326879501342773,0.5193480253219604,0.04346752166748047,1470.5070478916168
D4:22:CD:00:05:6E,70.08565521240234,35.43889236450195,162.24929809570312,-3.7411932945251465,-11.781108856201172,2.4252328872680664,1470.5070478916168
D4:22:CD:00:05:5E,-45.81021499633789,-59.532508850097656,-173.03549194335938,-21.728309631347656,12.189237594604492,-11.259477615356445,1470.5070478916168
D4:22:CD:00:05:5D,166.59124755859375,-71.68891906738281,-109.30223846435547,-1.9539546966552734,1.9450650215148926,1.069493293762207,1470.537044763565
D4:22:CD:00:05:6B,134.7626190185547,-79.97418975830078,97.55020904541016,-3.659451961517334,1.2642772197723389,-1.620157241821289,1470.537044763565
D4:22:CD:00:49:AA,-176.65733337402344,-73.34012603759766,96.90769958496094,-0.04552735388278961,1.7277052402496338,3.0807437896728516,1470.537044763565
D4:22:CD:00:05:6E,57.044795989990234,31.633525848388672,144.28062438964844,-0.8995785713195801,-18.240718841552734,-11.0374755859375,1470.537044763565
D4:22:CD:00:05:5E,-52.190433502197266,-62.37781524658203,-159.74559020996094,-24.822166442871094,8.069089889526367,-8.576395034790039,1470.537044763565
D4:22:CD:00:05:5D,172.84950256347656,-72.36923217773438,-115.79933166503906,0.282164990901947,0.8663737773895264,0.7524681091308594,1470.5971405506134
D4:22:CD:00:05:6B,133.4827117919922,-83.22488403320312,95.42633056640625,-6.832972526550293,0.1466968059539795,-2.1606903076171875,1470.5971405506134
D4:22:CD:00:49:AA,-179.86065673828125,-73.14833068847656,99.60964965820312,0.2916995882987976,2.0925254821777344,2.832822799682617,1470.5971405506134
D4:22:CD:00:05:6E,45.49784469604492,22.6280517578125,123.90276336669922,-9.191547393798828,-9.363718032836914,-14.022380828857422,1470.5971405506134
D4:22:CD:00:05:5E,-73.37120056152344,-65.28150939941406,-135.72225952148438,-13.323553085327148,2.5641236305236816,-1.9147653579711914,1470.5971405506134
D4:22:CD:00:05:5D,178.82318115234375,-73.59969329833984,-122.8707504272461,0.30184483528137207,0.21265000104904175,0.6241254806518555,1470.6272304058075
D4:22:CD:00:05:6B,126.60604095458984,-85.38124084472656,102.20291137695312,-6.226963996887207,-2.4434595108032227,-0.9253854751586914,1470.6272304058075
D4:22:CD:00:49:AA,176.44857788085938,-73.0711441040039,102.35628509521484,-2.1578145027160645,1.1613192558288574,0.1571369171142578,1470.6272304058075
D4:22:CD:00:05:6E,34.32904052734375,11.594904899597168,103.04815673828125,-10.618181228637695,7.9706878662109375,-11.844379425048828,1470.6272304058075
D4:22:CD:00:05:5E,-95.7931137084961,-65.2933578491211,-109.66595458984375,-7.3935546875,-2.9788618087768555,-5.644819259643555,1470.6272304058075
D4:22:CD:00:05:5D,-174.46295166015625,-75.59384155273438,-132.262451171875,-0.5431214570999146,0.6447973251342773,0.26891517639160156,1470.6572489738464
D4:22:CD:00:05:6B,115.22830963134766,-87.31796264648438,111.92063903808594,-4.971407890319824,-3.5291428565979004,-0.7276592254638672,1470.6572489738464
D4:22:CD:00:49:AA,173.60113525390625,-72.93553161621094,104.83367919921875,-3.945155620574951,2.3091683387756348,0.3253192901611328,1470.6572489738464
D4:22:CD:00:05:6E,22.314712524414062,1.9723403453826904,81.53370666503906,1.4017350673675537,22.856258392333984,-4.477843284606934,1470.6572489738464
D4:22:CD:00:05:5E,-115.56830596923828,-63.53506851196289,-86.83663177490234,-3.1248178482055664,-5.076634407043457,-7.6757612228393555,1470.6572489738464
D4:22:CD:00:05:5D,-168.8815460205078,-76.74224090576172,-140.55889892578125,0.07029974460601807,-0.4986734986305237,0.06283283233642578,1470.6869628429413
D4:22:CD:00:05:6B,80.06106567382812,-89.91152954101562,142.92018127441406,-5.468807220458984,-1.0425705909729004,-0.6922225952148438,1470.6869628429413
D4:22:CD:00:49:AA,171.66708374023438,-73.1546401977539,106.64253234863281,-2.8854422569274902,1.3953871726989746,-0.6621904373168945,1470.6869628429413
D4:22:CD:00:05:6E,14.295818328857422,-3.465430736541748,60.71638488769531,32.86981201171875,11.368673324584961,5.289786338806152,1470.6869628429413
D4:22:CD:00:05:5E,-131.53054809570312,-61.18678283691406,-69.00586700439453,-0.5590090751647949,-4.884835243225098,-8.534111022949219,1470.6869628429413
D4:22:CD:00:05:5D,-164.6636199951172,-77.26448059082031,-146.91510009765625,-0.04778751730918884,-1.6940429210662842,-0.7403221130371094,1470.7259638309479
D4:22:CD:00:05:6B,-79.84491729736328,-86.3224105834961,-61.167869567871094,-3.4993033409118652,-0.17397940158843994,-0.8769607543945312,1470.7259638309479
D4:22:CD:00:49:AA,168.8861846923828,-73.5461654663086,109.74112701416016,-1.214092493057251,0.3688884377479553,-2.403563976287842,1470.7259638309479
D4:22:CD:00:05:6E,27.871170043945312,-0.6986013650894165,47.493648529052734,38.77204132080078,-23.538959503173828,-5.565675735473633,1470.7259638309479
D4:22:CD:00:05:5E,-145.46176147460938,-59.43245315551758,-55.33998107910156,-0.0417659655213356,-4.20634651184082,-8.661144256591797,1470.7259638309479
D4:22:CD:00:05:5D,-163.07516479492188,-77.3858642578125,-148.9029541015625,0.6383578777313232,-1.8552181720733643,-0.4794607162475586,1470.7469635009766
D4:22:CD:00:05:6B,-85.33796691894531,-81.05438232421875,-60.204219818115234,-2.6170034408569336,1.0434036254882812,-2.2207393646240234,1470.7469635009766
D4:22:CD:00:49:AA,165.10324096679688,-73.8404769897461,113.5342025756836,-1.2818853855133057,-0.3077962398529053,-2.8939428329467773,1470.7469635009766
D4:22:CD:00:05:6E,55.2927131652832,5.928091526031494,46.26430130004883,-6.966397285461426,0.9570595026016235,-13.314023971557617,1470.7469635009766
D4:22:CD:00:05:5E,-160.43585205078125,-58.66530990600586,-43.724666595458984,-4.342961311340332,-4.420437812805176,-4.607549667358398,1470.7469635009766
D4:22:CD:00:05:5D,-165.77723693847656,-76.65643310546875,-145.6923370361328,1.2420568466186523,-4.07858943939209,-1.532674789428711,1470.7766571044922
D4:22:CD:00:05:6B,-87.6991958618164,-75.13394927978516,-61.241943359375,-2.0730514526367188,3.157111644744873,-3.231760025024414,1470.7766571044922
D4:22:CD:00:49:AA,159.9551544189453,-74.09741973876953,117.82205200195312,-1.7518227100372314,-0.95958411693573,-3.025177478790283,1470.7766571044922
D4:22:CD:00:05:6E,68.21348571777344,10.31753921508789,49.791778564453125,-12.212930679321289,3.363255023956299,-1.2897300720214844,1470.7766571044922
D4:22:CD:00:05:5E,-176.20704650878906,-59.725223541259766,-32.35595703125,4.810720443725586,-8.483110427856445,-1.950845718383789,1470.7766571044922
D4:22:CD:00:05:5D,-170.65042114257812,-75.19572448730469,-139.55789184570312,0.10918249189853668,-1.099799633026123,-0.27117252349853516,1470.8066732883453
D4:22:CD:00:05:6B,-87.72396850585938,-69.49134063720703,-62.8078727722168,-0.29514849185943604,4.088065147399902,-3.6240744590759277,1470.8066732883453
D4:22:CD:00:49:AA,156.0512237548828,-74.22496032714844,121.31171417236328,-1.8971054553985596,-0.4328489303588867,-2.9536690711975098,1470.8066732883453
D4:22:CD:00:05:6E,71.6748275756836,10.344386100769043,54.056270599365234,-9.487403869628906,-5.715267181396484,-8.497636795043945,1470.8066732883453
D4:22:CD:00:05:5E,172.57984924316406,-63.8122673034668,-20.932594299316406,12.052619934082031,-0.4818161129951477,2.842344284057617,1470.8066732883453
D4:22:CD:00:05:5D,-176.91090393066406,-72.95197296142578,-132.88790893554688,0.3545706272125244,-2.641448974609375,-1.183518409729004,1470.8369562625885
D4:22:CD:00:05:6B,-85.65321350097656,-64.51102447509766,-65.1463623046875,0.8356707096099854,7.567257881164551,-1.0786476135253906,1470.8369562625885
D4:22:CD:00:49:AA,152.60491943359375,-74.70794677734375,124.69365692138672,-2.142759323120117,-0.5610101222991943,-3.3617806434631348,1470.8369562625885
D4:22:CD:00:05:6E,78.24295043945312,4.676356315612793,58.027076721191406,-4.488372802734375,-6.337825775146484,-13.138799667358398,1470.8369562625885
D4:22:CD:00:05:5E,168.15489196777344,-69.13516235351562,-10.631324768066406,-9.688468933105469,21.34836196899414,16.278636932373047,1470.8369562625885
D4:22:CD:00:05:5D,179.1707763671875,-69.89529418945312,-127.55831909179688,-0.5149315595626831,1.1185674667358398,-0.8470363616943359,1470.8968052864075
D4:22:CD:00:05:6B,-80.58523559570312,-60.084136962890625,-68.30850982666016,2.237489700317383,3.885509967803955,-2.732283115386963,1470.8968052864075
D4:22:CD:00:49:AA,148.68197631835938,-74.88304138183594,129.14451599121094,-1.938558578491211,-0.7606956958770752,-2.568662166595459,1470.8968052864075
D4:22:CD:00:05:6E,89.09095001220703,-7.577102184295654,59.38583755493164,-0.8186467885971069,2.4695119857788086,-1.6277618408203125,1470.8968052864075
D4:22:CD:00:05:5E,166.2001190185547,-68.14375305175781,-8.5444917678833,-2.381917953491211,8.724573135375977,3.939267158508301,1470.8968052864075
D4:22:CD:00:05:5D,177.11309814453125,-66.46671295166016,-124.53052520751953,0.3063768148422241,0.588271975517273,0.6608829498291016,1470.92698097229
D4:22:CD:00:05:6B,-80.74156951904297,-55.03497314453125,-70.02084350585938,-1.4498021602630615,8.559947967529297,0.8133363723754883,1470.92698097229
D4:22:CD:00:49:AA,144.65394592285156,-74.85286712646484,135.35752868652344,-2.287703037261963,-0.6164487600326538,0.7415647506713867,1470.92698097229
D4:22:CD:00:05:6E,87.044921875,-26.43336296081543,54.697998046875,3.670187473297119,5.467925071716309,5.385260581970215,1470.92698097229
D4:22:CD:00:05:5E,160.68019104003906,-66.78781127929688,-6.356051921844482,1.9472694396972656,6.357634544372559,1.1390113830566406,1470.92698097229
D4:22:CD:00:05:5D,174.86941528320312,-63.22953414916992,-122.60649871826172,-1.5090947151184082,-0.4707654118537903,2.2392406463623047,1470.957023859024
D4:22:CD:00:05:6B,-77.47116088867188,-49.6232795715332,-69.89451599121094,-0.9260101318359375,12.133615493774414,8.281221389770508,1470.957023859024
D4:22:CD:00:49:AA,138.6292266845703,-75.15447235107422,143.41360473632812,1.7657108306884766,2.7274622917175293,1.6488800048828125,1470.957023859024
D4:22:CD:00:05:6E,76.67054748535156,-50.967437744140625,44.62546157836914,33.33219909667969,23.238262176513672,34.54402160644531,1470.957023859024
D4:22:CD:00:05:5E,156.2113800048828,-67.2905502319336,-5.764899730682373,2.0302867889404297,3.6057491302490234,4.905144691467285,1470.957023859024
D4:22:CD:00:05:5D,173.19976806640625,-60.43871307373047,-120.94910430908203,0.2750623822212219,2.1488256454467773,-0.27535247802734375,1471.002106666565
D4:22:CD:00:05:6B,-73.50519561767578,-41.702476501464844,-69.0494155883789,4.067370414733887,5.544953346252441,10.58499526977539,1471.002106666565
D4:22:CD:00:49:AA,134.627685546875,-75.36687469482422,147.63958740234375,2.84714412689209,4.552457809448242,3.02933406829834,1471.002106666565
D4:22:CD:00:05:6E,63.266170501708984,-62.95207214355469,46.299659729003906,30.07178497314453,-2.6767311096191406,21.79842758178711,1471.002106666565
D4:22:CD:00:05:5E,153.9436492919922,-68.59777069091797,-5.372304916381836,-2.8228158950805664,-8.680007934570312,8.276817321777344,1471.002106666565
D4:22:CD:00:05:5D,173.09573364257812,-58.88318634033203,-120.11111450195312,3.3339390754699707,2.161125659942627,-1.0701837539672852,1471.0321941375732
D4:22:CD:00:05:6B,-70.88082122802734,-30.70471954345703,-68.18190002441406,5.128583908081055,8.955904006958008,14.938220977783203,1471.0321941375732
D4:22:CD:00:49:AA,133.22642517089844,-75.30848693847656,148.019287109375,-3.6279072761535645,2.2957143783569336,6.93724250793457,1471.0321941375732
D4:22:CD:00:05:6E,63.86709213256836,-59.806522369384766,49.255855560302734,25.88006591796875,7.5399322509765625,1.7895050048828125,1471.0321941375732
D4:22:CD:00:05:5E,153.28094482421875,-69.08953094482422,-5.054582118988037,1.7622485160827637,-3.2542200088500977,10.378875732421875,1471.0321941375732
D4:22:CD:00:05:5D,173.74122619628906,-59.31516647338867,-120.14768981933594,-1.2027637958526611,1.2270631790161133,3.5315895080566406,1471.0622227191925
D4:22:CD:00:05:6B,-62.40480422973633,-19.052894592285156,-67.15277099609375,7.906008720397949,8.056987762451172,17.08692169189453,1471.0622227191925
D4:22:CD:00:49:AA,134.80886840820312,-74.82491302490234,146.03985595703125,-2.5640859603881836,1.9290518760681152,6.975273132324219,1471.0622227191925
D4:22:CD:00:05:6E,74.76380920410156,-53.760047912597656,52.44029998779297,5.893394470214844,9.628881454467773,8.003715515136719,1471.0622227191925
D4:22:CD:00:05:5E,156.327880859375,-69.57513427734375,-2.100221872329712,8.81757926940918,-4.226757049560547,14.004613876342773,1471.0622227191925
D4:22:CD:00:05:5D,174.60279846191406,-60.96574401855469,-119.99954223632812,1.314256191253662,-0.26956892013549805,0.7693681716918945,1471.0769381523132
D4:22:CD:00:05:6B,-49.2941780090332,-7.2855401039123535,-66.05670928955078,2.9534006118774414,2.886847972869873,15.768808364868164,1471.0769381523132
D4:22:CD:00:49:AA,137.4989776611328,-74.24696350097656,142.68276977539062,-3.7241058349609375,-1.3667852878570557,6.395280838012695,1471.0769381523132
D4:22:CD:00:05:6E,81.57600402832031,-52.52772903442383,61.15420913696289,-2.5222220420837402,14.615140914916992,-4.121244430541992,1471.0769381523132
D4:22:CD:00:05:5E,169.99545288085938,-69.06902313232422,-6.321203231811523,0.9740054607391357,-1.3166375160217285,10.283470153808594,1471.0769381523132
