Device,EulerX,EulerY,EulerZ,FreeAccX,FreeAccY,FreeAccZ,Timestamp
D4:22:CD:00:05:5D,-178.65240478515625,-49.57229232788086,-95.65809631347656,-3.670915126800537,1.4690830707550049,2.574610710144043,1439.5704078674316
D4:22:CD:00:05:6B,-51.95789337158203,51.98790740966797,-133.5098419189453,-10.639205932617188,-6.408479690551758,6.699150085449219,1439.5704078674316
D4:22:CD:00:49:AA,151.598876953125,-78.25396728515625,156.3252716064453,-3.0472335815429688,1.7410402297973633,7.127063751220703,1439.5704078674316
D4:22:CD:00:05:6E,-26.678600311279297,-79.37655639648438,-177.08270263671875,-12.461542129516602,-3.1909499168395996,13.854986190795898,1439.5704078674316
D4:22:CD:00:05:5E,-176.4051055908203,-63.65597915649414,-33.64654541015625,4.544422149658203,5.11971378326416,0.34320735931396484,1439.5704078674316
D4:22:CD:00:05:6B,-23.566669464111328,61.842185974121094,-115.96263885498047,-5.994315147399902,2.816061019897461,2.8204307556152344,1439.579464673996
D4:22:CD:00:49:AA,161.87551879882812,-79.09064483642578,150.19192504882812,-1.09913969039917,1.7000927925109863,5.336834907531738,1439.579464673996
D4:22:CD:00:05:6E,-55.35860061645508,-71.85481262207031,-136.79779052734375,-12.566892623901367,-13.317728042602539,10.485729217529297,1439.579464673996
D4:22:CD:00:05:5E,-176.05557250976562,-70.74634552001953,-31.029685974121094,3.41603422164917,5.499570846557617,-4.111271858215332,1439.579464673996
D4:22:CD:00:05:6E,-54.59213638305664,-65.56767272949219,-122.15744018554688,-9.55958366394043,-18.237186431884766,0.4849519729614258,1439.5834753513336
D4:22:CD:00:05:5D,169.32005310058594,-30.656286239624023,-110.62650299072266,8.059642791748047,-0.7409554719924927,-1.9553017616271973,1439.6374125480652
D4:22:CD:00:05:6B,-71.78691864013672,-1.464080572128296,-59.40412902832031,3.53633451461792,4.08824348449707,18.144939422607422,1439.6374125480652
D4:22:CD:00:49:AA,-157.89035034179688,-79.74784851074219,77.95980834960938,0.5084539651870728,2.3872270584106445,7.639595031738281,1439.6374125480652
D4:22:CD:00:05:6E,132.6126251220703,-70.27365112304688,14.630461692810059,-8.402688980102539,-3.053234577178955,2.2245941162109375,1439.6374125480652
D4:22:CD:00:05:5E,-139.10472106933594,-60.5418701171875,-54.78892517089844,-1.3607523441314697,0.2960008382797241,0.8448467254638672,1439.6374125480652
D4:22:CD:00:05:5D,-163.11599731445312,-37.39699935913086,-121.44795227050781,-4.372381210327148,0.2302795648574829,1.7550897598266602,1439.6674115657806
D4:22:CD:00:05:6B,-27.57189178466797,10.621191024780273,-42.32545471191406,0.09065866470336914,-12.312986373901367,16.455398559570312,1439.6674115657806
D4:22:CD:00:49:AA,-142.32481384277344,-82.79413604736328,62.67637252807617,2.408801555633545,1.0646157264709473,8.382942199707031,1439.6674115657806
D4:22:CD:00:05:6E,129.52406311035156,-60.49034881591797,22.863292694091797,-6.367955207824707,-7.019810676574707,6.529134750366211,1439.6674115657806
D4:22:CD:00:05:5E,-133.70216369628906,-61.61362075805664,-61.73086929321289,0.6718231439590454,3.25038480758667,-0.3246326446533203,1439.6674115657806
D4:22:CD:00:05:5D,-164.45755004882812,-42.00142288208008,-121.39605712890625,-4.074302673339844,0.27348214387893677,2.6847286224365234,1439.6964178085327
D4:22:CD:00:05:6B,-6.894665718078613,11.748393058776855,-35.860321044921875,-3.0632615089416504,-10.579647064208984,5.9706926345825195,1439.6964178085327
D4:22:CD:00:49:AA,-135.16334533691406,-85.69434356689453,56.75415802001953,-0.5639946460723877,-0.695885181427002,8.839372634887695,1439.6964178085327
D4:22:CD:00:05:6E,125.75198364257812,-57.745601654052734,32.616878509521484,-10.276363372802734,-6.184165000915527,1.5892324447631836,1439.6964178085327
D4:22:CD:00:05:5E,-116.2704086303711,-62.675811767578125,-78.72766876220703,-1.6539485454559326,2.1173996925354004,-4.215744972229004,1439.6964178085327
D4:22:CD:00:05:5D,-165.2177734375,-47.274070739746094,-121.89326477050781,-2.799981117248535,0.41564828157424927,3.8173885345458984,1439.756611585617
D4:22:CD:00:05:6B,9.683289527893066,15.347620010375977,-33.22767639160156,-3.6492881774902344,-11.79412841796875,-5.65567684173584,1439.756611585617
D4:22:CD:00:49:AA,-113.97777557373047,-85.16758728027344,38.26957702636719,-1.400792121887207,-0.1825801134109497,4.312485694885254,1439.756611585617
D4:22:CD:00:05:6E,129.82167053222656,-57.048030853271484,35.14848327636719,-8.975507736206055,-10.250911712646484,-3.2195544242858887,1439.756611585617
D4:22:CD:00:05:5E,-101.7313003540039,-62.820159912109375,-95.43273162841797,-4.420327186584473,0.9488204717636108,-7.45389461517334,1439.756611585617
D4:22:CD:00:05:5D,-164.90809631347656,-54.219337463378906,-122.27589416503906,-3.6821212768554688,-1.8099949359893799,7.004146575927734,1439.7878725528717
D4:22:CD:00:05:6B,19.010953903198242,18.236650466918945,-33.885093688964844,-5.450957298278809,-2.721499443054199,-6.030405044555664,1439.7878725528717
D4:22:CD:00:49:AA,-100.29838562011719,-83.68217468261719,29.0826358795166,0.7489218711853027,-1.617851972579956,-1.6203269958496094,1439.7878725528717
D4:22:CD:00:05:6E,135.9984588623047,-54.932010650634766,33.331539154052734,-8.127172470092773,-9.008861541748047,-12.629762649536133,1439.7878725528717
D4:22:CD:00:05:5E,-92.9242935180664,-62.57990646362305,-109.351318359375,-6.533352851867676,3.15299129486084,-8.439205169677734,1439.7878725528717
D4:22:CD:00:05:5D,-165.38458251953125,-64.32579040527344,-125.01333618164062,-8.773380279541016,-3.491880416870117,2.578831672668457,1439.8169066905975
D4:22:CD:00:05:6B,22.59836769104004,20.155786514282227,-34.97563171386719,-8.017000198364258,-0.49091267585754395,-6.243712425231934,1439.8169066905975
D4:22:CD:00:49:AA,-100.47623443603516,-82.77843475341797,33.70320510864258,1.4707224369049072,-0.979289174079895,-9.016443252563477,1439.8169066905975
D4:22:CD:00:05:6E,142.66810607910156,-50.781166076660156,28.27371597290039,-4.852740287780762,-8.950372695922852,-13.070640563964844,1439.8169066905975
D4:22:CD:00:05:5E,-83.53600311279297,-61.43758010864258,-122.77587890625,-5.630369186401367,2.6303224563598633,-6.199432373046875,1439.8169066905975
D4:22:CD:00:05:5D,-167.8743438720703,-69.50685119628906,-122.67124938964844,1.8626699447631836,-0.5458952188491821,-6.634032249450684,1439.847466468811
D4:22:CD:00:05:6B,25.199420928955078,21.309669494628906,-37.14466857910156,-7.556382179260254,2.118276596069336,-9.121894836425781,1439.847466468811
D4:22:CD:00:49:AA,-101.3481674194336,-82.579345703125,36.85546112060547,3.4633564949035645,1.7027788162231445,-11.810514450073242,1439.847466468811
D4:22:CD:00:05:6E,145.6415557861328,-47.22813415527344,24.469907760620117,-2.676583766937256,-4.935420036315918,-9.290353775024414,1439.847466468811
D4:22:CD:00:05:5E,-73.61713409423828,-58.83073043823242,-134.79258728027344,-8.409196853637695,1.3518965244293213,-5.707781791687012,1439.847466468811
D4:22:CD:00:05:5D,-167.39935302734375,-71.44243621826172,-116.26548767089844,6.790045738220215,-1.7913589477539062,-6.449542045593262,1439.8768920898438
D4:22:CD:00:05:6B,26.625883102416992,21.855594635009766,-41.771148681640625,-0.9679412841796875,8.596466064453125,-8.353429794311523,1439.8768920898438
D4:22:CD:00:49:AA,-94.19969177246094,-83.4357681274414,31.53160285949707,1.3758797645568848,1.6078286170959473,-9.427995681762695,1439.8768920898438
D4:22:CD:00:05:6E,145.40028381347656,-45.61630630493164,21.698644638061523,0.6238993406295776,-3.792665958404541,-5.314884185791016,1439.8768920898438
D4:22:CD:00:05:5E,-69.36561584472656,-56.277015686035156,-143.01902770996094,-14.401580810546875,-4.378437042236328,-7.930163383483887,1439.8768920898438
D4:22:CD:00:05:5D,-165.31626892089844,-73.34161376953125,-113.70907592773438,0.150054931640625,-0.3830479383468628,-9.488670349121094,1439.906898021698
D4:22:CD:00:05:6B,25.347017288208008,22.674516677856445,-50.27767562866211,0.6721653938293457,4.280264854431152,-9.674114227294922,1439.906898021698
D4:22:CD:00:49:AA,-77.00345611572266,-84.14204406738281,15.667253494262695,-0.9127529859542847,0.7212303876876831,-9.27969741821289,1439.906898021698
D4:22:CD:00:05:6E,142.55335998535156,-45.954139709472656,20.611543655395508,4.387618064880371,-1.5712957382202148,-3.9764328002929688,1439.906898021698
D4:22:CD:00:05:5E,-73.89613342285156,-56.23598098754883,-145.87005615234375,-19.801715850830078,2.7807531356811523,-10.606277465820312,1439.906898021698
D4:22:CD:00:05:5D,-166.4407501220703,-73.60411834716797,-112.97157287597656,-1.032320499420166,9.642536163330078,-4.268614768981934,1439.937420129776
D4:22:CD:00:05:6B,24.32870101928711,24.647537231445312,-64.44267272949219,2.9123191833496094,1.104015827178955,-9.959039688110352,1439.937420129776
D4:22:CD:00:49:AA,-68.37509155273438,-84.06400299072266,7.8453826904296875,0.6262810230255127,1.6547508239746094,-5.98771858215332,1439.937420129776
D4:22:CD:00:05:6E,141.1494903564453,-47.64859390258789,20.40464973449707,6.656435966491699,-0.1739068329334259,-2.7873382568359375,1439.937420129776
D4:22:CD:00:05:5E,-85.46278381347656,-58.33143615722656,-137.79531860351562,-18.844738006591797,13.908878326416016,-2.050316333770752,1439.937420129776
D4:22:CD:00:05:5D,-171.31959533691406,-71.8837890625,-108.1573715209961,-2.8999361991882324,1.3302204608917236,-4.0681867599487305,1439.967420578003
D4:22:CD:00:05:6B,21.20392608642578,25.828874588012695,-83.19001770019531,-0.7095589637756348,-11.777828216552734,-15.897029876708984,1439.967420578003
D4:22:CD:00:49:AA,-66.81944274902344,-84.80242919921875,5.5093674659729,1.9950451850891113,1.8769779205322266,-1.4986143112182617,1439.967420578003
D4:22:CD:00:05:6E,142.95297241210938,-49.61697769165039,20.4443416595459,9.51089096069336,-1.0901551246643066,0.43485546112060547,1439.967420578003
D4:22:CD:00:05:5E,-99.97234344482422,-60.55093765258789,-122.36356353759766,-4.539363861083984,-20.261756896972656,-7.891291618347168,1439.967420578003
D4:22:CD:00:05:5D,-174.49966430664062,-69.95101928710938,-102.77767944335938,-0.16932827234268188,-2.0423455238342285,1.0521936416625977,1439.9974193572998
D4:22:CD:00:05:6B,13.257023811340332,22.168642044067383,-103.13448333740234,2.8255391120910645,-16.92174530029297,-28.404586791992188,1439.9974193572998
D4:22:CD:00:49:AA,-61.260494232177734,-86.25728607177734,-2.324265241622925,0.5491958856582642,-0.9105806350708008,1.6573476791381836,1439.9974193572998
D4:22:CD:00:05:6E,146.29409790039062,-50.46601867675781,20.85845184326172,9.608068466186523,-1.7386376857757568,2.152566909790039,1439.9974193572998
D4:22:CD:00:05:5E,-113.6292724609375,-61.949119567871094,-108.26541137695312,1.0997297763824463,-16.789573669433594,-1.572432518005371,1439.9974193572998
D4:22:CD:00:05:5D,-176.50950622558594,-69.02153015136719,-98.4399185180664,-1.546752691268921,-0.7516436576843262,1.6224822998046875,1440.0568709373474
D4:22:CD:00:05:6B,-0.27731961011886597,16.705717086791992,-109.1047592163086,2.0508923530578613,-1.7563092708587646,-16.172042846679688,1440.0568709373474
D4:22:CD:00:49:AA,-49.752742767333984,-88.1543197631836,-16.697866439819336,-3.76993989944458,-3.057403564453125,1.8978681564331055,1440.0568709373474
D4:22:CD:00:05:6E,147.45001220703125,-49.217960357666016,20.622966766357422,13.186307907104492,-5.747713088989258,4.356327056884766,1440.0568709373474
D4:22:CD:00:05:5E,-129.12025451660156,-60.82130432128906,-94.67769622802734,4.798307418823242,-18.272281646728516,12.799287796020508,1440.0568709373474
D4:22:CD:00:05:5D,-179.92205810546875,-68.64874267578125,-94.181884765625,0.7284988164901733,-2.0570931434631348,2.9365930557250977,1440.086874961853
D4:22:CD:00:05:6B,-20.760332107543945,17.361095428466797,-97.0128402709961,-16.539478302001953,-0.9978399276733398,4.576245307922363,1440.086874961853
D4:22:CD:00:49:AA,-68.29147338867188,-89.83214569091797,-0.16634505987167358,-3.698707103729248,-2.9676156044006348,4.547564506530762,1440.086874961853
D4:22:CD:00:05:6E,140.9761199951172,-47.269020080566406,21.68584442138672,13.522645950317383,-4.12270450592041,3.414095878601074,1440.086874961853
D4:22:CD:00:05:5E,-145.89576721191406,-58.936309814453125,-82.87416076660156,2.7110958099365234,5.395143508911133,5.392474174499512,1440.086874961853
D4:22:CD:00:05:5D,175.22479248046875,-68.73062133789062,-89.15947723388672,-2.1959738731384277,-1.7848234176635742,4.58018684387207,1440.1170456409454
D4:22:CD:00:05:6B,-27.42295265197754,21.641178131103516,-81.06002807617188,-7.89785099029541,-12.764711380004883,-9.962907791137695,1440.1170456409454
D4:22:CD:00:49:AA,153.72650146484375,-88.82764434814453,137.13702392578125,0.19417732954025269,-3.9318432807922363,4.840470314025879,1440.1170456409454
D4:22:CD:00:05:6E,130.6239471435547,-44.54186248779297,24.246232986450195,10.116310119628906,1.1450848579406738,3.4908933639526367,1440.1170456409454
D4:22:CD:00:05:5E,-152.1485595703125,-58.57112503051758,-76.06442260742188,-2.3078722953796387,-1.6126549243927002,1.0504684448242188,1440.1170456409454
D4:22:CD:00:05:5D,168.70806884765625,-68.66677856445312,-82.90279388427734,-0.9157180786132812,-2.217639923095703,2.496201515197754,1440.1469469070435
D4:22:CD:00:05:6B,-28.324142456054688,23.851539611816406,-61.86598205566406,1.7663683891296387,-12.043930053710938,-8.168575286865234,1440.1469469070435
D4:22:CD:00:49:AA,162.0489501953125,-87.84187316894531,128.4983673095703,2.54085111618042,-3.115579128265381,2.3783044815063477,1440.1469469070435
D4:22:CD:00:05:6E,120.95624542236328,-41.2099723815918,26.603647232055664,12.518205642700195,4.31552791595459,-2.370041847229004,1440.1469469070435
D4:22:CD:00:05:5E,-157.69554138183594,-58.690696716308594,-71.06088256835938,-0.24493151903152466,-3.5966291427612305,0.44103145599365234,1440.1469469070435
D4:22:CD:00:05:5D,160.60826110839844,-67.93668365478516,-75.88795471191406,0.2746238708496094,-1.9720890522003174,1.5652351379394531,1440.1769416332245
D4:22:CD:00:05:6B,-28.569114685058594,22.200458526611328,-46.712806701660156,-3.998283863067627,-0.3593369722366333,6.715213775634766,1440.1769416332245
D4:22:CD:00:49:AA,175.81617736816406,-86.8191909790039,113.20995330810547,4.530519485473633,-1.2104902267456055,2.5011119842529297,1440.1769416332245
D4:22:CD:00:05:6E,111.17242431640625,-38.87572479248047,28.819805145263672,6.597138404846191,5.159542083740234,-4.994455337524414,1440.1769416332245
D4:22:CD:00:05:5E,-162.41921997070312,-59.242225646972656,-66.46160125732422,0.4210413694381714,-3.2029309272766113,-0.039696693420410156,1440.1769416332245
D4:22:CD:00:05:5D,151.5296173095703,-66.1427993774414,-70.42691802978516,1.7016911506652832,-3.0093374252319336,2.1146888732910156,1440.2071447372437
D4:22:CD:00:05:6B,-24.438961029052734,20.0304012298584,-36.323429107666016,-11.107202529907227,5.461512565612793,15.465831756591797,1440.2071447372437
D4:22:CD:00:49:AA,-173.7310333251953,-86.78703308105469,98.5305404663086,9.118036270141602,3.632739543914795,-2.164088726043701,1440.2071447372437
D4:22:CD:00:05:6E,105.24156951904297,-36.94105529785156,29.25919532775879,4.497318267822266,5.348916053771973,-5.151144027709961,1440.2071447372437
D4:22:CD:00:05:5E,-164.46070861816406,-60.267791748046875,-63.34584426879883,-2.3820013999938965,-4.382879257202148,-0.3368368148803711,1440.2071447372437
D4:22:CD:00:05:5D,143.1000518798828,-63.832420349121094,-69.13317108154297,7.747372627258301,-3.8223915100097656,4.5050764083862305,1440.2367367744446
D4:22:CD:00:05:6B,-16.83468246459961,19.31755828857422,-25.162437438964844,-9.532148361206055,8.277168273925781,1.852137565612793,1440.2367367744446
D4:22:CD:00:49:AA,-169.22010803222656,-84.96114349365234,89.64788818359375,8.203025817871094,-3.1214537620544434,-1.0513677597045898,1440.2367367744446
D4:22:CD:00:05:6E,104.91448974609375,-35.78089904785156,30.028135299682617,1.7927813529968262,6.48421573638916,-1.7678489685058594,1440.2367367744446
D4:22:CD:00:05:5E,-166.357421875,-61.31158447265625,-61.8139762878418,-2.6031174659729004,-4.009306907653809,-0.5493707656860352,1440.2367367744446
D4:22:CD:00:05:5D,136.01219177246094,-62.61722946166992,-73.29342651367188,19.766319274902344,3.529374122619629,-0.07642364501953125,1440.2668318748474
D4:22:CD:00:05:6B,-12.59462833404541,17.177082061767578,-9.627303123474121,-2.5563855171203613,19.600994110107422,-7.890591621398926,1440.2668318748474
D4:22:CD:00:49:AA,-166.33938598632812,-83.60340118408203,86.30467987060547,1.286860466003418,-2.360053539276123,8.648811340332031,1440.2668318748474
D4:22:CD:00:05:6E,105.76419830322266,-35.74098205566406,31.084171295166016,-0.8217699527740479,8.709943771362305,2.059539794921875,1440.2668318748474
D4:22:CD:00:05:5E,-167.9710235595703,-62.609375,-61.325660705566406,0.5199952125549316,-2.9859085083007812,-0.0194549560546875,1440.2668318748474
D4:22:CD:00:05:5D,140.0851593017578,-57.286495208740234,-84.35140228271484,15.180109024047852,11.600894927978516,9.165523529052734,1440.2968351840973
D4:22:CD:00:05:6B,-26.37155532836914,12.149678230285645,5.137162208557129,-13.937982559204102,37.4677734375,-24.919017791748047,1440.2968351840973
D4:22:CD:00:49:AA,-169.14309692382812,-84.95111846923828,89.0467529296875,2.2555084228515625,5.016787528991699,2.3921327590942383,1440.2968351840973
D4:22:CD:00:05:6E,105.54520416259766,-35.609764099121094,32.1092643737793,-0.05247707664966583,6.502311706542969,-0.03510284423828125,1440.2968351840973
D4:22:CD:00:05:5E,-169.27427673339844,-64.00309753417969,-60.16936492919922,0.8050490617752075,-3.582170009613037,-0.5948419570922852,1440.2968351840973
D4:22:CD:00:05:5D,149.17771911621094,-48.91472244262695,-95.06239318847656,11.058483123779297,2.752711296081543,0.8339099884033203,1440.3603854179382
D4:22:CD:00:05:6B,-57.65341567993164,6.682153701782227,15.452556610107422,9.474605560302734,-25.41455078125,16.194664001464844,1440.3603854179382
D4:22:CD:00:49:AA,-169.90037536621094,-86.89537811279297,88.2530288696289,5.9465227127075195,3.965696334838867,0.12827682495117188,1440.3603854179382
D4:22:CD:00:05:6E,104.38196563720703,-34.75612258911133,33.34080123901367,1.4446001052856445,3.570580005645752,-3.971282482147217,1440.3603854179382
D4:22:CD:00:05:5E,-171.02479553222656,-64.82283782958984,-58.286136627197266,0.06983527541160583,-3.5499300956726074,-2.332578659057617,1440.3603854179382
D4:22:CD:00:05:5D,159.8190460205078,-40.507110595703125,-103.8990478515625,4.183356285095215,-0.4103894829750061,-3.6359615325927734,1440.3873822689056
D4:22:CD:00:05:6B,-55.88569259643555,2.0711474418640137,22.870439529418945,4.489548683166504,-8.195884704589844,14.517179489135742,1440.3873822689056
D4:22:CD:00:49:AA,169.79466247558594,-88.52210235595703,107.05897521972656,2.9594311714172363,1.4003772735595703,-3.5421533584594727,1440.3873822689056
D4:22:CD:00:05:6E,104.77079010009766,-33.05709457397461,35.18778991699219,2.616342544555664,1.829709529876709,-5.196538925170898,1440.3873822689056
D4:22:CD:00:05:5E,-172.7703857421875,-64.17330169677734,-56.58271026611328,0.23284929990768433,-4.945625305175781,-2.948793411254883,1440.3873822689056
D4:22:CD:00:05:5D,168.64190673828125,-33.64021301269531,-111.76416015625,-2.222294330596924,-0.46175873279571533,-5.823370933532715,1440.4192974567413
D4:22:CD:00:05:6B,-41.31982421875,-2.4601054191589355,28.23345184326172,-1.992232322692871,6.257880210876465,-11.835046768188477,1440.4192974567413
D4:22:CD:00:49:AA,117.13699340820312,-88.80810546875,159.14817810058594,-0.7103593349456787,0.1405273973941803,-5.136218070983887,1440.4192974567413
D4:22:CD:00:05:6E,107.23733520507812,-30.939847946166992,37.78378677368164,2.374603271484375,0.7583589553833008,-5.085933685302734,1440.4192974567413
D4:22:CD:00:05:5E,-172.90890502929688,-61.19363784790039,-56.10791015625,1.8703787326812744,-4.940915107727051,-3.594900131225586,1440.4192974567413
D4:22:CD:00:05:5D,172.97012329101562,-29.429014205932617,-118.94610595703125,-5.61733341217041,-0.3761720657348633,-8.510503768920898,1440.4471762180328
D4:22:CD:00:05:6B,-40.472434997558594,-8.751494407653809,33.617923736572266,-4.612445831298828,11.89012336730957,-12.60331916809082,1440.4471762180328
D4:22:CD:00:49:AA,113.16790771484375,-89.07719421386719,163.6782684326172,-1.686765432357788,-0.43995124101638794,-5.950411796569824,1440.4471762180328
D4:22:CD:00:05:6E,109.54511260986328,-28.94763946533203,41.51243591308594,4.448517799377441,-1.073594570159912,-3.8222951889038086,1440.4471762180328
D4:22:CD:00:05:5E,-171.56301879882812,-56.3945198059082,-56.43436050415039,0.0057651810348033905,-4.1294097900390625,-1.9200615882873535,1440.4471762180328
D4:22:CD:00:05:5D,172.9427032470703,-28.228097915649414,-125.83704376220703,-8.511713027954102,-1.2255535125732422,-12.039287567138672,1440.477177143097
D4:22:CD:00:05:6B,-46.36860275268555,-17.577651977539062,37.713260650634766,4.030839920043945,1.2888836860656738,0.4436807632446289,1440.477177143097
D4:22:CD:00:49:AA,-130.46852111816406,-89.38611602783203,48.7797966003418,-0.5806472301483154,-2.436211109161377,-6.979270935058594,1440.477177143097
D4:22:CD:00:05:6E,109.61626434326172,-27.535310745239258,46.62781524658203,4.641330718994141,-0.9938000440597534,-4.825835227966309,1440.477177143097
D4:22:CD:00:05:5E,-170.81346130371094,-51.004215240478516,-57.90943908691406,-0.2813376188278198,-2.696763038635254,0.021866798400878906,1440.477177143097
D4:22:CD:00:05:5D,170.1926727294922,-29.81024169921875,-132.74868774414062,-12.323762893676758,-3.3971991539001465,-14.752317428588867,1440.5068888664246
D4:22:CD:00:05:6B,-44.55023193359375,-29.988611221313477,39.15705871582031,4.114090919494629,10.39052963256836,-6.93586540222168,1440.5068888664246
D4:22:CD:00:49:AA,-116.72087097167969,-87.15869140625,37.36155700683594,1.3476617336273193,-4.243144989013672,-7.625885963439941,1440.5068888664246
D4:22:CD:00:05:6E,107.68501281738281,-26.15543556213379,52.289249420166016,4.576299667358398,-0.941880464553833,-1.4264030456542969,1440.5068888664246
D4:22:CD:00:05:5E,-171.42086791992188,-46.13974380493164,-59.437469482421875,-4.097334861755371,-4.715569496154785,-0.8420848846435547,1440.5068888664246
D4:22:CD:00:05:5D,167.1963348388672,-30.48159408569336,-138.42630004882812,-8.796052932739258,1.892091989517212,18.934349060058594,1440.536926984787
D4:22:CD:00:05:6B,-47.84467697143555,-44.41764831542969,38.611846923828125,12.839473724365234,20.32918930053711,0.008561134338378906,1440.536926984787
D4:22:CD:00:49:AA,-113.97764587402344,-85.11168670654297,36.14674377441406,4.647710800170898,-1.4102635383605957,-2.507206439971924,1440.536926984787
D4:22:CD:00:05:6E,107.02005767822266,-24.40962791442871,58.13225173950195,7.165337562561035,1.6617803573608398,1.9590396881103516,1440.536926984787
D4:22:CD:00:05:5E,-171.27182006835938,-42.9805793762207,-59.654052734375,1.850383996963501,-2.6249442100524902,2.0176773071289062,1440.536926984787
D4:22:CD:00:05:5D,165.40780639648438,-31.129772186279297,-139.3543243408203,-17.08797836303711,-3.3099398612976074,-4.576781272888184,1440.5669267177582
D4:22:CD:00:05:6B,-67.30903625488281,-54.35454177856445,43.647918701171875,6.662698745727539,11.364173889160156,14.473325729370117,1440.5669267177582
D4:22:CD:00:49:AA,-108.91840362548828,-84.1391372680664,30.295854568481445,2.337942123413086,-0.8315564393997192,-0.14658069610595703,1440.5669267177582
D4:22:CD:00:05:6E,111.69621276855469,-21.77370834350586,63.530296325683594,9.031229019165039,3.2365245819091797,6.6386260986328125,1440.5669267177582
D4:22:CD:00:05:5E,-171.5868377685547,-40.883907318115234,-59.3040657043457,-0.7769564390182495,-3.395838737487793,1.2350883483886719,1440.5669267177582
D4:22:CD:00:05:5D,166.29959106445312,-30.173751831054688,-137.3904266357422,-13.729862213134766,-5.46946907043457,1.8171682357788086,1440.5969941616058
D4:22:CD:00:05:6B,-78.34728240966797,-56.33631134033203,47.769893646240234,0.20098742842674255,0.4484769105911255,13.939857482910156,1440.5969941616058
D4:22:CD:00:49:AA,-109.11648559570312,-83.90603637695312,28.644521713256836,-1.2337944507598877,1.2333056926727295,3.033536911010742,1440.5969941616058
D4:22:CD:00:05:6E,117.35301971435547,-15.868088722229004,67.84150695800781,22.274539947509766,-5.442558288574219,23.563369750976562,1440.5969941616058
D4:22:CD:00:05:5E,-172.18209838867188,-40.09196472167969,-59.163658142089844,-1.1519224643707275,-2.827950954437256,1.237264633178711,1440.5969941616058
D4:22:CD:00:05:5D,165.71583557128906,-27.39607048034668,-135.18936157226562,-17.361156463623047,-5.290899276733398,10.740438461303711,1440.656768321991
D4:22:CD:00:05:6B,-73.2822494506836,-54.04289627075195,45.71462631225586,6.498808860778809,12.778162002563477,8.009862899780273,1440.656768321991
D4:22:CD:00:49:AA,-116.48081970214844,-83.61511993408203,34.78974151611328,2.7691726684570312,-0.10020799934864044,7.928974151611328,1440.656768321991
D4:22:CD:00:05:6E,114.17759704589844,-4.147510528564453,69.74552154541016,24.98925018310547,-0.7944562435150146,19.161705017089844,1440.656768321991
D4:22:CD:00:05:5E,-172.8076171875,-40.697547912597656,-59.53794860839844,-1.0436959266662598,-2.77443265914917,2.096011161804199,1440.656768321991
D4:22:CD:00:05:5D,163.1822509765625,-23.392305374145508,-134.02645874023438,-14.405845642089844,-7.200671195983887,7.025140762329102,1440.686931848526
D4:22:CD:00:05:6B,-78.40327453613281,-45.95274353027344,42.073883056640625,12.483392715454102,8.700569152832031,7.322654724121094,1440.686931848526
D4:22:CD:00:49:AA,-118.353271484375,-84.54141998291016,35.328372955322266,6.860525131225586,-0.8535420894622803,7.529254913330078,1440.686931848526
D4:22:CD:00:05:6E,104.70291900634766,12.293403625488281,70.21747589111328,22.852176666259766,6.924284934997559,6.290802001953125,1440.686931848526
D4:22:CD:00:05:5E,-173.77816772460938,-43.05740737915039,-59.970794677734375,-0.49682992696762085,-3.012937545776367,3.0702295303344727,1440.686931848526
D4:22:CD:00:05:5D,161.41741943359375,-18.39924430847168,-132.92376708984375,-9.52756118774414,-5.4668169021606445,3.7339649200439453,1440.7173233032227
D4:22:CD:00:05:6B,-85.01795959472656,-35.898006439208984,37.31928634643555,9.859622955322266,6.136701583862305,10.5462646484375,1440.7173233032227
D4:22:CD:00:49:AA,-121.74921417236328,-85.98575592041016,36.67636489868164,3.8990135192871094,3.45523738861084,7.188283920288086,1440.7173233032227
D4:22:CD:00:05:6E,93.26686096191406,27.36287498474121,70.28611755371094,15.094165802001953,10.326517105102539,-0.33884716033935547,1440.7173233032227
D4:22:CD:00:05:5E,-175.28518676757812,-47.27058029174805,-60.501590728759766,1.5406379699707031,-4.202352523803711,5.597174644470215,1440.7173233032227
D4:22:CD:00:05:5D,160.91537475585938,-15.498518943786621,-133.2144317626953,-5.725155830383301,-2.580751419067383,5.606969833374023,1440.7471816539764
D4:22:CD:00:05:6B,-87.87861633300781,-27.33612823486328,31.7608585357666,9.326923370361328,6.142271995544434,4.652237892150879,1440.7471816539764
D4:22:CD:00:49:AA,-133.10855102539062,-87.2576904296875,46.42500305175781,2.931488513946533,1.5605285167694092,8.59527587890625,1440.7471816539764
D4:22:CD:00:05:6E,82.29475402832031,37.43840026855469,72.61552429199219,7.803271293640137,7.6372270584106445,-4.128827095031738,1440.7471816539764
D4:22:CD:00:05:5E,-176.11236572265625,-52.65581512451172,-60.74169921875,2.9825587272644043,-13.319046020507812,5.732558250427246,1440.7471816539764
D4:22:CD:00:05:5D,157.42938232421875,-15.471184730529785,-134.43467712402344,-3.3653645515441895,1.141474723815918,2.1487693786621094,1440.7771501541138
D4:22:CD:00:05:6B,-91.39945220947266,-22.0262393951416,26.8732967376709,4.449957847595215,3.9690346717834473,2.79500675201416,1440.7771501541138
D4:22:CD:00:49:AA,-165.12181091308594,-87.79557800292969,77.1448974609375,4.7381086349487305,0.6860586404800415,7.067232131958008,1440.7771501541138
D4:22:CD:00:05:6E,72.17185974121094,43.116363525390625,78.09832000732422,-0.7611051797866821,4.365679740905762,-3.172786235809326,1440.7771501541138
D4:22:CD:00:05:5E,-169.580322265625,-61.122947692871094,-60.64674758911133,-0.3677355647087097,2.379870891571045,-4.038181304931641,1440.7771501541138
D4:22:CD:00:05:5D,153.2952423095703,-18.132051467895508,-135.40762329101562,-1.8429749011993408,1.546699047088623,-2.5757827758789062,1440.8062994480133
D4:22:CD:00:05:6B,-93.89835357666016,-21.76332664489746,23.211103439331055,-0.3488585948944092,3.3755831718444824,-0.4667234420776367,1440.8062994480133
D4:22:CD:00:49:AA,166.88555908203125,-87.57699584960938,104.09335327148438,2.372659683227539,-0.1614270806312561,2.481186866760254,1440.8062994480133
D4:22:CD:00:05:6E,66.96614074707031,47.039764404296875,84.96807098388672,-0.7778733968734741,1.9039795398712158,-5.853246688842773,1440.8062994480133
D4:22:CD:00:05:5E,-164.54550170898438,-64.87810516357422,-60.998863220214844,-4.274456977844238,1.574291467666626,-6.095348358154297,1440.8062994480133
D4:22:CD:00:05:5D,150.17767333984375,-23.138084411621094,-135.365478515625,-2.2220706939697266,0.43117111921310425,-8.366039276123047,1440.8365063667297
D4:22:CD:00:05:6B,-95.68587493896484,-25.315656661987305,20.62531280517578,-1.4885470867156982,2.6717138290405273,-3.613595485687256,1440.8365063667297
D4:22:CD:00:49:AA,158.9166717529297,-86.59130859375,111.52925109863281,1.2151610851287842,-1.2110741138458252,-2.663618564605713,1440.8365063667297
D4:22:CD:00:05:6E,80.64203643798828,51.219181060791016,93.99577331542969,3.3663272857666016,-4.150856018066406,-12.91975212097168,1440.8365063667297
D4:22:CD:00:05:5E,-163.3050079345703,-66.03106689453125,-62.425758361816406,-4.366430282592773,3.091994285583496,-6.406174659729004,1440.8365063667297
D4:22:CD:00:05:5D,149.40110778808594,-30.256532669067383,-134.0699920654297,-4.443202018737793,-2.1511178016662598,-13.517358779907227,1440.8676121234894
D4:22:CD:00:05:6B,-98.47086334228516,-30.758831024169922,18.81654167175293,-2.596133232116699,0.10058510303497314,-7.358511924743652,1440.8676121234894
D4:22:CD:00:49:AA,166.1310272216797,-84.93864440917969,104.36085510253906,0.9220620393753052,-0.5599662065505981,-5.82261848449707,1440.8676121234894
D4:22:CD:00:05:6E,112.25682830810547,54.870445251464844,108.09624481201172,-5.397223472595215,5.86421012878418,-3.655991554260254,1440.8676121234894
D4:22:CD:00:05:5E,-166.7761993408203,-65.48810577392578,-63.55320358276367,-0.9452662467956543,2.273315906524658,-7.733776092529297,1440.8676121234894
D4:22:CD:00:05:5D,150.34364318847656,-39.867225646972656,-131.31236267089844,-5.224662780761719,-3.303642749786377,-12.615938186645508,1440.9275267124176
D4:22:CD:00:05:6B,-103.44872283935547,-36.8657341003418,17.948261260986328,-4.1620378494262695,0.08616161346435547,-7.878575325012207,1440.9275267124176
D4:22:CD:00:49:AA,173.3846435546875,-83.90847778320312,97.2216796875,0.7898423671722412,0.40843522548675537,-8.281425476074219,1440.9275267124176
D4:22:CD:00:05:6E,130.61126708984375,53.87747573852539,124.51212310791016,0.23771542310714722,1.8216133117675781,-11.657112121582031,1440.9275267124176
D4:22:CD:00:05:5E,-167.68975830078125,-64.23438262939453,-66.43799591064453,-0.5882726907730103,3.7058377265930176,-2.8919944763183594,1440.9275267124176
D4:22:CD:00:05:5D,149.66085815429688,-52.077239990234375,-126.58831024169922,-3.1044392585754395,-2.5659308433532715,-6.695470809936523,1440.9569895267487
D4:22:CD:00:05:6B,-108.25361633300781,-42.63259506225586,17.673015594482422,-3.8965048789978027,1.8567771911621094,-8.383033752441406,1440.9569895267487
D4:22:CD:00:49:AA,175.39134216308594,-84.05284881591797,94.12321472167969,0.9968143701553345,1.4443156719207764,-10.292068481445312,1440.9569895267487
D4:22:CD:00:05:6E,135.7679443359375,47.03009033203125,137.59925842285156,-7.879919052124023,0.15025931596755981,-8.39285659790039,1440.9569895267487
D4:22:CD:00:05:5E,-170.21092224121094,-60.56430435180664,-69.05840301513672,-2.4825730323791504,-5.627374649047852,-7.758210182189941,1440.9569895267487
D4:22:CD:00:05:5D,143.21173095703125,-65.76090240478516,-117.35396575927734,-1.1474921703338623,-2.596323013305664,-0.14170169830322266,1440.9869961738586
D4:22:CD:00:05:6B,-112.53419494628906,-46.890907287597656,17.125118255615234,-4.638472557067871,3.289165496826172,-6.878473281860352,1440.9869961738586
D4:22:CD:00:49:AA,174.3700408935547,-84.45878601074219,93.50029754638672,0.479591965675354,0.5783710479736328,-9.8719482421875,1440.9869961738586
D4:22:CD:00:05:6E,137.48941040039062,35.95287322998047,143.99124145507812,-15.038358688354492,8.141162872314453,-13.530851364135742,1440.9869961738586
D4:22:CD:00:05:5E,-172.8286895751953,-55.85488510131836,-73.00021362304688,-1.2387351989746094,-7.2725324630737305,0.226318359375,1440.9869961738586
D4:22:CD:00:05:5D,117.10414123535156,-77.4146728515625,-86.76170349121094,4.579710006713867,-5.77387809753418,8.475873947143555,1441.0169985294342
D4:22:CD:00:05:6B,-115.4179458618164,-49.14912796020508,15.667333602905273,-4.980533599853516,3.952486515045166,-6.1219682693481445,1441.0169985294342
D4:22:CD:00:49:AA,171.9665985107422,-84.95989990234375,94.48097229003906,1.2448992729187012,-1.8361718654632568,-7.86796760559082,1441.0169985294342
D4:22:CD:00:05:6E,138.4066619873047,26.164506912231445,148.65106201171875,-16.583580017089844,11.633056640625,-17.03409194946289,1441.0169985294342
D4:22:CD:00:05:5E,-171.7824249267578,-53.245906829833984,-77.11988830566406,-1.7056794166564941,-7.942813873291016,4.642306327819824,1441.0169985294342
D4:22:CD:00:05:5D,68.29205322265625,-78.33042907714844,-27.248748779296875,19.296627044677734,4.634476661682129,1.5093307495117188,1441.0471632480621
D4:22:CD:00:05:6B,-116.3335189819336,-49.77397537231445,14.198174476623535,-4.958571434020996,5.001020431518555,-6.005064964294434,1441.0471632480621
D4:22:CD:00:49:AA,170.61732482910156,-85.95146179199219,95.919677734375,-0.553168773651123,-2.19478702545166,-5.0085248947143555,1441.0471632480621
D4:22:CD:00:05:6E,159.4362335205078,27.842174530029297,153.20608520507812,11.46750259399414,-7.6621294021606445,5.388405799865723,1441.0471632480621
D4:22:CD:00:05:5E,-168.11521911621094,-52.99662780761719,-81.02702331542969,0.9892830848693848,-8.089014053344727,7.664655685424805,1441.0471632480621
D4:22:CD:00:05:5D,63.17502975463867,-76.00501251220703,-15.541029930114746,13.26034927368164,23.525318145751953,-15.160453796386719,1441.0774428844452
D4:22:CD:00:05:6B,-115.26888275146484,-49.6191520690918,13.916082382202148,-5.090435028076172,6.976299285888672,-3.477071762084961,1441.0774428844452
D4:22:CD:00:49:AA,174.6876983642578,-86.14816284179688,92.37734985351562,1.89534592628479,-2.128662586212158,0.6007118225097656,1441.0774428844452
D4:22:CD:00:05:6E,167.66415405273438,39.457950592041016,154.431396484375,0.6832128763198853,11.664339065551758,2.3436431884765625,1441.0774428844452
D4:22:CD:00:05:5E,-162.962890625,-54.5513801574707,-85.02511596679688,1.2109715938568115,-9.835596084594727,7.608671188354492,1441.0774428844452
D4:22:CD:00:05:5D,90.55833435058594,-75.63733673095703,-43.035282135009766,16.064434051513672,1.254875659942627,6.701749801635742,1441.1068918704987
D4:22:CD:00:05:6B,-113.01316833496094,-49.55388259887695,14.269627571105957,-4.113863945007324,7.052755355834961,-1.0586519241333008,1441.1068918704987
D4:22:CD:00:49:AA,173.78720092773438,-86.03533172607422,93.75697326660156,9.727180480957031,0.07183818519115448,11.543272018432617,1441.1068918704987
D4:22:CD:00:05:6E,161.63096618652344,56.1010856628418,149.2207489013672,-9.44072151184082,4.682814598083496,-6.3561859130859375,1441.1068918704987
D4:22:CD:00:05:5E,-152.91236877441406,-58.73981857299805,-90.59845733642578,0.5271831750869751,-6.794878005981445,0.1973428726196289,1441.1068918704987
D4:22:CD:00:05:5D,115.96780395507812,-74.39083099365234,-67.63155364990234,0.5724989175796509,-14.864459991455078,4.394567489624023,1441.1366183757782
D4:22:CD:00:05:6B,-112.38484191894531,-50.34618377685547,15.538366317749023,-3.230839252471924,6.632555961608887,5.864672660827637,1441.1366183757782
D4:22:CD:00:49:AA,174.87274169921875,-85.53060150146484,92.85317993164062,3.8599162101745605,0.2842290997505188,8.752382278442383,1441.1366183757782
D4:22:CD:00:05:6E,138.68408203125,71.95394897460938,126.09700012207031,-6.333630561828613,4.353762626647949,-2.7887420654296875,1441.1366183757782
D4:22:CD:00:05:5E,-139.204833984375,-60.01112747192383,-94.33397674560547,-15.275129318237305,3.34059476852417,-0.16060829162597656,1441.1366183757782
D4:22:CD:00:05:5D,129.5634002685547,-73.2132797241211,-82.25704956054688,-2.963733196258545,5.415184020996094,5.245504379272461,1441.166855096817
D4:22:CD:00:05:6B,-113.87555694580078,-52.076393127441406,18.940452575683594,-1.1163692474365234,8.436134338378906,12.44064712524414,1441.166855096817
D4:22:CD:00:49:AA,178.8135986328125,-84.99637603759766,90.96792602539062,-2.612785816192627,0.5293233394622803,4.16676139831543,1441.166855096817
D4:22:CD:00:05:6E,62.426761627197266,73.58489227294922,49.384822845458984,-5.91944694519043,4.440313339233398,-4.9221038818359375,1441.166855096817
D4:22:CD:00:05:5E,-132.2584686279297,-56.81815719604492,-91.41309356689453,-24.231983184814453,2.742717742919922,6.206949234008789,1441.166855096817
D4:22:CD:00:05:5D,138.3268280029297,-72.78770446777344,-89.53719329833984,-6.715143203735352,-2.7304229736328125,7.286928176879883,1441.2266247272491
D4:22:CD:00:05:6B,-114.69596862792969,-53.21296691894531,23.43633460998535,0.1902010440826416,8.789932250976562,8.978080749511719,1441.2266247272491
D4:22:CD:00:49:AA,-177.2181396484375,-83.7689208984375,91.07442474365234,-4.563419342041016,0.3623278737068176,2.047687530517578,1441.2266247272491
D4:22:CD:00:05:6E,26.85334014892578,54.37677764892578,14.858805656433105,9.64973258972168,-4.57021427154541,-10.842557907104492,1441.2266247272491
D4:22:CD:00:05:5E,-133.92880249023438,-49.65296936035156,-82.506103515625,-16.192596435546875,-5.413403511047363,2.098259925842285,1441.2266247272491
D4:22:CD:00:05:5D,148.97793579101562,-73.27056884765625,-97.27507781982422,-1.9415733814239502,5.342781066894531,1.3454952239990234,1441.2570383548737
D4:22:CD:00:05:6B,-113.76380920410156,-52.25815200805664,26.738811492919922,1.489471197128296,5.352315902709961,3.3657751083374023,1441.2570383548737
D4:22:CD:00:49:AA,-177.77584838867188,-80.95825958251953,94.99970245361328,-2.930245876312256,1.3025732040405273,-3.3137922286987305,1441.2570383548737
D4:22:CD:00:05:6E,20.242816925048828,34.720741271972656,4.513682842254639,22.1326904296875,-21.179676055908203,-7.092918395996094,1441.2570383548737
D4:22:CD:00:05:5E,-139.41285705566406,-41.36639404296875,-73.51530456542969,-5.834023475646973,-6.413791656494141,-4.204300880432129,1441.2570383548737
D4:22:CD:00:05:5D,156.51431274414062,-74.12372589111328,-106.33928680419922,2.222161293029785,-2.115048408508301,0.6014528274536133,1441.2871763706207
D4:22:CD:00:05:6B,-111.57637023925781,-50.29975509643555,28.574399948120117,-0.29044461250305176,0.6998522281646729,-0.07786178588867188,1441.2871763706207
D4:22:CD:00:49:AA,179.7098846435547,-77.87258911132812,99.3260269165039,-1.138352394104004,-0.008970916271209717,-1.6433172225952148,1441.2871763706207
D4:22:CD:00:05:6E,27.433353424072266,19.88009262084961,2.066131353378296,11.51373291015625,-12.394844055175781,-7.605135917663574,1441.2871763706207
D4:22:CD:00:05:5E,-144.9082794189453,-34.13471984863281,-66.30471801757812,-1.2028052806854248,-4.263282775878906,-8.855953216552734,1441.2871763706207
D4:22:CD:00:05:5D,163.6691131591797,-74.6099624633789,-114.31668853759766,3.4254703521728516,-2.7640128135681152,-0.29401302337646484,1441.3169660568237
D4:22:CD:00:05:6B,-109.08399963378906,-49.39009475708008,30.23857307434082,0.15402555465698242,-1.1573610305786133,-4.476718902587891,1441.3169660568237
D4:22:CD:00:49:AA,175.4326629638672,-76.04887390136719,103.47198486328125,-1.4147140979766846,-1.1714916229248047,3.977696418762207,1441.3169660568237
D4:22:CD:00:05:6E,30.769371032714844,9.010360717773438,1.717673420906067,6.012256622314453,17.05758285522461,-4.746799468994141,1441.3169660568237
D4:22:CD:00:05:5E,-149.7387237548828,-28.910598754882812,-59.96025848388672,-1.1524567604064941,-0.9957674741744995,-10.613872528076172,1441.3169660568237
D4:22:CD:00:05:5D,169.24424743652344,-75.29668426513672,-118.8296890258789,3.629134178161621,-1.2740583419799805,0.2730112075805664,1441.3771800994873
D4:22:CD:00:05:6B,-109.3351058959961,-50.106468200683594,32.618194580078125,-1.2710034847259521,-1.4459354877471924,-4.372049331665039,1441.3771800994873
D4:22:CD:00:49:AA,172.60943603515625,-75.72025299072266,106.7087173461914,-3.3330187797546387,0.8122768402099609,3.728804588317871,1441.3771800994873
D4:22:CD:00:05:6E,24.659940719604492,2.8089280128479004,-2.364645004272461,6.475698471069336,5.314776420593262,-0.19269561767578125,1441.3771800994873
D4:22:CD:00:05:5E,-156.1631622314453,-25.409000396728516,-53.76112747192383,-0.07604376971721649,-0.8288322687149048,-9.318071365356445,1441.3771800994873
D4:22:CD:00:05:5D,173.52264404296875,-76.16483306884766,-120.96153259277344,-0.018198423087596893,1.0007164478302002,0.6724977493286133,1441.3832476139069
D4:22:CD:00:05:6B,-111.34233093261719,-52.54861831665039,35.707366943359375,-0.9603787660598755,-1.1697490215301514,-4.953857421875,1441.3832476139069
D4:22:CD:00:49:AA,171.5852813720703,-76.03886413574219,108.68257904052734,-5.126006126403809,2.7270712852478027,-1.4585809707641602,1441.3832476139069
D4:22:CD:00:05:6E,30.04245376586914,2.7820096015930176,-8.828411102294922,1.7633321285247803,-0.47927266359329224,-1.605423927307129,1441.3832476139069
D4:22:CD:00:05:5E,-163.7886962890625,-24.151378631591797,-47.445518493652344,0.49173492193222046,-2.5225281715393066,-6.926095962524414,1441.3832476139069
D4:22:CD:00:05:5D,178.04689025878906,-77.1430892944336,-123.77503967285156,-2.36405611038208,2.0452418327331543,0.637664794921875,1441.4073181152344
D4:22:CD:00:05:6B,-116.16392517089844,-55.6045036315918,39.691314697265625,-1.3607566356658936,-1.0935020446777344,-3.9820303916931152,1441.4073181152344
D4:22:CD:00:49:AA,171.2825164794922,-76.20341491699219,110.3707504272461,-1.8577795028686523,2.2342610359191895,-4.178500175476074,1441.4073181152344
D4:22:CD:00:05:6E,43.55280303955078,5.941694736480713,-15.23776626586914,-2.5253825187683105,9.093984603881836,-4.12149715423584,1441.4073181152344
D4:22:CD:00:05:5E,-171.22315979003906,-24.967443466186523,-40.79946517944336,4.00650691986084,-4.609881401062012,-5.161930084228516,1441.4073181152344
D4:22:CD:00:05:5D,-175.65126037597656,-77.99634552001953,-129.58926391601562,-2.7449216842651367,0.7461355924606323,0.017873764038085938,1441.437123298645
D4:22:CD:00:05:6B,-122.1794662475586,-58.87283706665039,44.54301834106445,-1.827826976776123,0.3612307906150818,-3.3507566452026367,1441.437123298645
D4:22:CD:00:49:AA,168.8436279296875,-75.55287170410156,113.53584289550781,1.4619743824005127,1.5188136100769043,-3.884904384613037,1441.437123298645
D4:22:CD:00:05:6E,53.55421829223633,8.120735168457031,-17.59980010986328,-4.380715370178223,-1.9346034526824951,-7.368025779724121,1441.437123298645
D4:22:CD:00:05:5E,-174.8791046142578,-28.145553588867188,-34.64426803588867,12.198604583740234,-3.4474282264709473,-8.09945297241211,1441.437123298645
D4:22:CD:00:05:5D,-168.24227905273438,-78.24590301513672,-137.293701171875,-0.3169069290161133,-1.0561692714691162,-0.6194620132446289,1441.467119693756
D4:22:CD:00:05:6B,-129.24185180664062,-62.21445846557617,49.20635986328125,-2.1282262802124023,4.275224685668945,-1.8616857528686523,1441.467119693756
D4:22:CD:00:49:AA,163.22080993652344,-74.35687255859375,118.35202026367188,0.6224294900894165,0.5375314950942993,-3.884687900543213,1441.467119693756
D4:22:CD:00:05:6E,60.743160247802734,5.081183910369873,-12.87755298614502,1.157186508178711,8.726465225219727,-5.9211320877075195,1441.467119693756
D4:22:CD:00:05:5E,-168.91891479492188,-34.1727180480957,-29.349281311035156,3.2120423316955566,6.386251449584961,19.418987274169922,1441.467119693756
D4:22:CD:00:05:5D,-165.17172241210938,-77.2620849609375,-140.58055114746094,-0.36315667629241943,-3.002413272857666,-1.3436203002929688,1441.5570237636566
D4:22:CD:00:05:6B,-131.93443298339844,-65.85045623779297,47.64544677734375,-1.9856908321380615,8.476774215698242,-2.9113659858703613,1441.5570237636566
D4:22:CD:00:49:AA,156.8336944580078,-72.984619140625,123.02621459960938,-1.8201820850372314,-0.7053905725479126,-5.427196502685547,1441.5570237636566
D4:22:CD:00:05:6E,47.11355972290039,-9.322732925415039,-2.6138534545898438,12.153039932250977,-0.1180698424577713,-8.919044494628906,1441.5570237636566
D4:22:CD:00:05:5E,-165.55963134765625,-37.35669708251953,-26.757421493530273,6.713229179382324,1.2408757209777832,4.634002685546875,1441.5570237636566
D4:22:CD:00:05:5D,-169.3346710205078,-74.40910339355469,-135.79588317871094,1.201629638671875,-5.836313247680664,-1.5587921142578125,1441.5640246868134
D4:22:CD:00:05:6B,-132.35711669921875,-68.66626739501953,40.23772048950195,-6.029786109924316,3.6802163124084473,-2.5830039978027344,1441.5640246868134
D4:22:CD:00:49:AA,152.10626220703125,-71.57034301757812,126.20763397216797,-1.6686923503875732,-0.696650505065918,-6.47882080078125,1441.5640246868134
D4:22:CD:00:05:6E,26.77475357055664,-22.699682235717773,10.677816390991211,46.47754669189453,7.844121932983398,15.833810806274414,1441.5640246868134
D4:22:CD:00:05:5E,-168.1586151123047,-38.59656524658203,-26.100629806518555,9.535930633544922,-11.955757141113281,-5.2003278732299805,1441.5640246868134
D4:22:CD:00:05:5D,-174.3876495361328,-69.65450286865234,-129.0693817138672,0.4885680079460144,-0.08008122444152832,-0.23401260375976562,1441.5870246887207
D4:22:CD:00:05:6B,-126.28997802734375,-70.4930419921875,30.829998016357422,-6.000888824462891,5.09066104888916,-2.649472236633301,1441.5870246887207
D4:22:CD:00:49:AA,148.7834930419922,-70.54443359375,129.3065948486328,-3.344158172607422,-0.8724045753479004,-4.161844253540039,1441.5870246887207
D4:22:CD:00:05:6E,24.964689254760742,-24.696369171142578,10.185845375061035,18.708045959472656,-0.04365677386522293,-11.556072235107422,1441.5870246887207
D4:22:CD:00:05:5E,-170.40737915039062,-37.70623016357422,-27.551176071166992,14.413455963134766,-7.7713518142700195,10.978422164916992,1441.5870246887207
D4:22:CD:00:05:5D,-179.24978637695312,-63.7415657043457,-124.18031311035156,-1.729015588760376,-5.051557540893555,1.1421098709106445,1441.6170239448547
D4:22:CD:00:05:6B,-116.15127563476562,-70.44989013671875,18.350406646728516,-5.03053092956543,5.844063758850098,-3.5428237915039062,1441.6170239448547
D4:22:CD:00:49:AA,144.65164184570312,-70.3203353881836,134.59396362304688,1.4604909420013428,-0.9424552917480469,-1.3693780899047852,1441.6170239448547
D4:22:CD:00:05:6E,27.728681564331055,-24.485715866088867,5.134234428405762,17.257183074951172,-11.517387390136719,-0.48850440979003906,1441.6170239448547
D4:22:CD:00:05:5E,-166.79156494140625,-34.20528030395508,-28.910070419311523,12.877954483032227,-15.615415573120117,9.85255241394043,1441.6170239448547
D4:22:CD:00:05:5D,178.82643127441406,-57.947208404541016,-120.90885925292969,0.3185802698135376,7.397465705871582,-3.630739212036133,1441.646884918213
D4:22:CD:00:05:6B,-101.27444458007812,-67.18003845214844,1.446330189704895,-4.8004302978515625,6.806872367858887,2.804837226867676,1441.646884918213
D4:22:CD:00:49:AA,141.38914489746094,-70.28133392333984,137.51593017578125,1.910740852355957,2.9008188247680664,2.7697296142578125,1441.646884918213
D4:22:CD:00:05:6E,34.74690628051758,-24.424991607666016,7.536501884460449,22.10831069946289,-0.35918092727661133,-11.420059204101562,1441.646884918213
D4:22:CD:00:05:5E,-161.56346130371094,-28.640056610107422,-29.908063888549805,17.071842193603516,-14.317144393920898,8.602596282958984,1441.646884918213
D4:22:CD:00:05:5D,178.91851806640625,-53.7911262512207,-119.43092346191406,3.884964942932129,1.206709623336792,1.544647216796875,1441.6768832206726
D4:22:CD:00:05:6B,-92.6961898803711,-57.99839401245117,-12.860937118530273,-11.61783218383789,9.519376754760742,9.547859191894531,1441.6768832206726
D4:22:CD:00:49:AA,141.9966583251953,-68.35369873046875,135.74169921875,-0.5183970928192139,0.8180944919586182,6.908796310424805,1441.6768832206726
D4:22:CD:00:05:6E,48.58481979370117,-25.184356689453125,9.188501358032227,23.10653305053711,10.427408218383789,-6.539682388305664,1441.6768832206726
D4:22:CD:00:05:5E,-159.5924835205078,-22.374168395996094,-31.44207191467285,15.864175796508789,-7.545050621032715,1.8208532333374023,1441.6768832206726
D4:22:CD:00:05:5D,178.906005859375,-51.513484954833984,-119.23077392578125,-3.020793914794922,1.7652356624603271,3.7459516525268555,1441.7069747447968
D4:22:CD:00:05:6B,-89.66275787353516,-45.8376350402832,-20.230998992919922,-9.901912689208984,18.741836547851562,12.36813735961914,1441.7069747447968
D4:22:CD:00:49:AA,143.5706329345703,-65.56580352783203,132.0511474609375,-5.168956756591797,-4.9617767333984375,15.010339736938477,1441.7069747447968
D4:22:CD:00:05:6E,59.166412353515625,-25.491086959838867,9.638141632080078,18.439525604248047,11.994937896728516,2.292499542236328,1441.7069747447968
D4:22:CD:00:05:5E,-166.61148071289062,-18.136306762695312,-32.33268356323242,6.121981620788574,-8.916730880737305,-0.6375179290771484,1441.7069747447968
D4:22:CD:00:05:5D,179.54010009765625,-50.66835403442383,-119.53375244140625,-0.1547330915927887,2.1233716011047363,1.4780769348144531,1441.7368068695068
D4:22:CD:00:05:6B,-81.86079406738281,-31.562320709228516,-24.008779525756836,2.5847911834716797,25.616973876953125,19.78998565673828,1441.7368068695068
D4:22:CD:00:49:AA,142.12893676757812,-65.74993133544922,133.33285522460938,-6.612052917480469,1.1416192054748535,7.12451171875,1441.7368068695068
D4:22:CD:00:05:6E,67.08790588378906,-26.0745849609375,11.794774055480957,15.410457611083984,9.657098770141602,7.099786758422852,1441.7368068695068
D4:22:CD:00:05:5E,-170.3632049560547,-19.05975914001465,-33.15407943725586,9.031143188476562,4.165604591369629,-2.3968701362609863,1441.7368068695068
D4:22:CD:00:05:5D,-179.52423095703125,-51.242919921875,-120.18965148925781,1.2918908596038818,0.9543509483337402,1.2486591339111328,1441.7668087482452
D4:22:CD:00:05:6B,-64.2725830078125,-16.686147689819336,-26.646831512451172,11.487014770507812,11.253910064697266,19.237281799316406,1441.7668087482452
D4:22:CD:00:49:AA,142.0198974609375,-66.43409729003906,134.0792999267578,-2.5410447120666504,1.9885928630828857,6.414314270019531,1441.7668087482452
D4:22:CD:00:05:6E,75.7000503540039,-28.19535255432129,16.506101608276367,7.656140327453613,6.879180908203125,6.899677276611328,1441.7668087482452
D4:22:CD:00:05:5E,-167.88905334472656,-24.442474365234375,-35.086456298828125,5.60618782043457,6.492596626281738,-1.5315265655517578,1441.7668087482452
D4:22:CD:00:05:5D,-178.88681030273438,-53.038211822509766,-120.47205352783203,-0.3077741861343384,0.5577347278594971,2.97428035736084,1441.8274540901184
D4:22:CD:00:05:6B,-44.23003387451172,-4.333523750305176,-28.38363265991211,12.234054565429688,4.989571571350098,10.522615432739258,1441.8274540901184
D4:22:CD:00:49:AA,143.97665405273438,-67.4978256225586,133.65853881835938,-5.639719009399414,1.9693632125854492,7.472240447998047,1441.8274540901184
D4:22:CD:00:05:6E,85.69416046142578,-31.84136199951172,22.484107971191406,2.3843488693237305,4.627917289733887,4.958124160766602,1441.8274540901184
D4:22:CD:00:05:5E,-163.17599487304688,-32.93314743041992,-37.817413330078125,4.056428909301758,4.146233558654785,-4.44996452331543,1441.8274540901184
D4:22:CD:00:05:5D,-178.95077514648438,-55.943965911865234,-120.491943359375,-0.06169426441192627,0.9882115125656128,2.861680030822754,1441.856793165207
D4:22:CD:00:05:6B,-23.695890426635742,3.9039342403411865,-31.944135665893555,1.7618961334228516,-1.2406835556030273,6.629388809204102,1441.856793165207
D4:22:CD:00:49:AA,149.18016052246094,-68.7968521118164,131.757080078125,-8.447481155395508,1.1348206996917725,6.280126571655273,1441.856793165207
D4:22:CD:00:05:6E,99.00778198242188,-36.25210952758789,28.594402313232422,-0.5942623615264893,2.6623735427856445,1.8469648361206055,1441.856793165207
D4:22:CD:00:05:5E,-158.770263671875,-42.43235397338867,-41.79012680053711,0.883435845375061,2.929417133331299,-5.17668342590332,1441.856793165207
D4:22:CD:00:05:5D,-178.96961975097656,-60.35088348388672,-119.84766387939453,-0.7694214582443237,0.15325278043746948,4.50079345703125,1441.886791229248
D4:22:CD:00:05:6B,-10.702497482299805,9.451397895812988,-36.27997589111328,-5.9832868576049805,-3.463047981262207,2.7686567306518555,1441.886791229248
D4:22:CD:00:49:AA,157.46261596679688,-70.3558349609375,127.85750579833984,-2.6447691917419434,1.4737188816070557,2.3535356521606445,1441.886791229248
D4:22:CD:00:05:6E,116.05587005615234,-40.137027740478516,34.29470443725586,-4.65812873840332,0.5425068140029907,-2.9876394271850586,1441.886791229248
D4:22:CD:00:05:5E,-157.11451721191406,-50.52506637573242,-47.093223571777344,-2.146596908569336,2.483016014099121,-3.9780478477478027,1441.886791229248
D4:22:CD:00:05:5D,179.5767364501953,-66.52650451660156,-117.23442077636719,-2.1144208908081055,-2.7212233543395996,7.6148223876953125,1441.9167947769165
D4:22:CD:00:05:6B,-13.727335929870605,14.203436851501465,-39.35960388183594,-7.4320831298828125,-2.726167678833008,-4.7960100173950195,1441.9167947769165
D4:22:CD:00:49:AA,169.38304138183594,-71.30376434326172,121.03321075439453,0.03222832828760147,0.4547134041786194,-2.8638596534729004,1441.9167947769165
D4:22:CD:00:05:6E,131.0723419189453,-42.40874481201172,39.61661911010742,-6.302691459655762,-4.853580474853516,-4.956211090087891,1441.9167947769165
D4:22:CD:00:05:5E,-154.36019897460938,-57.854209899902344,-54.61880874633789,-2.9066877365112305,1.7526776790618896,-2.8414154052734375,1441.9167947769165
D4:22:CD:00:05:5D,171.45973205566406,-73.64137268066406,-114.14392852783203,5.599420547485352,-2.8356523513793945,1.4319229125976562,1441.9463050365448
D4:22:CD:00:05:6B,-11.174298286437988,18.852455139160156,-44.761653900146484,-11.634817123413086,-11.4970703125,-9.181764602661133,1441.9463050365448
D4:22:CD:00:49:AA,178.78802490234375,-71.61112976074219,115.29769134521484,4.4295148849487305,0.8370414972305298,-8.143909454345703,1441.9463050365448
D4:22:CD:00:05:6E,137.4354248046875,-42.9304313659668,44.06538772583008,-2.66050386428833,-6.978057861328125,-5.820036888122559,1441.9463050365448
D4:22:CD:00:05:5E,-145.86888122558594,-63.9575080871582,-67.06177520751953,-5.629144668579102,-0.22385939955711365,-2.349461078643799,1441.9463050365448
D4:22:CD:00:05:5D,165.6551055908203,-75.21371459960938,-106.52214050292969,7.840025901794434,4.374648094177246,-6.192717552185059,1441.9767656326294
D4:22:CD:00:05:6B,3.723515272140503,23.19734001159668,-52.04071044921875,-7.642675399780273,-0.5730578899383545,-12.705682754516602,1441.9767656326294
D4:22:CD:00:49:AA,-178.16661071777344,-73.09988403320312,113.80166625976562,4.535688400268555,0.378508985042572,-10.831563949584961,1441.9767656326294
D4:22:CD:00:05:6E,137.01795959472656,-42.19689178466797,47.51280975341797,-0.38500964641571045,-5.6060943603515625,-7.143871307373047,1441.9767656326294
D4:22:CD:00:05:5E,-131.2423858642578,-67.21134185791016,-85.0103530883789,-9.10080337524414,-0.2542151212692261,-1.6781854629516602,1441.9767656326294
D4:22:CD:00:05:5D,166.5264129638672,-73.63832092285156,-99.41177368164062,4.301856994628906,-3.248875617980957,-8.637439727783203,1442.007801771164
D4:22:CD:00:05:6B,21.002954483032227,28.65768814086914,-63.080711364746094,2.3545761108398438,9.124429702758789,-12.640838623046875,1442.007801771164
D4:22:CD:00:49:AA,-177.33583068847656,-75.54916381835938,113.80416107177734,0.4157690405845642,0.21019303798675537,-9.396371841430664,1442.007801771164
D4:22:CD:00:05:6E,133.8865203857422,-40.78375244140625,50.264617919921875,0.9218608140945435,-4.1570634841918945,-7.422097206115723,1442.007801771164
D4:22:CD:00:05:5E,-116.75932312011719,-67.6839599609375,-101.90350341796875,-13.948888778686523,-4.520236015319824,-2.4997506141662598,1442.007801771164
D4:22:CD:00:05:5D,169.2797393798828,-74.23836517333984,-96.75836181640625,3.9648141860961914,-0.7856251001358032,-10.023794174194336,1442.0373258590698
D4:22:CD:00:05:6B,25.389122009277344,32.13777160644531,-79.396240234375,10.914159774780273,9.396635055541992,-9.590841293334961,1442.0373258590698
D4:22:CD:00:49:AA,-176.93898010253906,-77.76554107666016,113.79136657714844,-1.2295787334442139,-0.979528546333313,-8.49270248413086,1442.0373258590698
D4:22:CD:00:05:6E,130.26927185058594,-39.302772521972656,52.34291076660156,2.1628975868225098,-3.2537121772766113,-5.41092586517334,1442.0373258590698
D4:22:CD:00:05:5E,-115.76348114013672,-66.65650939941406,-108.83474731445312,-19.76354217529297,-4.060972213745117,-4.343352317810059,1442.0373258590698
