Device,EulerX,EulerY,EulerZ,FreeAccX,FreeAccY,FreeAccZ,Timestamp
D4:22:CD:00:05:5D,-178.8994903564453,-62.04511642456055,-127.53803253173828,-0.9687560796737671,1.2982547283172607,1.0314521789550781,2282.582094669342
D4:22:CD:00:05:6B,-36.21921157836914,0.735902726650238,-153.80458068847656,-6.511521339416504,-2.8687291145324707,15.236766815185547,2282.582094669342
D4:22:CD:00:49:AA,141.2851104736328,-73.0400619506836,140.3318634033203,-0.5482596158981323,-2.4033236503601074,3.8065567016601562,2282.582094669342
D4:22:CD:00:05:6E,47.899662017822266,-51.18952178955078,-111.46475219726562,-5.621273994445801,-16.20233917236328,8.779064178466797,2282.582094669342
D4:22:CD:00:05:5E,-141.2131805419922,26.818538665771484,81.10233306884766,9.223777770996094,16.055644989013672,-8.499643325805664,2282.582094669342
D4:22:CD:00:05:5D,-177.9109344482422,-61.131996154785156,-128.01077270507812,0.7053353786468506,0.19489958882331848,0.9026174545288086,2282.5850944519043
D4:22:CD:00:05:6B,-19.85602569580078,17.143259048461914,-152.2870330810547,-11.724437713623047,4.303108215332031,7.169771194458008,2282.5850944519043
D4:22:CD:00:49:AA,139.36312866210938,-72.63619232177734,141.80307006835938,0.07830418646335602,0.46562284231185913,4.772823333740234,2282.5850944519043
D4:22:CD:00:05:6E,47.94319534301758,-42.312347412109375,-105.27072143554688,2.620894432067871,-12.211339950561523,-0.27643299102783203,2282.5850944519043
D4:22:CD:00:05:5E,-140.5439910888672,31.00469398498535,81.32227325439453,1.1995532512664795,7.7706403732299805,-7.266490936279297,2282.5850944519043
D4:22:CD:00:05:6B,0.16362535953521729,31.15154457092285,-147.24774169921875,-12.129819869995117,10.238826751708984,-0.6823854446411133,2282.5880954265594
D4:22:CD:00:49:AA,140.31886291503906,-72.619873046875,140.75799560546875,-1.8855400085449219,1.3071107864379883,4.483290672302246,2282.5880954265594
D4:22:CD:00:05:6E,46.27228927612305,-38.332332611083984,-97.76455688476562,6.732316970825195,-5.002081871032715,-4.550258636474609,2282.5880954265594
D4:22:CD:00:05:5E,-140.6845245361328,31.62119483947754,78.70618438720703,-2.4701685905456543,2.578897476196289,-7.099149703979492,2282.5880954265594
D4:22:CD:00:05:5D,-130.3016815185547,-75.12866973876953,-172.37574768066406,1.7070379257202148,1.5351746082305908,-0.5394840240478516,2282.590094804764
D4:22:CD:00:49:AA,144.47056579589844,-72.77568054199219,137.6637420654297,-5.004702568054199,0.6591835021972656,5.1233110427856445,2282.590094804764
D4:22:CD:00:05:6E,41.57569122314453,-38.82260513305664,-87.51309967041016,5.653502464294434,-0.6613337993621826,-6.73105525970459,2282.590094804764
D4:22:CD:00:05:5E,-141.70773315429688,28.820573806762695,73.89451599121094,-3.8733911514282227,0.6762770414352417,-7.062078475952148,2282.590094804764
D4:22:CD:00:05:5D,-142.5285186767578,-70.1329116821289,-160.46754455566406,-0.1606161892414093,2.138820171356201,-0.17628192901611328,2282.5920956134796
D4:22:CD:00:05:6B,-94.07194519042969,-18.116220474243164,-79.22439575195312,7.156476020812988,7.606082916259766,13.704608917236328,2282.5920956134796
D4:22:CD:00:05:5D,-154.273193359375,-67.05081939697266,-148.34689331054688,1.1182456016540527,2.3772940635681152,0.7070884704589844,2282.6657915115356
D4:22:CD:00:05:6B,-81.21644592285156,12.640609741210938,-82.24374389648438,3.099123001098633,-0.8298016786575317,23.96521759033203,2282.6657915115356
D4:22:CD:00:49:AA,-112.19100952148438,-61.821136474609375,22.602922439575195,5.379025459289551,-1.2264344692230225,0.1558971405029297,2282.6657915115356
D4:22:CD:00:05:6E,125.80233001708984,-67.56990814208984,16.880205154418945,-2.55924129486084,-2.0531530380249023,6.072481155395508,2282.6657915115356
D4:22:CD:00:05:5E,-132.03094482421875,-81.22114562988281,-40.076324462890625,-1.7363381385803223,0.16771143674850464,6.046320915222168,2282.6657915115356
D4:22:CD:00:05:5D,-161.4988555908203,-64.47305297851562,-140.46263122558594,-1.0661702156066895,2.6242265701293945,0.7279777526855469,2282.696791410446
D4:22:CD:00:05:6B,-65.2004165649414,30.670930862426758,-73.57907104492188,5.529274940490723,-14.638324737548828,17.761474609375,2282.696791410446
D4:22:CD:00:49:AA,-129.99656677246094,-70.09273529052734,41.0880126953125,10.13807487487793,-1.2351574897766113,3.5835886001586914,2282.696791410446
D4:22:CD:00:05:6E,119.39176177978516,-63.2768669128418,26.995269775390625,-2.0043845176696777,-2.382600784301758,3.396134376525879,2282.696791410446
D4:22:CD:00:05:5E,-154.1405487060547,-78.39510345458984,-16.220375061035156,-0.8314163684844971,0.7489831447601318,0.40749168395996094,2282.696791410446
D4:22:CD:00:05:5D,-166.7707977294922,-63.13715744018555,-134.71319580078125,-1.6503231525421143,2.335082530975342,0.8230314254760742,2282.725790977478
D4:22:CD:00:05:6B,-46.8886833190918,35.826454162597656,-58.18404006958008,1.6769280433654785,-14.612239837646484,10.099393844604492,2282.725790977478
D4:22:CD:00:49:AA,-170.4044189453125,-74.77400207519531,80.89292907714844,2.778944492340088,2.5950498580932617,3.0577878952026367,2282.725790977478
D4:22:CD:00:05:6E,110.08990478515625,-57.86904525756836,42.3209228515625,-0.8986274003982544,-1.7016305923461914,-3.1518921852111816,2282.725790977478
D4:22:CD:00:05:5E,-153.29537963867188,-76.87788391113281,-19.719470977783203,-0.14013361930847168,1.627882957458496,-3.624326229095459,2282.725790977478
D4:22:CD:00:05:5D,-170.22169494628906,-62.930721282958984,-130.7684783935547,-0.319328248500824,1.8055729866027832,1.137650489807129,2282.786333799362
D4:22:CD:00:05:6B,-31.895307540893555,35.668052673339844,-42.13139343261719,-4.746167182922363,-14.251235961914062,4.464836120605469,2282.786333799362
D4:22:CD:00:49:AA,170.29412841796875,-75.28622436523438,100.0823974609375,-3.0394182205200195,2.5444588661193848,4.236764907836914,2282.786333799362
D4:22:CD:00:05:6E,103.80364990234375,-57.9947395324707,55.09241485595703,-1.5043375492095947,-2.2948265075683594,-5.5789079666137695,2282.786333799362
D4:22:CD:00:05:5E,-143.4534149169922,-78.04905700683594,-33.41060256958008,0.3820664882659912,1.9875068664550781,-4.842822074890137,2282.786333799362
D4:22:CD:00:05:5D,-172.6428680419922,-63.877105712890625,-127.71540069580078,0.44486719369888306,1.6630558967590332,1.3138046264648438,2282.8163347244263
D4:22:CD:00:05:6B,-19.630325317382812,34.593746185302734,-31.181955337524414,-9.198186874389648,-11.380250930786133,-4.070889472961426,2282.8163347244263
D4:22:CD:00:49:AA,171.13201904296875,-76.56863403320312,100.74852752685547,-4.017825126647949,2.557145595550537,2.877621650695801,2282.8163347244263
D4:22:CD:00:05:6E,96.56966400146484,-61.84580612182617,69.14051055908203,-2.0012950897216797,-3.7770180702209473,-4.883237838745117,2282.8163347244263
D4:22:CD:00:05:5E,-108.81184387207031,-80.88611602783203,-68.86500549316406,0.3471924066543579,2.446920871734619,-4.381918907165527,2282.8163347244263
D4:22:CD:00:05:5D,-174.73556518554688,-65.78450012207031,-124.97615051269531,0.6006320714950562,1.3252298831939697,0.9184675216674805,2282.84588599205
D4:22:CD:00:05:6B,-10.837945938110352,34.27305603027344,-25.420143127441406,-10.153209686279297,-7.668395042419434,-8.026559829711914,2282.84588599205
D4:22:CD:00:49:AA,-177.95777893066406,-78.01468658447266,93.12418365478516,-1.6041772365570068,2.108903408050537,0.66143798828125,2282.84588599205
D4:22:CD:00:05:6E,83.55241394042969,-67.44181823730469,88.17002868652344,-3.0737099647521973,-4.7517194747924805,-3.915365695953369,2282.84588599205
D4:22:CD:00:05:5E,-48.22715759277344,-78.15686798095703,-126.52678680419922,-3.4635419845581055,-0.6356456279754639,-6.3954315185546875,2282.84588599205
D4:22:CD:00:05:5D,-176.20944213867188,-68.28111267089844,-122.63864135742188,-1.1397578716278076,1.078143835067749,0.3453493118286133,2282.876155614853
D4:22:CD:00:05:6B,-3.379242420196533,35.98173141479492,-24.161357879638672,-7.215641975402832,-3.827014923095703,-11.446342468261719,2282.876155614853
D4:22:CD:00:49:AA,-165.2600555419922,-78.95785522460938,84.01421356201172,0.585106372833252,1.7392332553863525,-1.4444427490234375,2282.876155614853
D4:22:CD:00:05:6E,61.39508819580078,-72.70369720458984,115.10796356201172,-2.803257942199707,-4.746561050415039,-4.597630500793457,2282.876155614853
D4:22:CD:00:05:5E,-20.094125747680664,-70.2567367553711,-151.7268829345703,-7.983099937438965,-3.1719741821289062,-7.672967910766602,2282.876155614853
D4:22:CD:00:05:5D,-176.9114990234375,-71.0448226928711,-121.57102966308594,-2.549971103668213,1.4101226329803467,0.07294750213623047,2282.9065165519714
D4:22:CD:00:05:6B,2.9114089012145996,39.4835205078125,-27.06644630432129,-3.4048638343811035,0.4888882637023926,-12.718194961547852,2282.9065165519714
D4:22:CD:00:49:AA,-156.0569610595703,-79.6753158569336,77.85547637939453,1.1655383110046387,1.3529314994812012,-3.2595415115356445,2282.9065165519714
D4:22:CD:00:05:6E,30.015689849853516,-75.42269134521484,150.86553955078125,-2.32771635055542,-6.656365394592285,-3.770158290863037,2282.9065165519714
D4:22:CD:00:05:5E,-14.316472053527832,-63.44683074951172,-161.8489990234375,-11.074443817138672,-6.949406623840332,-8.150236129760742,2282.9065165519714
D4:22:CD:00:05:5D,-177.3972930908203,-74.04034423828125,-122.00465393066406,-1.5337185859680176,-0.13480332493782043,-0.5341167449951172,2282.936532020569
D4:22:CD:00:05:6B,6.980045318603516,43.645416259765625,-33.60074996948242,-2.098905563354492,0.5378667116165161,-11.372434616088867,2282.936532020569
D4:22:CD:00:49:AA,-149.21359252929688,-80.48704528808594,73.22320556640625,0.22249731421470642,1.096282958984375,-4.054697036743164,2282.936532020569
D4:22:CD:00:05:6E,2.2520084381103516,-75.24177551269531,-177.91665649414062,-2.245205879211426,-10.289239883422852,-4.260002136230469,2282.936532020569
D4:22:CD:00:05:5E,-19.695037841796875,-60.04071807861328,-167.80870056152344,-18.696735382080078,-6.829615592956543,-11.327459335327148,2282.936532020569
D4:22:CD:00:05:5D,-177.1000213623047,-77.17243957519531,-123.27885437011719,-1.3710360527038574,0.3230767846107483,-0.07537841796875,2282.9660704135895
D4:22:CD:00:05:6B,8.653275489807129,47.347129821777344,-43.909786224365234,0.02536022663116455,4.276527404785156,-11.944604873657227,2282.9660704135895
D4:22:CD:00:49:AA,-142.07830810546875,-81.57725524902344,67.81478881835938,-1.494307279586792,0.3435538411140442,-4.066596031188965,2282.9660704135895
D4:22:CD:00:05:6E,-18.35871124267578,-74.95384979248047,-156.69505310058594,-0.8674125671386719,-9.660507202148438,-6.89317512512207,2282.9660704135895
D4:22:CD:00:05:5E,-30.360410690307617,-61.77214813232422,-167.3243865966797,-28.7811279296875,4.357248306274414,-14.620462417602539,2282.9660704135895
D4:22:CD:00:05:5D,-176.0639190673828,-80.72982025146484,-126.11279296875,-0.9494054317474365,1.352884292602539,0.905487060546875,2282.9960696697235
D4:22:CD:00:05:6B,0.31543630361557007,48.627784729003906,-57.75590133666992,10.399682998657227,12.453094482421875,-10.244993209838867,2282.9960696697235
D4:22:CD:00:49:AA,-133.7986297607422,-82.63531494140625,60.91917419433594,-1.468862533569336,-0.05050509423017502,-4.605466842651367,2282.9960696697235
D4:22:CD:00:05:6E,-35.69261932373047,-74.89334106445312,-139.5043182373047,0.4642181992530823,-6.895389556884766,-5.083257675170898,2282.9960696697235
D4:22:CD:00:05:5E,-37.84967803955078,-68.543212890625,-164.32611083984375,-10.719688415527344,-14.76585578918457,-5.950351715087891,2282.9960696697235
D4:22:CD:00:05:5D,-178.2403564453125,-83.90497589111328,-125.40060424804688,3.2790169715881348,-5.0087080001831055,-5.037840843200684,2283.0558478832245
D4:22:CD:00:05:6B,-24.947446823120117,45.39307403564453,-74.59938049316406,2.491779327392578,1.524320363998413,-17.909866333007812,2283.0558478832245
D4:22:CD:00:49:AA,-128.0382537841797,-83.35272979736328,55.773414611816406,-0.6787991523742676,-1.3162624835968018,-3.6797518730163574,2283.0558478832245
D4:22:CD:00:05:6E,-47.696720123291016,-73.74740600585938,-125.39895629882812,0.8257839679718018,-6.347869873046875,-3.10994815826416,2283.0558478832245
D4:22:CD:00:05:5E,-32.94135665893555,-74.33104705810547,-168.61489868164062,0.3101959228515625,-6.156414031982422,1.3643312454223633,2283.0558478832245
D4:22:CD:00:05:5D,165.92776489257812,-84.4183349609375,-109.05303955078125,-2.087442398071289,-3.451171875,0.26908016204833984,2283.0859208106995
D4:22:CD:00:05:6B,-45.49210739135742,36.85824966430664,-90.8860855102539,-10.636100769042969,-14.86223030090332,-15.10549545288086,2283.0859208106995
D4:22:CD:00:49:AA,-125.9504623413086,-84.19566345214844,52.63093566894531,0.4450254440307617,-0.2601543068885803,4.41190242767334,2283.0859208106995
D4:22:CD:00:05:6E,-53.20426559448242,-71.00769805908203,-115.11188507080078,0.556064248085022,-8.065601348876953,-0.32173919677734375,2283.0859208106995
D4:22:CD:00:05:5E,-24.9825439453125,-79.75957489013672,-176.32208251953125,-1.2879524230957031,-4.913057327270508,1.8114604949951172,2283.0859208106995
D4:22:CD:00:05:5D,150.82225036621094,-83.69398498535156,-94.65593719482422,-0.6324964761734009,1.8418376445770264,0.7461452484130859,2283.115920305252
D4:22:CD:00:05:6B,-44.753963470458984,25.25723648071289,-101.95974731445312,-1.410862684249878,-4.497425079345703,-5.966331481933594,2283.115920305252
D4:22:CD:00:49:AA,-120.95785522460938,-85.82908630371094,44.61784744262695,0.5016522407531738,-2.2638750076293945,1.6846389770507812,2283.115920305252
D4:22:CD:00:05:6E,-54.80150604248047,-68.57865905761719,-108.19644927978516,2.223902702331543,-10.702741622924805,0.09104537963867188,2283.115920305252
D4:22:CD:00:05:5E,-20.64708137512207,-85.0300064086914,176.97808837890625,1.2950425148010254,0.9069168567657471,5.231967926025391,2283.115920305252
D4:22:CD:00:05:5D,133.92503356933594,-82.73104858398438,-78.46871948242188,0.7396177053451538,0.12715718150138855,-0.30480480194091797,2283.146464586258
D4:22:CD:00:05:6B,-43.7706298828125,21.33074188232422,-102.52006530761719,6.551717758178711,1.164794683456421,-5.235906600952148,2283.146464586258
D4:22:CD:00:49:AA,-117.2680892944336,-86.26897430419922,39.07915496826172,-2.004077434539795,-2.2897915840148926,-2.965534210205078,2283.146464586258
D4:22:CD:00:05:6E,-56.190677642822266,-68.66471099853516,-103.55209350585938,4.076277732849121,-8.14790153503418,0.06836891174316406,2283.146464586258
D4:22:CD:00:05:5E,76.6454086303711,-89.37568664550781,77.66693878173828,-0.7081133127212524,2.7539405822753906,3.7181644439697266,2283.146464586258
D4:22:CD:00:05:5D,121.22345733642578,-80.96076202392578,-66.24673461914062,-0.8524219989776611,-0.6856350898742676,0.3475074768066406,2283.176465034485
D4:22:CD:00:05:6B,-39.12030792236328,24.068593978881836,-95.10397338867188,-8.9306640625,-9.848114013671875,9.619802474975586,2283.176465034485
D4:22:CD:00:49:AA,-119.2584228515625,-86.25383758544922,39.84489059448242,-1.153244972229004,-1.9728374481201172,0.0665884017944336,2283.176465034485
D4:22:CD:00:05:6E,-61.04047775268555,-70.03479766845703,-98.41804504394531,4.578150749206543,-8.338178634643555,1.9915962219238281,2283.176465034485
D4:22:CD:00:05:5E,141.60191345214844,-85.47126007080078,10.93895149230957,-4.837728500366211,-0.6501245498657227,-1.4552688598632812,2283.176465034485
D4:22:CD:00:05:5D,112.81507110595703,-78.65115356445312,-59.436004638671875,0.11741983890533447,-1.317920207977295,1.3117799758911133,2283.2064645290375
D4:22:CD:00:05:6B,-25.399065017700195,28.614885330200195,-82.63218688964844,-2.3061985969543457,-9.22291374206543,-4.71370792388916,2283.2064645290375
D4:22:CD:00:49:AA,-128.13511657714844,-85.74329376220703,46.91875457763672,2.365072250366211,-1.6096413135528564,-0.27281761169433594,2283.2064645290375
D4:22:CD:00:05:6E,-68.84740447998047,-71.5985107421875,-94.54254913330078,2.1592750549316406,-5.8788042068481445,2.177396774291992,2283.2064645290375
D4:22:CD:00:05:5E,137.1199493408203,-82.24723815917969,14.927812576293945,-1.693446159362793,1.444542407989502,2.3477907180786133,2283.2064645290375
D4:22:CD:00:05:5D,109.26873016357422,-76.01006317138672,-57.94652557373047,-1.2970962524414062,-3.253530979156494,4.147238731384277,2283.236475944519
D4:22:CD:00:05:6B,-16.070249557495117,30.565765380859375,-65.57392120361328,-7.469954490661621,-8.202341079711914,2.560344696044922,2283.236475944519
D4:22:CD:00:49:AA,-140.63710021972656,-84.30099487304688,57.52730941772461,3.614866256713867,0.398074746131897,-2.2217884063720703,2283.236475944519
D4:22:CD:00:05:6E,-75.84968566894531,-72.78009796142578,-92.54872131347656,1.69405198097229,1.3798813819885254,0.674957275390625,2283.236475944519
D4:22:CD:00:05:5E,134.35072326660156,-79.62599182128906,17.505573272705078,-1.9241087436676025,1.248084306716919,0.7898530960083008,2283.236475944519
D4:22:CD:00:05:5D,108.59657287597656,-73.4097900390625,-60.05720520019531,0.08302165567874908,-5.508235931396484,4.813286781311035,2283.2662518024445
D4:22:CD:00:05:6B,-1.7795711755752563,28.6550235748291,-49.0369758605957,-7.494863510131836,-3.205350399017334,-1.3485393524169922,2283.2662518024445
D4:22:CD:00:49:AA,-150.9797821044922,-82.95539093017578,66.63286590576172,2.5177788734436035,1.023841381072998,0.3346128463745117,2283.2662518024445
D4:22:CD:00:05:6E,-77.3158950805664,-73.55516815185547,-93.5199203491211,0.7549763917922974,0.8485453128814697,-0.8772897720336914,2283.2662518024445
D4:22:CD:00:05:5E,132.63623046875,-77.79727935791016,18.776145935058594,-2.2493338584899902,-0.0850091278553009,0.3679475784301758,2283.2662518024445
D4:22:CD:00:05:5D,113.98739624023438,-69.73798370361328,-67.71060943603516,12.687255859375,10.380075454711914,6.377309799194336,2283.2962510585785
D4:22:CD:00:05:6B,15.710627555847168,24.190404891967773,-32.91317367553711,4.643071174621582,3.6795148849487305,-5.23398494720459,2283.2962510585785
D4:22:CD:00:49:AA,-155.72732543945312,-81.75059509277344,71.46951293945312,0.1400482952594757,0.22228944301605225,4.472614288330078,2283.2962510585785
D4:22:CD:00:05:6E,-74.51347351074219,-74.46698760986328,-97.3476791381836,-4.4068603515625,-2.424297332763672,1.8170232772827148,2283.2962510585785
D4:22:CD:00:05:5E,131.593505859375,-77.20960998535156,19.354583740234375,-2.1914072036743164,-0.05860532075166702,0.2913484573364258,2283.2962510585785
D4:22:CD:00:05:5D,127.33712005615234,-62.06161880493164,-81.98001098632812,18.870769500732422,11.07984733581543,6.868265151977539,2283.3557987213135
D4:22:CD:00:05:6B,24.03694725036621,18.312074661254883,-16.932069778442383,9.91456413269043,15.356952667236328,-1.0100431442260742,2283.3557987213135
D4:22:CD:00:49:AA,-154.9579315185547,-81.80106353759766,72.5638656616211,1.8282220363616943,0.5544064044952393,2.5191917419433594,2283.3557987213135
D4:22:CD:00:05:6E,-70.3992691040039,-75.73688507080078,-102.21006774902344,-5.373871803283691,-2.431333065032959,2.65908145904541,2283.3557987213135
D4:22:CD:00:05:5E,131.30165100097656,-77.13267517089844,18.988712310791016,-1.5153093338012695,0.6387039422988892,-0.26557254791259766,2283.3557987213135
D4:22:CD:00:05:5D,138.3567657470703,-52.53270721435547,-95.8302230834961,9.765851974487305,4.889355659484863,2.624988555908203,2283.385797023773
D4:22:CD:00:05:6B,22.479381561279297,12.213533401489258,-2.2327256202697754,1.0879426002502441,14.899227142333984,-0.802668571472168,2283.385797023773
D4:22:CD:00:49:AA,-154.00636291503906,-82.44680786132812,73.57250213623047,5.412137985229492,2.266509532928467,1.1453895568847656,2283.385797023773
D4:22:CD:00:05:6E,-64.2922134399414,-77.23407745361328,-107.43807220458984,-3.781484603881836,-1.175971508026123,0.44958972930908203,2283.385797023773
D4:22:CD:00:05:5E,130.85775756835938,-77.0356674194336,19.047624588012695,-0.8786071538925171,1.4165279865264893,-0.06951618194580078,2283.385797023773
D4:22:CD:00:05:5D,142.88638305664062,-42.8175163269043,-106.8011703491211,1.287057638168335,-0.32286661863327026,-4.241512298583984,2283.4157960414886
D4:22:CD:00:05:6B,13.425049781799316,6.542893409729004,10.055120468139648,-4.439604759216309,14.050893783569336,-6.421712875366211,2283.4157960414886
D4:22:CD:00:49:AA,-156.31182861328125,-82.75345611572266,76.82562255859375,3.8795251846313477,2.1295604705810547,0.025277137756347656,2283.4157960414886
D4:22:CD:00:05:6E,-55.23546600341797,-78.9024658203125,-113.24510955810547,-3.688483238220215,-1.6472969055175781,-1.067397117614746,2283.4157960414886
D4:22:CD:00:05:5E,130.51768493652344,-76.69920349121094,19.355270385742188,-0.7127653360366821,0.9472362995147705,-0.22955036163330078,2283.4157960414886
D4:22:CD:00:05:5D,145.51792907714844,-33.90819549560547,-114.44633483886719,-2.500344753265381,-0.3384609818458557,-9.063695907592773,2283.4463455677032
D4:22:CD:00:05:6B,-1.4047954082489014,1.4025688171386719,18.60623550415039,-4.944578170776367,7.228269577026367,-11.368021011352539,2283.4463455677032
D4:22:CD:00:49:AA,-160.09327697753906,-83.01809692382812,80.95928192138672,1.205068826675415,0.6636247634887695,-1.6165781021118164,2283.4463455677032
D4:22:CD:00:05:6E,-44.660736083984375,-80.48058319091797,-119.87071990966797,-3.2274680137634277,-1.6383075714111328,-2.6629152297973633,2283.4463455677032
D4:22:CD:00:05:5E,132.2205352783203,-76.17210388183594,18.08063507080078,-1.354527235031128,-0.09544840455055237,-0.8467559814453125,2283.4463455677032
D4:22:CD:00:05:5D,148.81752014160156,-26.578977584838867,-120.21134185791016,-0.3603862524032593,-0.10805882513523102,-11.013639450073242,2283.476344347
D4:22:CD:00:05:6B,-15.09029769897461,-2.2259953022003174,23.30289649963379,0.8425798416137695,-6.4206743240356445,-8.009475708007812,2283.476344347
D4:22:CD:00:49:AA,-162.21270751953125,-82.98295593261719,83.56529235839844,0.9281612634658813,0.23985040187835693,-1.0672941207885742,2283.476344347
D4:22:CD:00:05:6E,-34.10528564453125,-81.62468719482422,-127.18383026123047,-1.4119961261749268,-2.000826835632324,-3.477659225463867,2283.476344347
D4:22:CD:00:05:5E,136.9557647705078,-75.38237762451172,14.028446197509766,-1.0808355808258057,-0.16725271940231323,-0.5897445678710938,2283.476344347
D4:22:CD:00:05:5D,153.57620239257812,-21.172916412353516,-125.16944885253906,-1.2616527080535889,-0.1897622048854828,-9.530866622924805,2283.5063445568085
D4:22:CD:00:05:6B,-22.726133346557617,-5.06623649597168,25.02436637878418,-1.830841064453125,-4.145855903625488,-6.729138374328613,2283.5063445568085
D4:22:CD:00:49:AA,-163.79884338378906,-83.19403839111328,86.13587188720703,2.568216323852539,0.48779362440109253,-1.0309524536132812,2283.5063445568085
D4:22:CD:00:05:6E,-23.456703186035156,-82.26447296142578,-135.3953094482422,0.14981931447982788,-2.2637062072753906,-3.4607577323913574,2283.5063445568085
D4:22:CD:00:05:5E,143.03805541992188,-74.26341247558594,8.579139709472656,-2.3438472747802734,-0.2886661887168884,-0.7116928100585938,2283.5063445568085
D4:22:CD:00:05:5D,157.80648803710938,-18.622900009155273,-129.3453369140625,-2.360102653503418,-1.3611736297607422,-8.616851806640625,2283.5363597869873
D4:22:CD:00:05:6B,-30.102338790893555,-9.553901672363281,24.372650146484375,-2.9252257347106934,-2.3993606567382812,-9.53173828125,2283.5363597869873
D4:22:CD:00:49:AA,-167.25889587402344,-83.5225601196289,90.1841812133789,3.6762499809265137,1.0981166362762451,-3.126598834991455,2283.5363597869873
D4:22:CD:00:05:6E,-12.792886734008789,-82.44617462158203,-143.9477081298828,0.6398206949234009,-2.926797866821289,-2.730656623840332,2283.5363597869873
D4:22:CD:00:05:5E,149.42098999023438,-72.97315216064453,2.285243034362793,-1.8333003520965576,-0.7130080461502075,-0.3867177963256836,2283.5363597869873
D4:22:CD:00:05:5D,160.98190307617188,-19.471832275390625,-133.07275390625,-5.843701362609863,-3.0623865127563477,-7.773906707763672,2283.5658898353577
D4:22:CD:00:05:6B,-39.01430892944336,-18.026548385620117,23.6175594329834,1.3150501251220703,-2.0597147941589355,-9.786581039428711,2283.5658898353577
D4:22:CD:00:49:AA,-174.87600708007812,-83.68128204345703,97.53914642333984,3.6171398162841797,0.9725281000137329,-1.8798117637634277,2283.5658898353577
D4:22:CD:00:05:6E,-4.069314956665039,-82.27008056640625,-150.54566955566406,1.9672398567199707,-3.1863503456115723,-1.0231361389160156,2283.5658898353577
D4:22:CD:00:05:5E,154.87448120117188,-71.55147552490234,-3.0856659412384033,-1.5805027484893799,0.09457693994045258,0.04759979248046875,2283.5658898353577
D4:22:CD:00:05:5D,161.62892150878906,-23.447492599487305,-136.05845642089844,-11.096012115478516,-4.478791236877441,-5.546355247497559,2283.5958828926086
D4:22:CD:00:05:6B,-50.14304733276367,-31.797607421875,23.854598999023438,9.009737014770508,-2.1411819458007812,-3.3194870948791504,2283.5958828926086
D4:22:CD:00:49:AA,176.6852264404297,-83.70783233642578,104.20975494384766,4.673192977905273,-0.3151100277900696,-0.7717485427856445,2283.5958828926086
D4:22:CD:00:05:6E,3.8134264945983887,-81.53754425048828,-155.0564422607422,4.348520278930664,-4.9116010665893555,0.714808464050293,2283.5958828926086
D4:22:CD:00:05:5E,158.46685791015625,-70.21664428710938,-6.270025730133057,-2.0531272888183594,1.0330407619476318,0.2682676315307617,2283.5958828926086
D4:22:CD:00:05:5D,162.0413818359375,-28.495458602905273,-137.21481323242188,-9.126720428466797,0.42697542905807495,18.80197525024414,2283.6564116477966
D4:22:CD:00:05:6B,-57.578121185302734,-51.403846740722656,22.705488204956055,21.720523834228516,8.687036514282227,40.71900939941406,2283.6564116477966
D4:22:CD:00:49:AA,173.8173828125,-83.5035171508789,104.15446472167969,1.7769100666046143,-1.3655436038970947,-1.579880714416504,2283.6564116477966
D4:22:CD:00:05:6E,13.556845664978027,-79.8855209350586,-163.4163360595703,6.564074516296387,-11.775409698486328,5.075228691101074,2283.6564116477966
D4:22:CD:00:05:5E,159.80198669433594,-69.34109497070312,-7.1051836013793945,-1.9061639308929443,0.752754807472229,0.8053979873657227,2283.6564116477966
D4:22:CD:00:05:5D,163.358642578125,-27.868669509887695,-135.9588623046875,-9.906190872192383,-4.453222274780273,12.398536682128906,2283.6864099502563
D4:22:CD:00:05:6B,-29.506319046020508,-65.00221252441406,2.9989326000213623,16.503955841064453,10.052572250366211,37.46147918701172,2283.6864099502563
D4:22:CD:00:49:AA,169.90191650390625,-82.7818603515625,106.83428192138672,-8.16273307800293,-0.2106126844882965,1.7764778137207031,2283.6864099502563
D4:22:CD:00:05:6E,35.41604232788086,-75.5415267944336,173.2040252685547,5.838743209838867,-9.310049057006836,12.480182647705078,2283.6864099502563
D4:22:CD:00:05:5E,159.1145477294922,-68.93933868408203,-5.951158046722412,-1.859156847000122,1.5331323146820068,0.9287900924682617,2283.6864099502563
D4:22:CD:00:05:5D,162.88095092773438,-25.425579071044922,-134.12408447265625,-11.163009643554688,-4.640325546264648,7.728038787841797,2283.7164120674133
D4:22:CD:00:05:6B,-31.18511390686035,-63.20610809326172,4.6929192543029785,13.165182113647461,29.40502166748047,-1.750406265258789,2283.7164120674133
D4:22:CD:00:49:AA,164.1493377685547,-82.61536407470703,112.92683410644531,-3.7057833671569824,-3.0842113494873047,3.529879570007324,2283.7164120674133
D4:22:CD:00:05:6E,49.7640495300293,-65.55559539794922,147.50204467773438,2.8871593475341797,-16.382427215576172,23.258880615234375,2283.7164120674133
D4:22:CD:00:05:5E,156.6325225830078,-69.21977233886719,-3.0261776447296143,-2.485379695892334,0.9289335012435913,1.0001726150512695,2283.7164120674133
D4:22:CD:00:05:5D,161.3070068359375,-20.132272720336914,-133.3391571044922,-11.061416625976562,-7.708130836486816,11.71021842956543,2283.745953798294
D4:22:CD:00:05:6B,-51.618255615234375,-51.108463287353516,14.787734031677246,11.40751838684082,-2.6423287391662598,24.84786605834961,2283.745953798294
D4:22:CD:00:49:AA,167.397705078125,-82.20999145507812,111.41542053222656,4.0074052810668945,1.723884105682373,5.026364326477051,2283.745953798294
D4:22:CD:00:05:6E,45.735076904296875,-49.705108642578125,132.5298309326172,6.171431541442871,-0.9693076610565186,25.441986083984375,2283.745953798294
D4:22:CD:00:05:5E,153.03639221191406,-70.32144165039062,0.8493635654449463,-2.8281002044677734,0.22841870784759521,1.0794620513916016,2283.745953798294
D4:22:CD:00:05:5D,158.63436889648438,-13.710905075073242,-133.51841735839844,-12.101940155029297,-5.144722938537598,9.305126190185547,2283.7769548892975
D4:22:CD:00:05:6B,-48.0002326965332,-39.9627571105957,13.37898063659668,15.051315307617188,5.3436737060546875,0.02798748016357422,2283.7769548892975
D4:22:CD:00:49:AA,169.08895874023438,-81.35455322265625,111.12469482421875,5.010119438171387,3.1252846717834473,4.099196434020996,2283.7769548892975
D4:22:CD:00:05:6E,38.31465530395508,-31.445566177368164,124.640380859375,-4.11784553527832,-4.381250381469727,16.275917053222656,2283.7769548892975
D4:22:CD:00:05:5E,147.99610900878906,-72.23029327392578,5.463709354400635,-2.6235299110412598,0.355005145072937,1.7386884689331055,2283.7769548892975
D4:22:CD:00:05:5D,156.05288696289062,-7.584320068359375,-133.5609588623047,-6.702807426452637,-3.3384337425231934,-0.45087337493896484,2283.805954694748
D4:22:CD:00:05:6B,-52.95182418823242,-31.980857849121094,11.297179222106934,5.878297805786133,-2.6014699935913086,-6.712368965148926,2283.805954694748
D4:22:CD:00:49:AA,165.31326293945312,-81.24229431152344,114.57808685302734,1.6971383094787598,0.8117817640304565,5.038722038269043,2283.805954694748
D4:22:CD:00:05:6E,27.75922203063965,-14.448101043701172,117.73445892333984,-2.5669283866882324,4.322381019592285,3.8073501586914062,2283.805954694748
D4:22:CD:00:05:5E,139.71653747558594,-74.50505828857422,13.59619426727295,-1.2275505065917969,-0.14159142971038818,3.6558284759521484,2283.805954694748
D4:22:CD:00:05:5D,155.2030792236328,-3.9485361576080322,-133.218017578125,-5.190649032592773,1.260972023010254,-7.2336883544921875,2283.8359611034393
D4:22:CD:00:05:6B,-58.89350509643555,-29.21134376525879,8.30794620513916,-3.013458728790283,-6.927898406982422,-4.00531005859375,2283.8359611034393
D4:22:CD:00:49:AA,162.98825073242188,-81.20672607421875,116.18025207519531,2.4343361854553223,0.3767228126525879,4.252996444702148,2283.8359611034393
D4:22:CD:00:05:6E,16.505035400390625,-0.1669505536556244,112.28968048095703,0.33684802055358887,1.7659225463867188,-2.5388317108154297,2283.8359611034393
D4:22:CD:00:05:5E,127.60222625732422,-76.1862564086914,27.89580726623535,1.2734622955322266,1.9929068088531494,4.105609893798828,2283.8359611034393
D4:22:CD:00:05:5D,154.54701232910156,-3.98006534576416,-132.3536376953125,-3.0253639221191406,3.266049385070801,-12.600555419921875,2283.8665041923523
D4:22:CD:00:05:6B,-60.00724792480469,-31.71712875366211,4.776117324829102,-3.8689446449279785,-1.8777308464050293,-7.624963760375977,2283.8665041923523
D4:22:CD:00:49:AA,160.99952697753906,-81.58797454833984,117.80904388427734,2.501328945159912,1.2168591022491455,1.1510639190673828,2283.8665041923523
D4:22:CD:00:05:6E,6.007505893707275,10.810192108154297,108.65117645263672,-1.0293049812316895,-2.354339122772217,-4.967352867126465,2283.8665041923523
D4:22:CD:00:05:5E,115.14271545410156,-77.35015869140625,42.810550689697266,0.2028743326663971,1.9575624465942383,-0.2662630081176758,2283.8665041923523
D4:22:CD:00:05:5D,153.4894256591797,-8.181312561035156,-131.1512451171875,-3.8262839317321777,3.635995388031006,-16.526264190673828,2283.8965034484863
D4:22:CD:00:05:6B,-62.56663131713867,-37.444618225097656,1.8234859704971313,-2.209505558013916,0.13346880674362183,-7.529295921325684,2283.8965034484863
D4:22:CD:00:49:AA,158.249755859375,-82.04814147949219,119.97431945800781,1.708364486694336,0.5689513683319092,-0.9707231521606445,2283.8965034484863
D4:22:CD:00:05:6E,-4.621798038482666,18.530744552612305,106.05682373046875,-4.48936653137207,-7.591493606567383,-6.965998649597168,2283.8965034484863
D4:22:CD:00:05:5E,100.9377670288086,-78.30877685546875,58.27512741088867,-1.6974689960479736,-0.655951976776123,-1.592698097229004,2283.8965034484863
D4:22:CD:00:05:5D,151.36959838867188,-16.28864288330078,-129.381103515625,-4.840909957885742,2.1166625022888184,-14.702728271484375,2283.9560494422913
D4:22:CD:00:05:6B,-68.8273696899414,-44.96297836303711,-0.18638506531715393,-2.3639278411865234,-0.06560158729553223,-4.313140869140625,2283.9560494422913
D4:22:CD:00:49:AA,157.06971740722656,-82.38990783691406,120.5580825805664,1.131047248840332,-0.4897937774658203,-1.501230239868164,2283.9560494422913
D4:22:CD:00:05:6E,-14.471933364868164,23.851436614990234,106.6737060546875,2.3975234031677246,-3.281970977783203,-5.655411720275879,2283.9560494422913
D4:22:CD:00:05:5E,85.22572326660156,-78.82291412353516,74.71324157714844,-3.0000929832458496,-1.9556005001068115,-2.7749667167663574,2283.9560494422913
D4:22:CD:00:05:5D,146.99423217773438,-27.382516860961914,-126.86767578125,-3.7226009368896484,-0.10178041458129883,-10.080299377441406,2283.9860424995422
D4:22:CD:00:05:6B,-73.59403228759766,-53.83623123168945,-1.6960785388946533,-4.041208267211914,1.2703042030334473,-2.873218059539795,2283.9860424995422
D4:22:CD:00:49:AA,156.54637145996094,-82.81378936767578,121.07035064697266,1.1022849082946777,-0.07690711319446564,-2.7524490356445312,2283.9860424995422
D4:22:CD:00:05:6E,-15.761143684387207,28.483394622802734,110.37507629394531,-3.9160985946655273,-2.4568848609924316,-8.356884002685547,2283.9860424995422
D4:22:CD:00:05:5E,71.05014038085938,-78.63798522949219,90.61206817626953,-3.495992660522461,-0.2745519280433655,-4.499151229858398,2283.9860424995422
D4:22:CD:00:05:5D,141.47569274902344,-40.34084701538086,-122.84989929199219,-1.4952929019927979,-2.9929895401000977,-5.006866455078125,2284.0161340236664
D4:22:CD:00:05:6B,-78.88878631591797,-63.10021209716797,-1.9961930513381958,-0.13629353046417236,3.1221351623535156,-4.158631324768066,2284.0161340236664
D4:22:CD:00:49:AA,153.10911560058594,-83.16889953613281,124.08253479003906,1.6660594940185547,0.4230559468269348,-4.63630485534668,2284.0161340236664
D4:22:CD:00:05:6E,-14.756885528564453,32.927978515625,117.97469329833984,-2.234799385070801,1.585944652557373,-7.431597709655762,2284.0161340236664
D4:22:CD:00:05:5E,61.495731353759766,-78.57650756835938,101.86750793457031,-3.237309455871582,-0.5151180028915405,-4.950794219970703,2284.0161340236664
D4:22:CD:00:05:5D,132.63429260253906,-56.5177001953125,-115.07949829101562,-1.7385516166687012,-7.081317901611328,2.234556198120117,2284.046684741974
D4:22:CD:00:05:6B,-91.06402587890625,-71.35667419433594,0.8318368196487427,-3.212268829345703,2.97660493850708,-1.783966064453125,2284.046684741974
D4:22:CD:00:49:AA,149.5373077392578,-83.40641021728516,127.07070922851562,1.0655789375305176,-0.33860892057418823,-4.613297462463379,2284.046684741974
D4:22:CD:00:05:6E,-5.498523235321045,36.44644546508789,129.50827026367188,-3.4972567558288574,4.1072845458984375,-12.734228134155273,2284.046684741974
D4:22:CD:00:05:5E,55.817298889160156,-79.30889129638672,107.36656951904297,-1.2866246700286865,-0.5887572765350342,-2.265963077545166,2284.046684741974
D4:22:CD:00:05:5D,112.8037338256836,-72.93575286865234,-95.20001983642578,8.108999252319336,-5.0978240966796875,14.702535629272461,2284.07568359375
D4:22:CD:00:05:6B,-107.95698547363281,-78.89949035644531,11.003584861755371,-4.163121223449707,3.7298130989074707,-2.770404815673828,2284.07568359375
D4:22:CD:00:49:AA,144.3601531982422,-83.87382507324219,132.28575134277344,-0.03108668327331543,-1.1101582050323486,-5.516667366027832,2284.07568359375
D4:22:CD:00:05:6E,13.667060852050781,37.476463317871094,144.5611572265625,-14.354864120483398,7.595816612243652,-19.973751068115234,2284.07568359375
D4:22:CD:00:05:5E,52.236602783203125,-80.9684066772461,109.35955047607422,0.32327932119369507,0.18886759877204895,-0.6044416427612305,2284.07568359375
D4:22:CD:00:05:5D,63.960350036621094,-80.42443084716797,-41.747528076171875,15.035686492919922,8.794315338134766,12.694618225097656,2284.1066839694977
D4:22:CD:00:05:6B,-151.23080444335938,-83.8807373046875,50.14630126953125,-2.419707775115967,4.249147415161133,-3.616426467895508,2284.1066839694977
D4:22:CD:00:49:AA,142.21119689941406,-84.4246597290039,135.5497283935547,0.5076555013656616,-2.5305428504943848,-6.476609230041504,2284.1066839694977
D4:22:CD:00:05:6E,40.94233703613281,36.665565490722656,156.0166778564453,-9.651357650756836,0.18239393830299377,-20.748031616210938,2284.1066839694977
D4:22:CD:00:05:5E,47.68901824951172,-83.24273681640625,112.08259582519531,-0.6775522232055664,-0.07198692858219147,1.9691400527954102,2284.1066839694977
D4:22:CD:00:05:5D,45.62172317504883,-80.28150939941406,-16.31089210510254,16.960803985595703,10.375049591064453,-10.4293212890625,2284.135698080063
D4:22:CD:00:05:6B,150.50990295410156,-81.63975524902344,104.32416534423828,-1.6679582595825195,4.80214786529541,-1.4996223449707031,2284.135698080063
D4:22:CD:00:49:AA,148.20867919921875,-84.12710571289062,130.7147216796875,3.5894813537597656,-2.1908044815063477,0.05124378204345703,2284.135698080063
D4:22:CD:00:05:6E,72.59353637695312,40.62837219238281,155.0933837890625,9.242076873779297,-3.8278770446777344,-8.297273635864258,2284.135698080063
D4:22:CD:00:05:5E,35.27182388305664,-85.60185241699219,123.90623474121094,-0.9780707359313965,-3.172668933868408,3.2276973724365234,2284.135698080063
D4:22:CD:00:05:5D,81.0821304321289,-80.59003448486328,-43.57577896118164,2.4403328895568848,2.8590312004089355,-2.3195462226867676,2284.166226863861
D4:22:CD:00:05:6B,129.97454833984375,-76.41099548339844,119.90410614013672,-3.424405097961426,5.458064079284668,2.95119571685791,2284.166226863861
D4:22:CD:00:49:AA,152.11441040039062,-83.4758071899414,125.60323333740234,2.800783157348633,-0.5790458917617798,1.2746362686157227,2284.166226863861
D4:22:CD:00:05:6E,82.9548568725586,44.627777099609375,147.5363311767578,-3.773245334625244,-5.7433319091796875,2.9624481201171875,2284.166226863861
D4:22:CD:00:05:5E,-3.807807445526123,-87.51793670654297,163.1622314453125,0.7735874652862549,-3.385213851928711,4.314601898193359,2284.166226863861
D4:22:CD:00:05:5D,112.5118637084961,-79.49649810791016,-71.02641296386719,-3.4649710655212402,-10.354768753051758,3.46929931640625,2284.196227788925
D4:22:CD:00:05:6B,123.85896301269531,-72.6524429321289,121.3008804321289,-4.240815162658691,7.7700700759887695,4.8738813400268555,2284.196227788925
D4:22:CD:00:49:AA,157.80726623535156,-82.80860137939453,119.06546783447266,0.6136738061904907,-2.29681396484375,0.42473316192626953,2284.196227788925
D4:22:CD:00:05:6E,77.0115737915039,47.835968017578125,128.98280334472656,-7.422201156616211,-2.2141823768615723,-15.192174911499023,2284.196227788925
D4:22:CD:00:05:5E,-72.81114196777344,-87.09916687011719,-126.44342803955078,-2.357754707336426,-7.335227966308594,4.206602096557617,2284.196227788925
D4:22:CD:00:05:5D,132.70521545410156,-76.92864990234375,-87.7367935180664,1.0833163261413574,-1.013838291168213,3.5843868255615234,2284.255776166916
D4:22:CD:00:05:6B,128.2191162109375,-72.2335205078125,117.02425384521484,-5.077207565307617,9.828100204467773,4.056824684143066,2284.255776166916
D4:22:CD:00:49:AA,167.64590454101562,-81.22635650634766,109.9146728515625,-0.7124658823013306,-2.528534412384033,1.6983156204223633,2284.255776166916
D4:22:CD:00:05:6E,69.34371185302734,46.62334060668945,106.40999603271484,-11.979349136352539,1.8413450717926025,-8.770191192626953,2284.255776166916
D4:22:CD:00:05:5E,-100.3348617553711,-85.59851837158203,-96.08051300048828,-13.015707015991211,-8.158697128295898,-1.453394889831543,2284.255776166916
D4:22:CD:00:05:5D,145.38528442382812,-74.41507720947266,-98.45904541015625,0.41794776916503906,-0.29989802837371826,4.311220169067383,2284.285777568817
D4:22:CD:00:05:6B,146.7085418701172,-74.71131134033203,106.9552001953125,-3.6521992683410645,5.233965873718262,5.092720985412598,2284.285777568817
D4:22:CD:00:49:AA,175.59640502929688,-79.9141845703125,103.85934448242188,-6.028714179992676,-0.9551794528961182,2.9593124389648438,2284.285777568817
D4:22:CD:00:05:6E,58.85503005981445,40.50437545776367,86.51114654541016,-9.904096603393555,0.9592453241348267,-7.062413215637207,2284.285777568817
D4:22:CD:00:05:5E,-140.77098083496094,-81.63568878173828,-53.66713333129883,-21.822742462158203,-0.9617178440093994,3.857996940612793,2284.285777568817
D4:22:CD:00:05:5D,154.5896453857422,-73.03649139404297,-104.42887115478516,-0.8054829835891724,3.17830753326416,0.7035322189331055,2284.3157773017883
D4:22:CD:00:05:6B,179.96002197265625,-77.1104507446289,84.43638610839844,0.7996256351470947,-0.17003324627876282,2.0797977447509766,2284.3157773017883
D4:22:CD:00:49:AA,-178.4518585205078,-79.01576232910156,100.73212432861328,-6.299293518066406,2.222179412841797,-1.7705364227294922,2284.3157773017883
D4:22:CD:00:05:6E,51.283485412597656,31.62342071533203,70.78324127197266,4.088255882263184,-1.6007225513458252,-8.129142761230469,2284.3157773017883
D4:22:CD:00:05:5E,-161.6370086669922,-73.92327117919922,-32.134334564208984,-10.970956802368164,-2.006075382232666,1.4433088302612305,2284.3157773017883
D4:22:CD:00:05:5D,162.8024444580078,-71.6214370727539,-107.97286987304688,-0.9146033525466919,-2.271735191345215,2.4382619857788086,2284.3463196754456
D4:22:CD:00:05:6B,-148.0087127685547,-75.84577941894531,59.22020721435547,2.0202531814575195,-0.20626580715179443,-0.7039604187011719,2284.3463196754456
D4:22:CD:00:49:AA,-174.42774963378906,-76.9742202758789,98.30096435546875,0.20533597469329834,2.7221717834472656,0.9106512069702148,2284.3463196754456
D4:22:CD:00:05:6E,51.87952423095703,23.2818660736084,58.261112213134766,7.577425003051758,-4.237778663635254,-3.9113645553588867,2284.3463196754456
D4:22:CD:00:05:5E,-169.34461975097656,-65.96051025390625,-21.534128189086914,-4.522665977478027,-0.26692450046539307,-1.6837272644042969,2284.3463196754456
D4:22:CD:00:05:5D,168.3182830810547,-70.39860534667969,-112.29627227783203,1.4983234405517578,0.5193873643875122,0.502619743347168,2284.376319885254
D4:22:CD:00:05:6B,-134.5038299560547,-73.43669128417969,47.7073860168457,-0.6202826499938965,-2.1612162590026855,-1.744339942932129,2284.376319885254
D4:22:CD:00:49:AA,-173.84658813476562,-75.92644500732422,97.37725830078125,2.43021821975708,1.464876651763916,4.335694313049316,2284.376319885254
D4:22:CD:00:05:6E,58.56303405761719,16.618791580200195,48.40645980834961,7.493564605712891,-4.930379867553711,0.29412841796875,2284.376319885254
D4:22:CD:00:05:5E,-172.687744140625,-59.07985305786133,-13.427051544189453,-1.0835013389587402,1.2212543487548828,-6.551913261413574,2284.376319885254
D4:22:CD:00:05:5D,172.48806762695312,-69.86956787109375,-114.77326965332031,2.4540839195251465,-0.5255240201950073,0.6172504425048828,2284.406320333481
D4:22:CD:00:05:6B,-130.6954803466797,-72.79924011230469,44.607261657714844,-2.252309799194336,-2.5162510871887207,0.46345996856689453,2284.406320333481
D4:22:CD:00:49:AA,-174.50038146972656,-75.71086883544922,97.46692657470703,-2.939037799835205,2.422515869140625,1.0030317306518555,2284.406320333481
D4:22:CD:00:05:6E,69.52373504638672,10.524401664733887,41.647403717041016,7.027727127075195,-9.763189315795898,-3.6575241088867188,2284.406320333481
D4:22:CD:00:05:5E,-176.15420532226562,-53.36345291137695,-5.411840915679932,-1.7758374214172363,0.7931698560714722,-8.497369766235352,2284.406320333481
D4:22:CD:00:05:5D,175.02847290039062,-69.8987045288086,-115.68702697753906,-2.5293188095092773,1.991450309753418,1.4098033905029297,2284.4363338947296
D4:22:CD:00:05:6B,-128.2742919921875,-73.35169982910156,42.930667877197266,-0.04959529638290405,-2.1087589263916016,1.0048637390136719,2284.4363338947296
D4:22:CD:00:49:AA,-173.6875,-75.74150085449219,96.43843078613281,-5.21915340423584,0.950809121131897,1.5581588745117188,2284.4363338947296
D4:22:CD:00:05:6E,81.55601501464844,3.147583484649658,37.17727279663086,-0.14699217677116394,1.0586516857147217,4.576655387878418,2284.4363338947296
D4:22:CD:00:05:5E,-179.35133361816406,-48.864810943603516,3.3908514976501465,1.5836400985717773,2.5633010864257812,-8.276330947875977,2284.4363338947296
D4:22:CD:00:05:5D,177.24769592285156,-70.22085571289062,-117.58143615722656,-1.1183927059173584,1.6454575061798096,0.9281177520751953,2284.46587061882
D4:22:CD:00:05:6B,-127.4256362915039,-73.41594696044922,40.09450912475586,0.14112183451652527,0.287132203578949,0.5985088348388672,2284.46587061882
D4:22:CD:00:49:AA,-173.4459686279297,-76.4067153930664,96.27033996582031,-1.0580437183380127,0.8762596845626831,0.6614809036254883,2284.46587061882
D4:22:CD:00:05:6E,85.83880615234375,-5.758615970611572,31.952590942382812,4.844725608825684,-3.342528820037842,0.8573427200317383,2284.46587061882
D4:22:CD:00:05:5E,179.347900390625,-45.839080810546875,11.51003360748291,3.038886070251465,3.7582039833068848,-7.631379127502441,2284.46587061882
D4:22:CD:00:05:5D,179.74765014648438,-70.98072052001953,-120.75252532958984,-0.47975581884384155,0.82227623462677,0.47810840606689453,2284.4958670139313
D4:22:CD:00:05:6B,-125.72277069091797,-73.78279113769531,35.09685516357422,3.094984531402588,4.494585990905762,0.26850414276123047,2284.4958670139313
D4:22:CD:00:49:AA,-177.77674865722656,-77.36773681640625,100.24345397949219,1.1921286582946777,0.771930456161499,-0.49553394317626953,2284.4958670139313
D4:22:CD:00:05:6E,91.00670623779297,-16.057222366333008,28.168901443481445,6.473854064941406,-3.0844712257385254,-3.325002670288086,2284.4958670139313
D4:22:CD:00:05:5E,177.79515075683594,-44.3847770690918,18.451696395874023,4.171452522277832,3.8796043395996094,-7.549343109130859,2284.4958670139313
D4:22:CD:00:05:5D,-177.4585418701172,-71.80435180664062,-124.40987396240234,-0.04389213025569916,-0.7464933395385742,-0.1981515884399414,2284.556505918503
D4:22:CD:00:05:6B,-122.2967529296875,-74.98153686523438,26.524219512939453,2.1070852279663086,1.8401870727539062,-1.91304349899292,2284.556505918503
D4:22:CD:00:49:AA,173.1997528076172,-78.5549087524414,107.83798217773438,-1.480870008468628,0.5229531526565552,-2.495126247406006,2284.556505918503
D4:22:CD:00:05:6E,96.34772491455078,-28.39946937561035,26.658052444458008,4.895874977111816,1.6325523853302002,2.071499824523926,2284.556505918503
D4:22:CD:00:05:5E,175.518798828125,-45.529632568359375,24.661720275878906,6.824606895446777,5.575199127197266,-6.251804351806641,2284.556505918503
D4:22:CD:00:05:5D,-174.9520263671875,-72.19403839111328,-126.81906127929688,0.9241435527801514,-1.5620989799499512,-0.5514163970947266,2284.5856466293335
D4:22:CD:00:05:6B,-118.1795425415039,-75.70995330810547,15.145136833190918,-2.456000804901123,0.7715533971786499,-2.758395195007324,2284.5856466293335
D4:22:CD:00:49:AA,159.96092224121094,-79.52296447753906,119.35945892333984,-2.512847900390625,0.18135079741477966,-3.664228916168213,2284.5856466293335
D4:22:CD:00:05:6E,97.66111755371094,-42.7568244934082,26.598806381225586,3.2180418968200684,2.4506120681762695,6.839900970458984,2284.5856466293335
D4:22:CD:00:05:5E,174.81600952148438,-50.38045120239258,30.494640350341797,9.875080108642578,8.502429962158203,-4.765682220458984,2284.5856466293335
D4:22:CD:00:05:5D,-174.26705932617188,-71.7632064819336,-127.23577117919922,0.18696099519729614,-2.688701629638672,-1.0728302001953125,2284.6158323287964
D4:22:CD:00:05:6B,-109.27413940429688,-75.83566284179688,1.5868721008300781,-4.365187644958496,1.3424198627471924,-2.374082565307617,2284.6158323287964
D4:22:CD:00:49:AA,148.19288635253906,-79.83047485351562,130.3068084716797,-2.546210289001465,1.1302235126495361,-3.8009285926818848,2284.6158323287964
D4:22:CD:00:05:6E,91.2746353149414,-57.70621871948242,28.623933792114258,1.9418907165527344,0.628902792930603,19.31757354736328,2284.6158323287964
D4:22:CD:00:05:5E,176.27633666992188,-54.6778564453125,33.18891906738281,-13.252294540405273,-1.7628049850463867,33.465919494628906,2284.6158323287964
D4:22:CD:00:05:5D,-175.0130615234375,-70.33820343017578,-125.9421157836914,0.010061882436275482,-1.5781102180480957,-0.8325023651123047,2284.646374464035
D4:22:CD:00:05:6B,-101.2922134399414,-74.87512969970703,-10.53271484375,-3.3747806549072266,0.8611067533493042,-2.0462098121643066,2284.646374464035
D4:22:CD:00:49:AA,140.359130859375,-80.10063934326172,137.74549865722656,-1.7508411407470703,0.9280886650085449,-2.023662567138672,2284.646374464035
D4:22:CD:00:05:6E,69.7863998413086,-67.59056854248047,36.9705696105957,0.00466248020529747,-1.968705654144287,20.556442260742188,2284.646374464035
D4:22:CD:00:05:5E,172.48333740234375,-54.5469856262207,29.2633113861084,11.17446517944336,6.617332458496094,3.590587615966797,2284.646374464035
D4:22:CD:00:05:5D,-177.37924194335938,-68.35113525390625,-123.77338409423828,0.0536024272441864,-0.7206282615661621,-0.6849212646484375,2284.676375389099
D4:22:CD:00:05:6B,-94.97571563720703,-71.88674926757812,-21.333984375,-7.69222354888916,6.504097938537598,5.748690605163574,2284.676375389099
D4:22:CD:00:49:AA,133.23988342285156,-80.58040618896484,144.68370056152344,0.5072983503341675,-0.27753210067749023,-1.7167119979858398,2284.676375389099
D4:22:CD:00:05:6E,54.640811920166016,-67.96353912353516,37.23260498046875,17.744155883789062,-3.8972878456115723,3.44146728515625,2284.676375389099
D4:22:CD:00:05:5E,171.5578155517578,-53.34917068481445,23.454486846923828,12.156272888183594,5.744808197021484,9.637218475341797,2284.676375389099
D4:22:CD:00:05:5D,179.86431884765625,-65.51596069335938,-121.21737670898438,-0.4229367971420288,0.1270809769630432,-0.1896343231201172,2284.7063744068146
D4:22:CD:00:05:6B,-88.66802215576172,-64.70993041992188,-31.91748809814453,-2.2727227210998535,4.502973556518555,8.861833572387695,2284.7063744068146
D4:22:CD:00:49:AA,133.17503356933594,-80.55631256103516,144.72073364257812,-0.6592040061950684,-0.03146301954984665,-1.0539274215698242,2284.7063744068146
D4:22:CD:00:05:6E,65.97637176513672,-61.61659240722656,30.988859176635742,18.716571807861328,0.9837031364440918,6.189775466918945,2284.7063744068146
D4:22:CD:00:05:5E,171.65611267089844,-50.69791030883789,17.867637634277344,11.012228012084961,5.881511688232422,11.676530838012695,2284.7063744068146
D4:22:CD:00:05:5D,178.15863037109375,-62.629817962646484,-119.46883392333984,1.400303602218628,-0.6906346082687378,-0.04866790771484375,2284.736483812332
D4:22:CD:00:05:6B,-89.88819885253906,-52.57448196411133,-38.034969329833984,-11.967779159545898,17.12493896484375,13.018522262573242,2284.736483812332
D4:22:CD:00:49:AA,138.57168579101562,-80.48841094970703,139.83058166503906,-2.174180507659912,-0.24626052379608154,4.240845680236816,2284.736483812332
D4:22:CD:00:05:6E,80.95116424560547,-53.28984832763672,32.34941864013672,2.3116626739501953,10.72706413269043,9.05126953125,2284.736483812332
D4:22:CD:00:05:5E,177.16616821289062,-48.76165771484375,13.133245468139648,6.834785461425781,0.8091833591461182,8.536811828613281,2284.736483812332
D4:22:CD:00:05:5D,177.75860595703125,-60.5655632019043,-118.50139617919922,0.3729119300842285,1.8178021907806396,1.471491813659668,2284.766010284424
D4:22:CD:00:05:6B,-87.64362335205078,-37.91416549682617,-40.412139892578125,1.1107778549194336,17.133514404296875,7.452840805053711,2284.766010284424
D4:22:CD:00:49:AA,144.68292236328125,-79.91328430175781,134.4350128173828,0.036677129566669464,0.7684686183929443,5.692841529846191,2284.766010284424
D4:22:CD:00:05:6E,86.59521484375,-43.13332748413086,37.97911834716797,5.220633506774902,10.248449325561523,8.848617553710938,2284.766010284424
D4:22:CD:00:05:5E,-177.84291076660156,-47.28358459472656,8.694064140319824,5.2386274337768555,3.4885339736938477,3.206409454345703,2284.766010284424
D4:22:CD:00:05:5D,177.72972106933594,-59.71467208862305,-117.79840087890625,0.1395234763622284,1.6264629364013672,1.723928451538086,2284.7961795330048
D4:22:CD:00:05:6B,-85.17288970947266,-19.768217086791992,-40.92396545410156,6.749434471130371,14.688203811645508,7.401700973510742,2284.7961795330048
D4:22:CD:00:49:AA,150.4974822998047,-78.9314956665039,128.60418701171875,-0.8613406419754028,0.8866112232208252,5.96027946472168,2284.7961795330048
D4:22:CD:00:05:6E,92.95603942871094,-32.43839645385742,47.0450439453125,3.79811429977417,9.966438293457031,1.6911144256591797,2284.7961795330048
D4:22:CD:00:05:5E,-175.26756286621094,-47.0100212097168,4.477491855621338,2.7640299797058105,2.6399269104003906,-2.6227927207946777,2284.7961795330048
D4:22:CD:00:05:5D,177.82362365722656,-60.35491943359375,-116.98835754394531,0.14110350608825684,1.2621121406555176,1.80731201171875,2284.856056213379
D4:22:CD:00:05:6B,-79.67236328125,-1.2694621086120605,-39.92922592163086,10.271720886230469,6.765162467956543,3.277157783508301,2284.856056213379
D4:22:CD:00:49:AA,154.9748992919922,-78.24836730957031,123.99580383300781,-3.2538857460021973,1.0714423656463623,5.077579498291016,2284.856056213379
D4:22:CD:00:05:6E,99.37220001220703,-25.190582275390625,57.819000244140625,-3.3139901161193848,3.047534942626953,1.4076433181762695,2284.856056213379
D4:22:CD:00:05:5E,-173.21258544921875,-48.82012939453125,0.0013949122512713075,1.6309902667999268,3.505073070526123,-7.06270694732666,2284.856056213379
