Device,EulerX,EulerY,EulerZ,FreeAccX,FreeAccY,FreeAccZ,Timestamp
D4:22:CD:00:05:5D,170.20509338378906,-74.88279724121094,-96.28166198730469,1.256486415863037,-1.6544122695922852,-0.7133655548095703,1477.3085095882416
D4:22:CD:00:05:6B,-11.396404266357422,30.716901779174805,-118.5186996459961,-4.954570770263672,-6.626922607421875,-12.539680480957031,1477.3085095882416
D4:22:CD:00:49:AA,140.93707275390625,-73.26150512695312,147.44171142578125,-2.1619014739990234,-0.8934581279754639,-1.574911117553711,1477.3085095882416
D4:22:CD:00:05:6E,-30.54984474182129,-45.498008728027344,-114.92608642578125,0.1015876829624176,-11.153139114379883,-9.44287109375,1477.3085095882416
D4:22:CD:00:05:5E,-102.17418670654297,-59.2835693359375,-120.15467071533203,-18.030963897705078,-5.922243118286133,-8.733907699584961,1477.3085095882416
D4:22:CD:00:05:5D,164.76963806152344,-73.05047607421875,-90.90219116210938,2.322071075439453,1.0673739910125732,-0.19258975982666016,1477.3220329284668
D4:22:CD:00:05:6B,-13.90497875213623,26.090988159179688,-139.4212646484375,-26.27750015258789,-18.102359771728516,-17.88957977294922,1477.3220329284668
D4:22:CD:00:49:AA,136.89407348632812,-74.22687530517578,148.33680725097656,-4.562684059143066,-1.3944437503814697,0.9933061599731445,1477.3220329284668
D4:22:CD:00:05:6E,-32.224082946777344,-41.92658233642578,-112.00433349609375,0.400798499584198,-11.784215927124023,-10.910066604614258,1477.3220329284668
D4:22:CD:00:05:5E,-105.47003173828125,-60.4345817565918,-113.17045593261719,4.264371871948242,-13.91718864440918,-1.6800403594970703,1477.3220329284668
D4:22:CD:00:05:6B,-32.11697769165039,27.39655876159668,-142.7996368408203,26.911991119384766,10.30919075012207,-19.356693267822266,1477.3341760635376
D4:22:CD:00:49:AA,135.15023803710938,-74.73091125488281,148.38241577148438,-8.231252670288086,-1.260436773300171,2.2315292358398438,1477.3341760635376
D4:22:CD:00:05:6E,-37.978450775146484,-40.29789733886719,-108.80702209472656,0.34210097789764404,-12.665515899658203,-12.788103103637695,1477.3341760635376
D4:22:CD:00:05:5E,-104.85072326660156,-62.54285430908203,-109.46855163574219,-1.7652943134307861,1.1367683410644531,14.576591491699219,1477.3341760635376
D4:22:CD:00:05:5D,168.34228515625,-49.21426773071289,-108.80577850341797,3.0045533180236816,-1.7269494533538818,0.5001411437988281,1477.3412375450134
D4:22:CD:00:05:6E,-47.616432189941406,-41.964599609375,-105.83509063720703,-2.1036877632141113,-13.437934875488281,-3.5395421981811523,1477.3412375450134
D4:22:CD:00:05:5E,-116.645263671875,-61.83682632446289,-101.49567413330078,-5.270517349243164,-3.6503801345825195,-1.3382015228271484,1477.3412375450134
D4:22:CD:00:05:5D,178.9694061279297,-57.59899139404297,-114.20890808105469,0.5352743864059448,-0.45792078971862793,0.830963134765625,1477.3461740016937
D4:22:CD:00:05:6B,-59.25450134277344,-7.244649410247803,-62.736297607421875,8.032295227050781,-10.71369743347168,15.791990280151367,1477.3461740016937
D4:22:CD:00:49:AA,158.2007293701172,-79.340576171875,126.53897857666016,-0.5927433967590332,2.347494125366211,1.000779151916504,1477.3461740016937
D4:22:CD:00:05:5D,-179.70843505859375,-60.72538375854492,-114.74686431884766,0.5097250938415527,-0.40230876207351685,0.5322484970092773,1477.3771758079529
D4:22:CD:00:05:6B,-37.646636962890625,-1.6458929777145386,-61.7544059753418,10.083139419555664,-14.341676712036133,8.386106491088867,1477.3771758079529
D4:22:CD:00:49:AA,136.1788330078125,-83.78388214111328,148.8768310546875,-2.0787601470947266,0.8938990831375122,0.14905357360839844,1477.3771758079529
D4:22:CD:00:05:6E,100.91205596923828,-56.5229377746582,32.54255294799805,-2.6787571907043457,-0.9844909906387329,-2.890056610107422,1477.3771758079529
D4:22:CD:00:05:5E,-90.82437896728516,-51.52117156982422,-93.62740325927734,0.10683764517307281,-0.5875486135482788,-4.1288042068481445,1477.3771758079529
D4:22:CD:00:05:5D,-177.9930419921875,-64.14283752441406,-115.50853729248047,-0.3857683539390564,-0.6457481384277344,-0.013863563537597656,1477.4066598415375
D4:22:CD:00:05:6B,-14.808656692504883,2.910841226577759,-61.38502883911133,7.024807929992676,-12.975929260253906,3.5505027770996094,1477.4066598415375
D4:22:CD:00:49:AA,118.46585845947266,-86.92285919189453,167.1072998046875,-2.2389659881591797,-0.4837515354156494,-0.6234560012817383,1477.4066598415375
D4:22:CD:00:05:6E,102.44244384765625,-53.51437759399414,34.4320182800293,-2.184746742248535,-0.7862515449523926,-5.413875579833984,1477.4066598415375
D4:22:CD:00:05:5E,-83.94937896728516,-48.688209533691406,-104.36122131347656,-0.5730471611022949,-1.9009044170379639,-7.39823055267334,1477.4066598415375
D4:22:CD:00:05:5D,-176.5950469970703,-67.420166015625,-116.50460052490234,-1.0360736846923828,-0.8207875490188599,-0.4140605926513672,1477.4666600227356
D4:22:CD:00:05:6B,3.533158779144287,6.851343631744385,-60.465518951416016,-7.637359619140625,-4.50477409362793,-9.87303352355957,1477.4666600227356
D4:22:CD:00:49:AA,84.03608703613281,-89.40718841552734,-157.36090087890625,-1.5203824043273926,-0.218835711479187,-3.3270630836486816,1477.4666600227356
D4:22:CD:00:05:6E,105.97376251220703,-53.056602478027344,37.94465255737305,-2.7635645866394043,-0.9109538793563843,-6.476940155029297,1477.4666600227356
D4:22:CD:00:05:5E,-75.84305572509766,-46.746768951416016,-116.94149780273438,-1.4509530067443848,-3.418692111968994,-7.593697547912598,1477.4666600227356
D4:22:CD:00:05:5D,-176.1985626220703,-70.21531677246094,-116.94987487792969,-0.27985137701034546,-2.02616024017334,-0.9507007598876953,1477.496276140213
D4:22:CD:00:05:6B,15.03164005279541,10.828985214233398,-60.53163146972656,-10.613367080688477,2.5266499519348145,-13.815498352050781,1477.496276140213
D4:22:CD:00:49:AA,-64.40035247802734,-88.40186309814453,-7.336894512176514,0.6218472719192505,0.743577241897583,-4.894024848937988,1477.496276140213
D4:22:CD:00:05:6E,110.85811614990234,-56.408077239990234,39.83388900756836,-1.9325191974639893,-1.0354766845703125,-6.284252166748047,1477.496276140213
D4:22:CD:00:05:5E,-67.07524108886719,-45.11482238769531,-130.33680725097656,-7.183375358581543,-4.378436088562012,-7.505490303039551,1477.496276140213
D4:22:CD:00:05:5D,-177.5271453857422,-72.13489532470703,-115.82532501220703,-0.9711772203445435,-2.2413086891174316,-1.0894050598144531,1477.5265743732452
D4:22:CD:00:05:6B,18.74513816833496,15.93301773071289,-61.750205993652344,-6.095879554748535,1.0251812934875488,-12.500354766845703,1477.5265743732452
D4:22:CD:00:49:AA,-80.1064453125,-87.34657287597656,9.794440269470215,1.7358860969543457,0.9292159080505371,-3.655978202819824,1477.5265743732452
D4:22:CD:00:05:6E,117.43819427490234,-62.43600845336914,39.962223052978516,-0.7729318141937256,-1.0730860233306885,-5.854204177856445,1477.5265743732452
D4:22:CD:00:05:5E,-64.68690490722656,-44.963340759277344,-141.70077514648438,-14.330205917358398,-5.782415390014648,-12.787382125854492,1477.5265743732452
D4:22:CD:00:05:5D,178.5125274658203,-72.8929672241211,-112.58689880371094,-0.7684167623519897,-2.7610063552856445,-1.159245491027832,1477.5571291446686
D4:22:CD:00:05:6B,19.028911590576172,21.441633224487305,-63.45437240600586,-6.994147300720215,-3.3772220611572266,-11.411748886108398,1477.5571291446686
D4:22:CD:00:49:AA,-90.11739349365234,-87.43067169189453,20.411357879638672,1.288329839706421,-0.004725733771920204,-2.263908863067627,1477.5571291446686
D4:22:CD:00:05:6E,128.90989685058594,-70.67053985595703,36.35704803466797,-0.7057274580001831,-1.9848673343658447,-3.3788318634033203,1477.5571291446686
D4:22:CD:00:05:5E,-70.7573013305664,-47.677085876464844,-149.4647216796875,-22.459671020507812,-1.4436020851135254,-12.92355728149414,1477.5571291446686
D4:22:CD:00:05:5D,172.5846710205078,-72.12629699707031,-107.32044219970703,0.20305705070495605,-3.8419947624206543,-1.6271133422851562,1477.5867743492126
D4:22:CD:00:05:6B,22.454219818115234,27.06076431274414,-68.03385925292969,-4.1253767013549805,3.007138252258301,-12.188041687011719,1477.5867743492126
D4:22:CD:00:49:AA,-100.0990982055664,-88.17115783691406,29.510160446166992,0.5602126121520996,-2.1439528465270996,-1.5442438125610352,1477.5867743492126
D4:22:CD:00:05:6E,156.34765625,-79.76407623291016,17.103708267211914,-0.18853583931922913,-5.400199890136719,0.2104349136352539,1477.5867743492126
D4:22:CD:00:05:5E,-84.30772399902344,-52.98426055908203,-149.18585205078125,-19.330062866210938,13.688817977905273,-13.60127067565918,1477.5867743492126
D4:22:CD:00:05:5D,167.19122314453125,-69.7970962524414,-101.38726043701172,0.2846454977989197,-2.184216022491455,-0.8023147583007812,1477.6167764663696
D4:22:CD:00:05:6B,25.236177444458008,31.615320205688477,-77.20362091064453,2.6988344192504883,9.430879592895508,-7.91265869140625,1477.6167764663696
D4:22:CD:00:49:AA,-109.07347106933594,-88.53955078125,36.1440315246582,-0.36728113889694214,-2.249054431915283,-1.0208282470703125,1477.6167764663696
D4:22:CD:00:05:6E,-121.65479278564453,-81.98883819580078,-57.8824462890625,0.854823112487793,-8.480669021606445,3.395766258239746,1477.6167764663696
D4:22:CD:00:05:5E,-104.00537872314453,-57.76539611816406,-134.86851501464844,-18.778568267822266,4.388145446777344,-6.526700019836426,1477.6167764663696
D4:22:CD:00:05:5D,162.29444885253906,-66.87089538574219,-96.23587036132812,-0.3272189497947693,1.266984462738037,0.1718597412109375,1477.646780014038
D4:22:CD:00:05:6B,21.29994773864746,34.225860595703125,-91.82849884033203,4.3557939529418945,6.446525573730469,-7.700061798095703,1477.646780014038
D4:22:CD:00:49:AA,-94.92926025390625,-88.43627166748047,19.420211791992188,-0.7733263969421387,-1.2612886428833008,-1.9017634391784668,1477.646780014038
D4:22:CD:00:05:6E,-83.92313385009766,-73.07899475097656,-88.83509063720703,1.1984643936157227,-10.991800308227539,3.5048141479492188,1477.646780014038
D4:22:CD:00:05:5E,-121.32306671142578,-62.530723571777344,-115.89178466796875,0.9115251302719116,-17.359539031982422,1.172379493713379,1477.646780014038
D4:22:CD:00:05:5D,157.5228729248047,-64.87565612792969,-91.17994689941406,-1.8793179988861084,3.5704941749572754,2.049881935119629,1477.6767976284027
D4:22:CD:00:05:6B,11.406388282775879,33.755123138427734,-112.14080810546875,-6.79713249206543,-8.766813278198242,-17.2574462890625,1477.6767976284027
D4:22:CD:00:49:AA,-80.5501480102539,-87.91653442382812,2.902327299118042,-2.3084678649902344,-1.6428179740905762,2.7928037643432617,1477.6767976284027
D4:22:CD:00:05:6E,-74.71417999267578,-65.53150939941406,-93.05413055419922,4.630819320678711,-22.108936309814453,-1.3250770568847656,1477.6767976284027
D4:22:CD:00:05:5E,-138.5401611328125,-64.5902328491211,-97.82978057861328,1.5948326587677002,-5.229326248168945,9.565103530883789,1477.6767976284027
D4:22:CD:00:05:5D,151.50865173339844,-64.35456085205078,-85.24495697021484,-1.2695355415344238,1.9601545333862305,2.573185920715332,1477.706928730011
D4:22:CD:00:05:6B,9.86696720123291,32.290748596191406,-132.2974853515625,-14.91917610168457,-2.1277518272399902,-15.478370666503906,1477.706928730011
D4:22:CD:00:49:AA,-78.69450378417969,-87.23713684082031,-1.9688812494277954,1.0109636783599854,-2.940375804901123,6.503225326538086,1477.706928730011
D4:22:CD:00:05:6E,-79.41301727294922,-66.2037353515625,-92.25198364257812,0.16843655705451965,-17.008289337158203,-1.3638315200805664,1477.706928730011
D4:22:CD:00:05:5E,-156.73329162597656,-63.37959289550781,-83.97052764892578,0.5339332818984985,1.5919907093048096,1.3432998657226562,1477.706928730011
D4:22:CD:00:05:5D,144.0851593017578,-64.97773742675781,-77.56077575683594,1.5072894096374512,1.5349586009979248,3.3407440185546875,1477.7676725387573
D4:22:CD:00:05:6B,10.51683521270752,31.657636642456055,-134.83389282226562,22.133281707763672,-8.025339126586914,1.0448036193847656,1477.7676725387573
D4:22:CD:00:49:AA,-94.18325805664062,-86.37799072265625,9.660957336425781,1.8894052505493164,-4.460236549377441,3.369783401489258,1477.7676725387573
D4:22:CD:00:05:6E,-102.16946411132812,-71.06256866455078,-82.00499725341797,-0.7863956689834595,-9.458425521850586,0.9900302886962891,1477.7676725387573
D4:22:CD:00:05:5E,-169.65269470214844,-63.43926239013672,-72.42134857177734,0.6003243923187256,0.1278785765171051,2.574896812438965,1477.7676725387573
D4:22:CD:00:05:5D,134.7225799560547,-66.51453399658203,-69.33192443847656,4.994720458984375,-1.3119306564331055,4.344988822937012,1477.7972102165222
D4:22:CD:00:05:6B,-1.6484785079956055,31.422306060791016,-124.231201171875,-7.351398468017578,10.62564468383789,-7.208368301391602,1477.7972102165222
D4:22:CD:00:49:AA,-96.10970306396484,-85.16778564453125,8.679619789123535,1.5494837760925293,-1.7574052810668945,1.4860010147094727,1477.7972102165222
D4:22:CD:00:05:6E,-131.01931762695312,-75.73804473876953,-62.571075439453125,5.103139877319336,-1.6820018291473389,2.3689680099487305,1477.7972102165222
D4:22:CD:00:05:5E,-179.94627380371094,-63.83711242675781,-62.38481903076172,-0.7250959873199463,-1.201582670211792,0.8647747039794922,1477.7972102165222
D4:22:CD:00:05:5D,118.24658966064453,-70.31373596191406,-60.35179138183594,4.29817008972168,0.6619213819503784,0.42235851287841797,1477.8272151947021
D4:22:CD:00:05:6B,0.48235756158828735,30.913898468017578,-110.35911560058594,-13.62834358215332,0.8313207626342773,-9.25540542602539,1477.8272151947021
D4:22:CD:00:49:AA,-94.64273834228516,-84.53922271728516,5.531790733337402,4.910767555236816,-1.547980546951294,-0.09553050994873047,1477.8272151947021
D4:22:CD:00:05:6E,-154.88543701171875,-77.9928207397461,-43.778602600097656,4.671472549438477,-1.8278343677520752,-1.2774419784545898,1477.8272151947021
D4:22:CD:00:05:5E,171.32528686523438,-64.2701187133789,-54.43658447265625,-2.8137617111206055,-1.5385043621063232,-0.26387882232666016,1477.8272151947021
D4:22:CD:00:05:5D,111.49854278564453,-70.91053771972656,-64.02063751220703,13.840450286865234,13.989246368408203,1.3660268783569336,1477.8564143180847
D4:22:CD:00:05:6B,3.0084424018859863,25.769678115844727,-94.71852111816406,-10.65264892578125,1.5746502876281738,-8.767290115356445,1477.8564143180847
D4:22:CD:00:49:AA,-102.4838638305664,-84.35124969482422,12.852787017822266,4.046171188354492,-3.0791168212890625,0.2655143737792969,1477.8564143180847
D4:22:CD:00:05:6E,-177.88690185546875,-79.61904907226562,-25.30929946899414,1.2805657386779785,-0.4571080803871155,-0.05283069610595703,1477.8564143180847
D4:22:CD:00:05:5E,163.6835174560547,-64.84048461914062,-47.648826599121094,0.6285198926925659,-0.9149017333984375,0.3910350799560547,1477.8564143180847
D4:22:CD:00:05:5D,125.17266082763672,-65.24642181396484,-82.44013214111328,19.996891021728516,3.9967613220214844,3.934634208679199,1477.886973142624
D4:22:CD:00:05:6B,6.8210039138793945,16.832717895507812,-82.16616821289062,-8.510038375854492,9.477334976196289,-9.415884017944336,1477.886973142624
D4:22:CD:00:49:AA,-102.44520568847656,-84.25389862060547,13.719285011291504,2.434805393218994,-0.13276860117912292,-1.7616863250732422,1477.886973142624
D4:22:CD:00:05:6E,163.3475799560547,-80.0280990600586,-8.42206859588623,2.3926992416381836,3.1575136184692383,1.5576715469360352,1477.886973142624
D4:22:CD:00:05:5E,157.27969360351562,-65.48568725585938,-41.330867767333984,2.051267623901367,-0.5042543411254883,0.074432373046875,1477.886973142624
D4:22:CD:00:05:5D,141.7319793701172,-55.10072708129883,-98.30765533447266,7.0847015380859375,0.3472486138343811,5.857444763183594,1477.9169645309448
D4:22:CD:00:05:6B,8.799253463745117,4.092669486999512,-71.10803985595703,-1.5548179149627686,9.482603073120117,-15.265233993530273,1477.9169645309448
D4:22:CD:00:49:AA,-108.03992462158203,-84.07424926757812,20.05293083190918,5.3621015548706055,0.5410606861114502,-2.2628822326660156,1477.9169645309448
D4:22:CD:00:05:6E,149.85482788085938,-79.70720672607422,7.686277389526367,-0.7075343132019043,3.819936752319336,0.093475341796875,1477.9169645309448
D4:22:CD:00:05:5E,152.66793823242188,-66.07028198242188,-36.252113342285156,0.6676453351974487,-1.5130276679992676,-0.3069620132446289,1477.9169645309448
D4:22:CD:00:05:5D,148.2297821044922,-45.13554382324219,-109.24436950683594,-2.3514022827148438,-1.2569313049316406,0.7811050415039062,1477.9472608566284
D4:22:CD:00:05:6B,2.866471290588379,-12.006196022033691,-58.179229736328125,4.06132698059082,0.34345436096191406,-15.095945358276367,1477.9472608566284
D4:22:CD:00:49:AA,-123.34381866455078,-83.78997802734375,35.86610794067383,5.7908172607421875,-1.880326747894287,0.18155765533447266,1477.9472608566284
D4:22:CD:00:05:6E,139.94387817382812,-78.3396224975586,20.65336036682129,-2.5367026329040527,2.3012561798095703,-1.6703481674194336,1477.9472608566284
D4:22:CD:00:05:5E,149.40011596679688,-66.39458465576172,-31.95661735534668,0.6761624813079834,-1.3470807075500488,-1.014780044555664,1477.9472608566284
D4:22:CD:00:05:5D,147.9437255859375,-36.065433502197266,-116.62056732177734,-7.540552139282227,-2.4432129859924316,-4.563319206237793,1477.9798319339752
D4:22:CD:00:05:6B,-12.783638954162598,-27.718843460083008,-41.72618103027344,12.476434707641602,0.30709314346313477,-4.848240852355957,1477.9798319339752
D4:22:CD:00:49:AA,-127.1509780883789,-84.1393051147461,40.3510856628418,1.698517084121704,-1.226675271987915,-0.3370323181152344,1477.9798319339752
D4:22:CD:00:05:6E,133.70872497558594,-75.9199447631836,29.116994857788086,-1.9811985492706299,1.3094422817230225,-1.1830577850341797,1477.9798319339752
D4:22:CD:00:05:5E,148.47398376464844,-66.23217010498047,-29.285043716430664,2.0349273681640625,-0.580640435218811,-1.2686939239501953,1477.9798319339752
D4:22:CD:00:05:5D,147.92343139648438,-28.607616424560547,-121.14277648925781,-5.794755935668945,-1.2118918895721436,-10.702203750610352,1478.007405281067
D4:22:CD:00:05:6B,-40.271820068359375,-37.85481262207031,-23.373985290527344,9.45864486694336,4.288821220397949,-8.239782333374023,1478.007405281067
D4:22:CD:00:49:AA,-123.37008666992188,-84.60414123535156,37.01601791381836,0.9995263814926147,-0.5124998092651367,-2.3479747772216797,1478.007405281067
D4:22:CD:00:05:6E,130.12496948242188,-72.97119140625,34.227256774902344,-1.4618258476257324,1.0375940799713135,-1.6061687469482422,1478.007405281067
D4:22:CD:00:05:5E,150.17984008789062,-65.43419647216797,-29.029783248901367,-0.6263266801834106,-4.233180046081543,-1.137129783630371,1478.007405281067
D4:22:CD:00:05:5D,150.31512451171875,-23.66073226928711,-124.40665435791016,-3.2531938552856445,-0.84563148021698,-12.51750373840332,1478.0670976638794
D4:22:CD:00:05:6B,-64.46192932128906,-42.983802795410156,-7.634929656982422,-11.866476058959961,2.309652805328369,11.922101974487305,1478.0670976638794
D4:22:CD:00:49:AA,-121.40948486328125,-85.01776123046875,35.30284118652344,4.113619804382324,-0.2767333388328552,-3.2008867263793945,1478.0670976638794
D4:22:CD:00:05:6E,125.72889709472656,-70.25821685791016,36.613311767578125,-1.0740666389465332,-1.6587495803833008,-0.886570930480957,1478.0670976638794
D4:22:CD:00:05:5E,152.77598571777344,-63.95563888549805,-30.183900833129883,-0.17075684666633606,-1.1275382041931152,-0.5747184753417969,1478.0670976638794
D4:22:CD:00:05:5D,155.7687225341797,-21.855632781982422,-127.07781219482422,-0.2478451132774353,-3.723757743835449,-11.36123275756836,1478.0969982147217
D4:22:CD:00:05:6B,-70.66532135009766,-45.742393493652344,2.5785717964172363,-7.265119552612305,8.42957878112793,0.873417854309082,1478.0969982147217
D4:22:CD:00:49:AA,-123.82685089111328,-85.55829620361328,37.42397689819336,4.271564483642578,-0.6927394866943359,-3.597784996032715,1478.0969982147217
D4:22:CD:00:05:6E,118.49449157714844,-68.30717468261719,37.97273254394531,3.695528984069824,1.1270034313201904,-3.17584228515625,1478.0969982147217
D4:22:CD:00:05:5E,156.39955139160156,-62.3388786315918,-32.73560333251953,-0.9460138082504272,-2.811122417449951,-1.0959815979003906,1478.0969982147217
D4:22:CD:00:05:5D,163.64573669433594,-22.905521392822266,-129.63209533691406,-5.929518699645996,-2.505598545074463,-6.756191253662109,1478.1272945404053
D4:22:CD:00:05:6B,-72.79713439941406,-48.68987274169922,9.820601463317871,-1.6828696727752686,7.120761871337891,-7.889289855957031,1478.1272945404053
D4:22:CD:00:49:AA,-130.81008911132812,-85.8982162475586,43.300453186035156,2.9919333457946777,-0.6320419311523438,-2.8868823051452637,1478.1272945404053
D4:22:CD:00:05:6E,112.00784301757812,-66.86465454101562,40.44795227050781,2.5552735328674316,-1.2455964088439941,-2.512866497039795,1478.1272945404053
D4:22:CD:00:05:5E,159.7505340576172,-60.14546585083008,-36.9089469909668,-1.9991891384124756,-1.1613755226135254,-1.0142393112182617,1478.1272945404053
D4:22:CD:00:05:5D,168.062744140625,-27.455097198486328,-132.64913940429688,-10.041973114013672,-2.3052287101745605,-4.711748123168945,1478.157291173935
D4:22:CD:00:05:6B,-80.39305877685547,-53.62871170043945,17.722679138183594,-0.05914485454559326,4.456082344055176,-7.244576454162598,1478.157291173935
D4:22:CD:00:49:AA,-143.19052124023438,-85.59362030029297,53.89495849609375,3.529186725616455,-1.9422178268432617,-2.973019599914551,1478.157291173935
D4:22:CD:00:05:6E,106.36972045898438,-65.30753326416016,42.787418365478516,1.2937963008880615,-2.645995616912842,-0.5771884918212891,1478.157291173935
D4:22:CD:00:05:5E,162.21141052246094,-58.200103759765625,-40.76767349243164,-0.6567202806472778,-1.3605175018310547,0.5036201477050781,1478.157291173935
D4:22:CD:00:05:5D,166.23611450195312,-27.220083236694336,-132.09844970703125,-9.221181869506836,10.517314910888672,23.504634857177734,1478.186800956726
D4:22:CD:00:05:6B,-95.72515106201172,-63.63211441040039,29.632720947265625,-0.4900979995727539,8.226703643798828,8.277929306030273,1478.186800956726
D4:22:CD:00:49:AA,-151.9851837158203,-85.27337646484375,60.51941680908203,2.869384765625,-1.1172680854797363,-1.3461122512817383,1478.186800956726
D4:22:CD:00:05:6E,102.114501953125,-63.763519287109375,43.45557403564453,-0.08823908865451813,-3.1743712425231934,2.1004018783569336,1478.186800956726
D4:22:CD:00:05:5E,164.12002563476562,-57.03175735473633,-43.447776794433594,1.6495757102966309,-0.31345993280410767,1.5374345779418945,1478.186800956726
D4:22:CD:00:05:5D,165.28382873535156,-26.158456802368164,-131.45855712890625,-7.61381721496582,-8.200695037841797,-5.50910758972168,1478.2170066833496
D4:22:CD:00:05:6B,-128.90797424316406,-78.83432006835938,67.94361114501953,4.639742851257324,19.10224151611328,46.37060546875,1478.2170066833496
D4:22:CD:00:49:AA,-157.42236328125,-85.29139709472656,64.65689849853516,-3.8712501525878906,1.3813650608062744,2.4389448165893555,1478.2170066833496
D4:22:CD:00:05:6E,97.27143096923828,-62.858421325683594,42.78383255004883,0.8501129150390625,-1.8750114440917969,3.7214202880859375,1478.2170066833496
D4:22:CD:00:05:5E,164.23898315429688,-57.37511444091797,-42.418121337890625,2.415032386779785,-0.4817435145378113,2.073823928833008,1478.2170066833496
D4:22:CD:00:05:5D,168.57586669921875,-24.652311325073242,-131.4284210205078,-13.044878005981445,-6.711958885192871,1.9787874221801758,1478.2470066547394
D4:22:CD:00:05:6B,-152.39955139160156,-82.89443969726562,97.14244842529297,11.231840133666992,9.584917068481445,13.176839828491211,1478.2470066547394
D4:22:CD:00:49:AA,-170.99380493164062,-85.11672973632812,78.32775115966797,-3.208634853363037,-3.221160411834717,4.766257286071777,1478.2470066547394
D4:22:CD:00:05:6E,92.2839584350586,-61.87114715576172,43.13121032714844,4.347861289978027,-3.46732759475708,5.445823669433594,1478.2470066547394
D4:22:CD:00:05:5E,162.53616333007812,-59.26704788208008,-37.75958251953125,2.1249332427978516,0.8082907199859619,1.3580608367919922,1478.2470066547394
D4:22:CD:00:05:5D,170.6490478515625,-23.68886947631836,-132.87811279296875,-13.277929306030273,-7.396552085876465,2.9257583618164062,1478.277084827423
D4:22:CD:00:05:6B,-98.84870910644531,-75.24861145019531,36.20867156982422,22.624710083007812,8.300580978393555,11.120176315307617,1478.277084827423
D4:22:CD:00:49:AA,-176.05677795410156,-83.9383544921875,83.8095474243164,5.749571800231934,1.1285183429718018,4.104081153869629,1478.277084827423
D4:22:CD:00:05:6E,86.93033599853516,-58.26251983642578,45.944915771484375,5.626964569091797,-0.553831934928894,7.031379699707031,1478.277084827423
D4:22:CD:00:05:5E,160.48989868164062,-60.878726959228516,-33.591102600097656,0.16406208276748657,-0.3971114158630371,0.9480724334716797,1478.277084827423
D4:22:CD:00:05:5D,167.73239135742188,-22.9216365814209,-135.38372802734375,-12.654640197753906,-2.8349900245666504,5.003684997558594,1478.306723356247
D4:22:CD:00:05:6B,-86.32740020751953,-65.76824951171875,17.086421966552734,2.1934289932250977,-1.3991293907165527,12.709959030151367,1478.306723356247
D4:22:CD:00:49:AA,-179.60557556152344,-81.3576431274414,87.06755828857422,4.237876892089844,-0.3398538827896118,4.774646759033203,1478.306723356247
D4:22:CD:00:05:6E,82.15557861328125,-52.28675079345703,47.74175262451172,8.44660758972168,-0.5205438137054443,11.271526336669922,1478.306723356247
D4:22:CD:00:05:5E,157.81993103027344,-62.88536071777344,-29.39046859741211,-0.8080661296844482,-0.5229002237319946,0.47679615020751953,1478.306723356247
D4:22:CD:00:05:5D,161.58030700683594,-22.598236083984375,-137.46942138671875,-9.311336517333984,-6.124042510986328,-0.5408477783203125,1478.3667132854462
D4:22:CD:00:05:6B,-77.40951538085938,-60.18199920654297,7.2026472091674805,14.931774139404297,-2.514561176300049,0.989985466003418,1478.3667132854462
D4:22:CD:00:49:AA,177.7117156982422,-80.6360092163086,90.09178924560547,3.0336503982543945,0.28824788331985474,4.183383941650391,1478.3667132854462
D4:22:CD:00:05:6E,79.65664672851562,-44.516326904296875,50.97056579589844,12.651611328125,-3.8629865646362305,10.802299499511719,1478.3667132854462
D4:22:CD:00:05:5E,153.97047424316406,-65.417724609375,-24.83066177368164,-0.38218891620635986,-0.24871784448623657,0.9066267013549805,1478.3667132854462
D4:22:CD:00:05:5D,157.59104919433594,-24.17244529724121,-138.58758544921875,-10.257135391235352,-3.8308663368225098,-4.993718147277832,1478.396258354187
D4:22:CD:00:05:6B,-76.94122314453125,-56.2947998046875,-0.7664979696273804,4.203508377075195,-5.377632141113281,0.23778152465820312,1478.396258354187
D4:22:CD:00:49:AA,175.34095764160156,-80.21146392822266,92.05081939697266,3.061941623687744,1.2473459243774414,0.9647417068481445,1478.396258354187
D4:22:CD:00:05:6E,78.36856079101562,-34.68681716918945,56.19026565551758,8.872125625610352,-1.787179946899414,11.155534744262695,1478.396258354187
D4:22:CD:00:05:5E,148.0293731689453,-68.27084350585938,-19.32703399658203,0.031498782336711884,-0.680618166923523,0.534153938293457,1478.396258354187
D4:22:CD:00:05:5D,156.5576629638672,-27.997989654541016,-138.5467071533203,-8.084268569946289,-0.5542792081832886,-4.691384315490723,1478.426617383957
D4:22:CD:00:05:6B,-78.45843505859375,-54.54840850830078,-6.728579998016357,-0.20668411254882812,-3.6406421661376953,-2.2961320877075195,1478.426617383957
D4:22:CD:00:49:AA,171.83119201660156,-79.17036437988281,93.83402252197266,2.7990894317626953,0.45265549421310425,-0.8865566253662109,1478.426617383957
D4:22:CD:00:05:6E,74.49840545654297,-22.46330451965332,62.76909637451172,9.142831802368164,-1.9925615787506104,10.331220626831055,1478.426617383957
D4:22:CD:00:05:5E,141.11619567871094,-70.88383483886719,-13.584966659545898,0.4784402847290039,-1.0206434726715088,-0.6980791091918945,1478.426617383957
D4:22:CD:00:05:5D,156.0648651123047,-34.24107360839844,-137.70352172851562,-5.990212440490723,1.1998274326324463,-5.124192237854004,1478.456651210785
D4:22:CD:00:05:6B,-81.58572387695312,-55.487491607666016,-10.4657564163208,-1.3026013374328613,-1.1673285961151123,-3.74908447265625,1478.456651210785
D4:22:CD:00:49:AA,169.30125427246094,-78.20936584472656,95.06059265136719,0.7846276760101318,0.1582564413547516,-1.3215723037719727,1478.456651210785
D4:22:CD:00:05:6E,70.69524383544922,-7.928251266479492,70.31600189208984,4.827099800109863,2.089053153991699,8.006900787353516,1478.456651210785
D4:22:CD:00:05:5E,135.12353515625,-73.0916976928711,-8.656560897827148,0.7436109781265259,-2.136962413787842,-1.258021354675293,1478.456651210785
D4:22:CD:00:05:5D,153.96571350097656,-42.733646392822266,-136.17259216308594,-4.662849426269531,0.9898037910461426,-5.4639177322387695,1478.4869854450226
D4:22:CD:00:05:6B,-85.70575714111328,-59.145137786865234,-12.910032272338867,-2.5716238021850586,0.14636492729187012,-5.211450576782227,1478.4869854450226
D4:22:CD:00:49:AA,167.7600860595703,-77.87382507324219,96.04007720947266,-0.2192283272743225,-0.14759117364883423,-3.115941047668457,1478.4869854450226
D4:22:CD:00:05:6E,64.45364379882812,7.894969463348389,77.85447692871094,1.3300487995147705,5.015026092529297,0.521026611328125,1478.4869854450226
D4:22:CD:00:05:5E,130.5935516357422,-74.71923065185547,-4.939863204956055,-1.8243966102600098,-3.8338851928710938,-2.766961097717285,1478.4869854450226
D4:22:CD:00:05:5D,149.83917236328125,-52.899208068847656,-133.2437286376953,-3.5978331565856934,-0.44336867332458496,-4.337735176086426,1478.516981601715
D4:22:CD:00:05:6B,-90.35376739501953,-64.98543548583984,-13.457677841186523,-2.5046281814575195,1.3076670169830322,-6.54563045501709,1478.516981601715
D4:22:CD:00:49:AA,166.22064208984375,-78.27191925048828,97.21443939208984,1.2471647262573242,0.15947943925857544,-4.931572914123535,1478.516981601715
D4:22:CD:00:05:6E,60.6109619140625,24.047910690307617,84.16963195800781,1.8850703239440918,3.8966636657714844,-4.184183120727539,1478.516981601715
D4:22:CD:00:05:5E,129.3501739501953,-75.64476776123047,-5.610385417938232,-0.10395196080207825,-3.6464686393737793,-1.1248455047607422,1478.516981601715
D4:22:CD:00:05:5D,143.34353637695312,-64.16382598876953,-126.59368133544922,-1.8258075714111328,-3.7189512252807617,-0.2892313003540039,1478.5469834804535
D4:22:CD:00:05:6B,-98.20854187011719,-72.17591094970703,-9.815797805786133,-1.6083881855010986,2.187350273132324,-6.88179874420166,1478.5469834804535
D4:22:CD:00:49:AA,165.75198364257812,-78.53752899169922,97.24324798583984,2.777083396911621,-0.23253101110458374,-4.940047264099121,1478.5469834804535
D4:22:CD:00:05:6E,67.45953369140625,40.869876861572266,88.1220474243164,-2.63722562789917,2.483368396759033,-0.8345966339111328,1478.5469834804535
D4:22:CD:00:05:5E,133.4842987060547,-76.26152038574219,-10.883919715881348,1.8840763568878174,-2.7021842002868652,-0.9600324630737305,1478.5469834804535
D4:22:CD:00:05:5D,131.63880920410156,-74.84356689453125,-109.37871551513672,3.813492774963379,-4.083332061767578,6.895313262939453,1478.5769991874695
D4:22:CD:00:05:6B,-119.5564956665039,-79.4950942993164,6.903245449066162,-0.7820446491241455,2.2909488677978516,-6.792698860168457,1478.5769991874695
D4:22:CD:00:49:AA,167.00599670410156,-78.43450927734375,95.39403533935547,3.200383186340332,0.23201343417167664,-2.24080753326416,1478.5769991874695
D4:22:CD:00:05:6E,72.3392562866211,54.59047317504883,91.1902084350586,-8.040203094482422,4.387364387512207,-0.7420797348022461,1478.5769991874695
D4:22:CD:00:05:5E,142.43801879882812,-76.07429504394531,-21.256229400634766,-1.539280891418457,-3.689286708831787,-1.4513864517211914,1478.5769991874695
D4:22:CD:00:05:5D,105.84370422363281,-80.11260986328125,-73.67398834228516,13.3431396484375,6.0486297607421875,6.3808135986328125,1478.606544971466
D4:22:CD:00:05:6B,174.34121704101562,-81.94375610351562,67.45448303222656,-2.1210365295410156,2.708423614501953,-5.920163154602051,1478.606544971466
D4:22:CD:00:49:AA,170.06312561035156,-78.58720397949219,91.7313461303711,3.4363484382629395,-1.2372076511383057,0.9014835357666016,1478.606544971466
D4:22:CD:00:05:6E,63.829647064208984,61.34648513793945,94.98260498046875,-8.14450454711914,-1.110912561416626,-3.3433241844177246,1478.606544971466
D4:22:CD:00:05:5E,155.06185913085938,-75.30242919921875,-35.67835998535156,0.8422285318374634,-2.5860342979431152,-0.14625930786132812,1478.606544971466
D4:22:CD:00:05:5D,94.44163513183594,-79.31298065185547,-52.17313003540039,23.20355224609375,12.20931625366211,-5.952816009521484,1478.6668581962585
D4:22:CD:00:05:6B,131.41287231445312,-73.1158676147461,104.78223419189453,-3.2174859046936035,5.017547607421875,-3.227107524871826,1478.6668581962585
D4:22:CD:00:49:AA,174.48348999023438,-79.0058822631836,87.80430603027344,3.177900791168213,-2.8267788887023926,-0.6331930160522461,1478.6668581962585
D4:22:CD:00:05:6E,54.20016860961914,60.60658645629883,105.56448364257812,-1.722689151763916,-3.6925387382507324,-5.956613540649414,1478.6668581962585
D4:22:CD:00:05:5E,169.57293701171875,-74.574951171875,-50.140708923339844,1.7626409530639648,0.4467243552207947,2.482454299926758,1478.6668581962585
D4:22:CD:00:05:5D,115.15213012695312,-77.17168426513672,-66.44391632080078,15.351953506469727,10.106758117675781,-3.4603099822998047,1478.6965417861938
D4:22:CD:00:05:6B,116.78864288330078,-59.926456451416016,112.70477294921875,-2.516411781311035,9.313846588134766,2.9620180130004883,1478.6965417861938
D4:22:CD:00:49:AA,173.66586303710938,-78.93783569335938,88.94601440429688,3.0528903007507324,-3.1948790550231934,1.7161808013916016,1478.6965417861938
D4:22:CD:00:05:6E,48.078521728515625,51.5318489074707,120.03094482421875,1.9690816402435303,-2.3003807067871094,-9.783685684204102,1478.6965417861938
D4:22:CD:00:05:5E,-179.66455078125,-74.2990951538086,-60.987525939941406,0.7998079061508179,0.4463403820991516,3.871405601501465,1478.6965417861938
D4:22:CD:00:05:5D,133.3726348876953,-74.9089584350586,-85.03848266601562,-7.745515823364258,-13.011205673217773,2.840670585632324,1478.7268788814545
D4:22:CD:00:05:6B,104.62423706054688,-46.55624008178711,112.0137939453125,-8.225326538085938,12.251235961914062,7.159488677978516,1478.7268788814545
D4:22:CD:00:49:AA,166.5155487060547,-79.96732330322266,95.56802368164062,-1.0864384174346924,-0.8500303030014038,1.3937816619873047,1478.7268788814545
D4:22:CD:00:05:6E,44.89704513549805,36.805084228515625,131.06443786621094,-13.94281005859375,13.592668533325195,-13.777313232421875,1478.7268788814545
D4:22:CD:00:05:5E,-170.287353515625,-75.52848052978516,-68.99893951416016,1.2552766799926758,-3.548124313354492,5.62005615234375,1478.7268788814545
D4:22:CD:00:05:5D,146.49920654296875,-71.83065032958984,-94.87144470214844,7.246319770812988,-5.223621368408203,-5.648423194885254,1478.75688290596
D4:22:CD:00:05:6B,94.28621673583984,-38.47970962524414,107.56253051757812,2.0567617416381836,26.303768157958984,-5.340648651123047,1478.75688290596
D4:22:CD:00:49:AA,158.357177734375,-80.43191528320312,105.52632141113281,-3.8687353134155273,0.11150658130645752,2.961575508117676,1478.75688290596
D4:22:CD:00:05:6E,40.242801666259766,27.05876922607422,140.87025451660156,-5.696390151977539,6.805703163146973,-12.979410171508789,1478.75688290596
D4:22:CD:00:05:5E,-155.27989196777344,-79.20368194580078,-78.06134033203125,-4.5451555252075195,-1.3577156066894531,-2.57061767578125,1478.75688290596
D4:22:CD:00:05:5D,157.4578857421875,-70.55572509765625,-103.37010955810547,-7.534188270568848,11.398000717163086,3.043950080871582,1478.7865195274353
D4:22:CD:00:05:6B,101.32952117919922,-38.18367004394531,106.18829345703125,-3.7329535484313965,8.891077041625977,-4.004751205444336,1478.7865195274353
D4:22:CD:00:49:AA,150.9060516357422,-79.4478988647461,115.11325073242188,-1.5540518760681152,1.4908435344696045,2.83321475982666,1478.7865195274353
D4:22:CD:00:05:6E,72.94122314453125,34.176025390625,140.40345764160156,10.732328414916992,-7.915579795837402,-11.644210815429688,1478.7865195274353
D4:22:CD:00:05:5E,-142.6453399658203,-79.3818130493164,-82.52506256103516,-19.630512237548828,9.184175491333008,0.6623935699462891,1478.7865195274353
D4:22:CD:00:05:5D,164.33045959472656,-70.55270385742188,-111.61680603027344,2.327145576477051,-2.123854160308838,0.9420032501220703,1478.8178551197052
D4:22:CD:00:05:6B,109.621826171875,-40.9764518737793,104.63462829589844,-1.6756043434143066,9.70260238647461,3.180333137512207,1478.8178551197052
D4:22:CD:00:49:AA,150.9376220703125,-78.77096557617188,118.74264526367188,-0.6928000450134277,0.05859123915433884,-0.1527576446533203,1478.8178551197052
D4:22:CD:00:05:6E,109.14417266845703,45.637027740478516,139.46311950683594,0.45509839057922363,-5.692734718322754,-4.645727157592773,1478.8178551197052
D4:22:CD:00:05:5E,-147.1663818359375,-74.07614135742188,-71.1218490600586,-20.867233276367188,5.49068546295166,6.84370231628418,1478.8178551197052
D4:22:CD:00:05:5D,171.15078735351562,-70.67333221435547,-118.56812286376953,1.312953233718872,-0.15874236822128296,0.3996763229370117,1478.8468523025513
D4:22:CD:00:05:6B,110.19964599609375,-43.042667388916016,104.22050476074219,0.7113800048828125,7.8159284591674805,-1.653402328491211,1478.8468523025513
D4:22:CD:00:49:AA,158.9755096435547,-77.97395324707031,113.93661499023438,-0.19240686297416687,1.5892364978790283,0.10027885437011719,1478.8468523025513
D4:22:CD:00:05:6E,121.97856140136719,57.667903900146484,134.4688262939453,-7.50119686126709,4.7014923095703125,-2.698080062866211,1478.8468523025513
D4:22:CD:00:05:5E,-154.73849487304688,-64.3985595703125,-58.225040435791016,-10.535966873168945,-3.317507266998291,5.30806827545166,1478.8468523025513
D4:22:CD:00:05:5D,176.88641357421875,-71.44605255126953,-124.47408294677734,0.10603722929954529,1.4342150688171387,1.4634017944335938,1478.8764169216156
D4:22:CD:00:05:6B,111.37969207763672,-44.256690979003906,104.99278259277344,-0.788214921951294,5.651666641235352,-3.365692138671875,1478.8764169216156
D4:22:CD:00:49:AA,160.41966247558594,-77.12432861328125,112.26358795166016,0.15329435467720032,1.8967132568359375,1.4404125213623047,1478.8764169216156
D4:22:CD:00:05:6E,106.14563751220703,69.27842712402344,112.77369689941406,-3.409118175506592,0.8418043851852417,-9.466997146606445,1478.8764169216156
D4:22:CD:00:05:5E,-159.25511169433594,-53.60870361328125,-49.02155685424805,-3.6657652854919434,-4.752294540405273,-1.4382734298706055,1478.8764169216156
D4:22:CD:00:05:5D,-178.46934509277344,-73.32685089111328,-131.82798767089844,-0.9497443437576294,0.9781098365783691,0.2906160354614258,1478.9070580005646
D4:22:CD:00:05:6B,112.25143432617188,-46.067527770996094,106.02287292480469,-1.6241090297698975,1.7371392250061035,-0.6618490219116211,1478.9070580005646
D4:22:CD:00:49:AA,156.52308654785156,-76.40032196044922,114.51439666748047,-2.504732608795166,1.2265915870666504,-0.6149024963378906,1478.9070580005646
D4:22:CD:00:05:6E,63.80149459838867,72.30177307128906,63.05072021484375,-8.657054901123047,-2.663661003112793,-7.750913619995117,1478.9070580005646
D4:22:CD:00:05:5E,-162.23587036132812,-43.470882415771484,-42.17264938354492,2.848782539367676,-0.20556798577308655,-6.3156843185424805,1478.9070580005646
D4:22:CD:00:05:5D,-172.42515563964844,-74.53975677490234,-139.4389190673828,-1.3995823860168457,0.5811475515365601,0.09239387512207031,1478.967066526413
D4:22:CD:00:05:6B,108.89610290527344,-48.353919982910156,107.03218078613281,-4.58734130859375,0.46713578701019287,-0.3397178649902344,1478.967066526413
D4:22:CD:00:49:AA,155.0477294921875,-75.52146911621094,114.80139923095703,-4.339658737182617,0.8849304914474487,-1.4939136505126953,1478.967066526413
D4:22:CD:00:05:6E,32.91682052612305,61.4734992980957,25.401769638061523,-8.764633178710938,1.076744794845581,-13.120941162109375,1478.967066526413
D4:22:CD:00:05:5E,-162.90296936035156,-35.42972183227539,-36.766868591308594,2.597196102142334,0.23983052372932434,-8.038084030151367,1478.967066526413
D4:22:CD:00:05:5D,-167.10723876953125,-75.13961029052734,-146.5586395263672,-0.912007212638855,-0.35340380668640137,-0.7357263565063477,1478.996882200241
D4:22:CD:00:05:6B,102.90025329589844,-50.67628479003906,107.44676208496094,-5.51585578918457,1.5286684036254883,-2.1335763931274414,1478.996882200241
D4:22:CD:00:49:AA,153.718994140625,-75.4473876953125,115.08013916015625,-1.0492980480194092,1.0224289894104004,-0.42810916900634766,1478.996882200241
D4:22:CD:00:05:6E,19.233842849731445,45.50054931640625,8.245206832885742,3.5127058029174805,-1.8840916156768799,-17.631027221679688,1478.996882200241
D4:22:CD:00:05:5E,-162.71533203125,-30.263017654418945,-32.43630599975586,4.459012985229492,1.5129427909851074,-8.711540222167969,1478.996882200241
D4:22:CD:00:05:5D,-164.66502380371094,-74.91171264648438,-151.06439208984375,-0.46270084381103516,-2.9533090591430664,-1.0330219268798828,1479.0268831253052
D4:22:CD:00:05:6B,97.39600372314453,-52.70195007324219,107.45856475830078,-4.367954254150391,3.144354820251465,-3.667447090148926,1479.0268831253052
D4:22:CD:00:49:AA,148.135986328125,-75.84668731689453,119.54776763916016,0.03728911280632019,0.48374325037002563,-1.325693130493164,1479.0268831253052
D4:22:CD:00:05:6E,17.098289489746094,30.96786880493164,-2.4995956420898438,12.62190055847168,-17.700885772705078,-7.082630157470703,1479.0268831253052
D4:22:CD:00:05:5E,-162.41738891601562,-28.36473274230957,-29.155000686645508,4.38576602935791,-0.2800220251083374,-7.903189659118652,1479.0268831253052
D4:22:CD:00:05:5D,-165.58673095703125,-73.56581115722656,-150.5148162841797,0.6504592895507812,-5.049242973327637,-1.2689504623413086,1479.0568833351135
D4:22:CD:00:05:6B,93.19786071777344,-54.82687759399414,107.40663146972656,-4.403867721557617,3.0667471885681152,-4.529747009277344,1479.0568833351135
D4:22:CD:00:49:AA,141.0339813232422,-76.48444366455078,125.27334594726562,-1.9724948406219482,0.7717894315719604,-1.729487419128418,1479.0568833351135
D4:22:CD:00:05:6E,39.99097442626953,22.01432228088379,-7.661886215209961,-4.670501708984375,-21.683807373046875,-17.33899688720703,1479.0568833351135
D4:22:CD:00:05:5E,-165.65489196777344,-28.60654067993164,-26.384380340576172,5.079929351806641,-4.5032501220703125,-5.527844429016113,1479.0568833351135
D4:22:CD:00:05:5D,-168.23245239257812,-71.51364135742188,-146.74594116210938,1.010688304901123,-2.5571279525756836,-0.4080686569213867,1479.0869069099426
D4:22:CD:00:05:6B,90.790283203125,-57.34428787231445,107.07135772705078,-2.995187282562256,4.209641456604004,-3.9594335556030273,1479.0869069099426
D4:22:CD:00:49:AA,134.65829467773438,-77.3945083618164,130.53079223632812,-3.7953577041625977,0.15237703919410706,-1.6170101165771484,1479.0869069099426
D4:22:CD:00:05:6E,66.83258819580078,14.624603271484375,-7.662752628326416,7.298299789428711,21.61272430419922,4.462503433227539,1479.0869069099426
D4:22:CD:00:05:5E,-172.35133361816406,-30.85849380493164,-24.1912784576416,11.39634895324707,-7.438767433166504,-5.729436874389648,1479.0869069099426
D4:22:CD:00:05:5D,-171.86422729492188,-69.17733764648438,-141.36073303222656,1.1727705001831055,-1.9056012630462646,-0.48598480224609375,1479.1169452667236
D4:22:CD:00:05:6B,89.55870056152344,-60.3172721862793,107.15747833251953,-1.326561450958252,4.697660446166992,-3.8334426879882812,1479.1169452667236
D4:22:CD:00:49:AA,127.02536010742188,-78.28289794921875,138.21226501464844,-4.045257568359375,-0.5683243274688721,-2.1504392623901367,1479.1169452667236
D4:22:CD:00:05:6E,71.74195861816406,6.2086076736450195,-7.298079490661621,0.16210222244262695,-1.2825303077697754,-2.2721662521362305,1479.1169452667236
D4:22:CD:00:05:5E,179.39447021484375,-34.88850402832031,-22.655635833740234,13.69166374206543,-1.7911617755889893,-7.260573387145996,1479.1169452667236
D4:22:CD:00:05:5D,-174.82266235351562,-66.94750213623047,-136.1503448486328,0.5009068250656128,-0.7730214595794678,-0.17081260681152344,1479.146940946579
D4:22:CD:00:05:6B,88.27627563476562,-63.438961029052734,108.11332702636719,-1.0860846042633057,4.959536552429199,-3.3707942962646484,1479.146940946579
D4:22:CD:00:49:AA,118.05662536621094,-78.64739227294922,148.7353973388672,-4.596824645996094,-0.6222292184829712,-2.1283373832702637,1479.146940946579
D4:22:CD:00:05:6E,80.848388671875,-3.5283865928649902,-5.293060302734375,2.558835029602051,0.6829543113708496,-1.7925710678100586,1479.146940946579
D4:22:CD:00:05:5E,176.1615753173828,-36.342811584472656,-22.76984977722168,-0.9176578521728516,12.223100662231445,28.37891387939453,1479.146940946579
D4:22:CD:00:05:5D,-176.35418701171875,-64.94949340820312,-131.52151489257812,-1.1154224872589111,1.137800693511963,0.7357063293457031,1479.1769683361053
D4:22:CD:00:05:6B,86.06243896484375,-66.53915405273438,109.50123596191406,-0.8373911380767822,6.177304267883301,-2.2880501747131348,1479.1769683361053
D4:22:CD:00:49:AA,110.44058990478516,-78.0008316040039,158.67787170410156,-0.029042378067970276,-0.2800917625427246,-2.800462245941162,1479.1769683361053
D4:22:CD:00:05:6E,82.77274322509766,-19.02121353149414,-1.005523920059204,7.764837265014648,4.526025772094727,9.302238464355469,1479.1769683361053
D4:22:CD:00:05:5E,171.2965087890625,-34.854061126708984,-22.733692169189453,6.945023536682129,2.3418807983398438,-1.7048254013061523,1479.1769683361053
D4:22:CD:00:05:5D,-179.24847412109375,-62.88742446899414,-126.87210083007812,-1.6572625637054443,0.5897510051727295,-0.7874279022216797,1479.2066929340363
D4:22:CD:00:05:6B,82.33451843261719,-69.75936126708984,111.99275970458984,-1.335376262664795,12.172597885131836,-0.9988126754760742,1479.2066929340363
D4:22:CD:00:49:AA,107.04251861572266,-76.72059631347656,163.52676391601562,3.2878003120422363,0.3872765302658081,-2.381908893585205,1479.2066929340363
D4:22:CD:00:05:6E,67.73953247070312,-39.60661697387695,8.29722785949707,30.59393310546875,0.17139509320259094,28.96651840209961,1479.2066929340363
D4:22:CD:00:05:5E,170.88150024414062,-34.95936965942383,-21.03731346130371,10.163644790649414,-7.087192535400391,4.517093658447266,1479.2066929340363
D4:22:CD:00:05:5D,179.50892639160156,-60.837364196777344,-124.31649017333984,-2.4977059364318848,0.7195601463317871,0.4968395233154297,1479.266523361206
D4:22:CD:00:05:6B,80.0575942993164,-73.4863052368164,117.1277084350586,-2.2923450469970703,14.382932662963867,1.9035425186157227,1479.266523361206
D4:22:CD:00:49:AA,103.58677673339844,-75.82179260253906,167.7690887451172,1.885585069656372,2.149294853210449,2.154947280883789,1479.266523361206
D4:22:CD:00:05:6E,54.87388229370117,-48.39701843261719,23.797122955322266,26.578292846679688,11.168506622314453,17.65221405029297,1479.266523361206
D4:22:CD:00:05:5E,171.3884735107422,-34.96858215332031,-20.158512115478516,11.283946990966797,-6.2959184646606445,5.8653411865234375,1479.266523361206
D4:22:CD:00:05:5D,178.87786865234375,-59.068912506103516,-123.17384338378906,-0.3147500157356262,1.2808077335357666,1.0942392349243164,1479.2968657016754
D4:22:CD:00:05:6B,68.61764526367188,-79.32032775878906,131.76622009277344,-0.28850889205932617,10.037168502807617,7.0249176025390625,1479.2968657016754
D4:22:CD:00:49:AA,105.5455322265625,-75.76799011230469,165.6798858642578,-0.2847393751144409,3.908858299255371,6.095605850219727,1479.2968657016754
D4:22:CD:00:05:6E,70.27584075927734,-41.67103958129883,12.362838745117188,7.627506256103516,-1.1232960224151611,10.124650955200195,1479.2968657016754
D4:22:CD:00:05:5E,172.5857696533203,-34.5504035949707,-20.199932098388672,11.89988899230957,-7.437348365783691,4.976598739624023,1479.2968657016754
D4:22:CD:00:05:5D,178.6978302001953,-58.5240592956543,-123.07933807373047,0.38796037435531616,0.6410316228866577,1.890279769897461,1479.3268656730652
D4:22:CD:00:05:6B,-1.1284712553024292,-84.2083740234375,-159.2894744873047,0.6381654739379883,17.516998291015625,6.500303268432617,1479.3268656730652
D4:22:CD:00:49:AA,113.52532958984375,-75.91419219970703,157.42066955566406,-3.7283248901367188,1.874819278717041,5.780950546264648,1479.3268656730652
D4:22:CD:00:05:6E,82.02713775634766,-31.321001052856445,3.458517074584961,13.142080307006836,5.603523254394531,9.287683486938477,1479.3268656730652
D4:22:CD:00:05:5E,176.39756774902344,-33.31498718261719,-21.4233455657959,16.72309112548828,-5.164093017578125,4.587799072265625,1479.3268656730652
D4:22:CD:00:05:5D,178.85203552246094,-59.49454879760742,-123.73664093017578,-0.7611532211303711,1.848982572555542,1.7714481353759766,1479.3565816879272
D4:22:CD:00:05:6B,-63.204742431640625,-77.92813110351562,-92.97409057617188,5.774726867675781,28.406837463378906,4.686052322387695,1479.3565816879272
D4:22:CD:00:49:AA,119.86003875732422,-75.43616485595703,150.5392608642578,-2.503593921661377,0.7761330604553223,4.666989326477051,1479.3565816879272
D4:22:CD:00:05:6E,85.5552749633789,-24.99549674987793,1.5255422592163086,14.790506362915039,-3.1754283905029297,-12.880126953125,1479.3565816879272
D4:22:CD:00:05:5E,179.48895263671875,-31.943090438842773,-22.316944122314453,3.455113410949707,-6.580434799194336,2.6573400497436523,1479.3565816879272
D4:22:CD:00:05:5D,-179.96763610839844,-61.41787338256836,-125.04639434814453,-0.8685548305511475,0.4740387797355652,0.4087705612182617,1479.3871734142303
D4:22:CD:00:05:6B,-72.32178497314453,-67.13233184814453,-69.87853240966797,-3.230189323425293,24.994487762451172,15.316164016723633,1479.3871734142303
D4:22:CD:00:49:AA,125.51420593261719,-74.65764617919922,143.4224853515625,-1.3206522464752197,-0.24332872033119202,2.00140380859375,1479.3871734142303
D4:22:CD:00:05:6E,95.83592987060547,-23.960304260253906,4.165548801422119,7.373348236083984,2.080166816711426,-7.985027313232422,1479.3871734142303
D4:22:CD:00:05:5E,-179.37095642089844,-30.08489990234375,-23.241819381713867,14.227941513061523,1.4559788703918457,-2.0442214012145996,1479.3871734142303
