Device,EulerX,EulerY,EulerZ,FreeAccX,FreeAccY,FreeAccZ,Timestamp
D4:22:CD:00:05:5D,167.2425994873047,-52.54347610473633,-36.37412643432617,-0.621587872505188,-0.763170599937439,0.9268913269042969,2391.090775489807
D4:22:CD:00:05:6B,-54.247642517089844,-16.777193069458008,-86.96161651611328,2.071794033050537,13.69188117980957,45.324134826660156,2391.090775489807
D4:22:CD:00:49:AA,131.88706970214844,-71.28633880615234,132.24624633789062,-1.3065738677978516,-3.0785140991210938,4.95439338684082,2391.090775489807
D4:22:CD:00:05:6E,97.60566711425781,-41.671356201171875,27.5555477142334,14.624168395996094,16.028606414794922,19.086040496826172,2391.090775489807
D4:22:CD:00:05:5E,-150.28695678710938,-49.65497589111328,-11.360795021057129,7.184812545776367,-5.961979866027832,15.258304595947266,2391.090775489807
D4:22:CD:00:05:5D,168.36997985839844,-51.536346435546875,-37.460662841796875,-0.7595438957214355,1.44987154006958,1.5165939331054688,2391.093784093857
D4:22:CD:00:05:6B,-41.4218864440918,0.5593057870864868,-79.9838638305664,1.395946979522705,-9.84791374206543,27.832416534423828,2391.093784093857
D4:22:CD:00:49:AA,132.85940551757812,-71.5509033203125,133.1646270751953,-1.1953718662261963,-1.064009189605713,7.210575103759766,2391.093784093857
D4:22:CD:00:05:6E,99.195068359375,-33.79774856567383,36.14868927001953,6.156950950622559,13.429611206054688,5.6278276443481445,2391.093784093857
D4:22:CD:00:05:5E,-146.8983917236328,-46.42418670654297,-9.909878730773926,2.6973328590393066,0.36033034324645996,2.393439292907715,2391.093784093857
D4:22:CD:00:49:AA,137.66993713378906,-72.08892822265625,131.35023498535156,-3.8904199600219727,0.16170623898506165,9.705596923828125,2391.0967836380005
D4:22:CD:00:05:6E,101.06861877441406,-33.503211975097656,50.322021484375,-5.012314796447754,9.845008850097656,-4.601655960083008,2391.0967836380005
D4:22:CD:00:05:5E,-144.4583282470703,-47.97276306152344,-10.964579582214355,-0.27987349033355713,4.063196182250977,-6.226249694824219,2391.0967836380005
D4:22:CD:00:05:5D,165.86912536621094,-57.76785659790039,-114.63847351074219,0.6498908996582031,3.2426795959472656,-0.13191604614257812,2391.098783969879
D4:22:CD:00:05:6B,-68.31511688232422,-4.038458347320557,-55.6234130859375,6.7312116622924805,-2.6758370399475098,29.669490814208984,2391.098783969879
D4:22:CD:00:49:AA,145.40223693847656,-72.69329071044922,126.27372741699219,-4.546612739562988,1.1109912395477295,8.99415397644043,2391.098783969879
D4:22:CD:00:05:6E,102.996337890625,-40.284976959228516,67.24128723144531,-12.55385971069336,-1.832502841949463,-2.5710201263427734,2391.098783969879
D4:22:CD:00:05:5E,-140.29733276367188,-54.2495002746582,-16.619123458862305,0.3445364236831665,6.826153755187988,-11.285322189331055,2391.098783969879
D4:22:CD:00:05:5D,163.96749877929688,-46.75754928588867,-112.37908935546875,1.7173514366149902,2.819103240966797,-0.1558237075805664,2391.10178399086
D4:22:CD:00:05:6B,-60.932350158691406,-3.4254403114318848,-54.47867202758789,7.226535797119141,-2.625718116760254,21.955120086669922,2391.10178399086
D4:22:CD:00:49:AA,149.57839965820312,-74.70515441894531,125.88395690917969,-6.784427642822266,5.875027656555176,7.80613899230957,2391.10178399086
D4:22:CD:00:05:5D,165.51800537109375,-39.6751823425293,-112.99571990966797,1.8169372081756592,-1.2236926555633545,0.8386163711547852,2391.17533159256
D4:22:CD:00:05:6B,-52.15119934082031,0.7541703581809998,-48.079341888427734,1.7515501976013184,0.5304930210113525,18.866146087646484,2391.17533159256
D4:22:CD:00:49:AA,164.3094024658203,-70.90165710449219,107.12400817871094,4.445738792419434,-0.579811692237854,5.119329452514648,2391.17533159256
D4:22:CD:00:05:6E,-123.86754608154297,-68.22822570800781,-94.76702117919922,-7.6381635665893555,-1.4196090698242188,18.924072265625,2391.17533159256
D4:22:CD:00:05:5E,-173.6056671142578,-65.92771911621094,30.046419143676758,-3.469644546508789,0.8512946367263794,16.668392181396484,2391.17533159256
D4:22:CD:00:05:5D,168.32440185546875,-37.27580261230469,-114.35540008544922,1.4646949768066406,-0.5692039728164673,1.6309423446655273,2391.205331325531
D4:22:CD:00:05:6B,-46.47945785522461,11.391529083251953,-36.67400360107422,3.3792786598205566,0.933530330657959,13.149171829223633,2391.205331325531
D4:22:CD:00:49:AA,143.61241149902344,-64.88463592529297,125.97045135498047,0.4373381733894348,1.116379737854004,6.724615097045898,2391.205331325531
D4:22:CD:00:05:6E,-145.69085693359375,-71.53264617919922,-64.2402572631836,-9.958608627319336,-7.7924089431762695,14.211261749267578,2391.205331325531
D4:22:CD:00:05:5E,-161.02403259277344,-60.060523986816406,20.1940975189209,-4.3668107986450195,0.8287466764450073,10.301990509033203,2391.205331325531
D4:22:CD:00:05:5D,170.5034942626953,-37.048648834228516,-116.4561767578125,-0.27049267292022705,-0.32395148277282715,2.0556888580322266,2391.2353320121765
D4:22:CD:00:05:6B,-40.23888397216797,19.895137786865234,-23.835620880126953,4.001230239868164,-0.7022298574447632,6.663970947265625,2391.2353320121765
D4:22:CD:00:49:AA,139.80784606933594,-64.51420593261719,128.8668670654297,-4.487818717956543,2.3826141357421875,5.753270149230957,2391.2353320121765
D4:22:CD:00:05:6E,-166.1410369873047,-72.93791198730469,-34.03652572631836,-9.80799674987793,-10.030548095703125,9.633766174316406,2391.2353320121765
D4:22:CD:00:05:5E,-150.39324951171875,-49.54462814331055,12.044835090637207,-7.226813316345215,2.2540769577026367,0.8591213226318359,2391.2353320121765
D4:22:CD:00:05:5D,171.7149658203125,-38.21266174316406,-118.12896728515625,1.249366044998169,-0.6228117942810059,1.3860206604003906,2391.265345811844
D4:22:CD:00:05:6B,-36.74272918701172,23.95147132873535,-13.58273696899414,1.3660941123962402,-10.003446578979492,6.829206466674805,2391.265345811844
D4:22:CD:00:49:AA,146.60508728027344,-67.9639663696289,123.22936248779297,-5.575613975524902,3.8132896423339844,5.9503173828125,2391.265345811844
D4:22:CD:00:05:6E,-167.88902282714844,-72.9572982788086,-19.001020431518555,-7.091925621032715,-13.805778503417969,5.833795547485352,2391.265345811844
D4:22:CD:00:05:5E,-142.5792694091797,-43.40842056274414,4.864485740661621,-8.345226287841797,2.301496982574463,-5.232542991638184,2391.265345811844
D4:22:CD:00:05:5D,172.53933715820312,-40.734622955322266,-119.576904296875,1.714625597000122,1.6462790966033936,-0.7234611511230469,2391.29487490654
D4:22:CD:00:05:6B,-30.92165756225586,27.02177619934082,-7.784213066101074,2.2639589309692383,-15.820539474487305,9.485286712646484,2391.29487490654
D4:22:CD:00:49:AA,160.8394775390625,-71.52062225341797,111.83243560791016,-2.8931808471679688,3.227996826171875,6.468229293823242,2391.29487490654
D4:22:CD:00:05:6E,-162.60423278808594,-73.53330993652344,-10.1200590133667,-6.0100908279418945,-17.00322723388672,3.229640007019043,2391.29487490654
D4:22:CD:00:05:5E,-133.28799438476562,-42.13568115234375,-4.0875244140625,-8.246017456054688,1.9548990726470947,-9.38499641418457,2391.29487490654
D4:22:CD:00:05:5D,173.33099365234375,-44.10640335083008,-119.90779876708984,-3.6307854652404785,-4.75185489654541,7.989133834838867,2391.3248751163483
D4:22:CD:00:05:6B,-25.874147415161133,31.277341842651367,-4.311712741851807,2.2611284255981445,-17.394611358642578,3.386350631713867,2391.3248751163483
D4:22:CD:00:49:AA,177.63851928710938,-73.98260498046875,98.73828887939453,-4.6234331130981445,4.081530570983887,6.050485610961914,2391.3248751163483
D4:22:CD:00:05:6E,-154.78823852539062,-72.59192657470703,-2.7699978351593018,-2.5442323684692383,-16.414306640625,0.14919567108154297,2391.3248751163483
D4:22:CD:00:05:5E,-121.45799255371094,-43.781349182128906,-16.268503189086914,-4.121832847595215,5.589450836181641,-12.263593673706055,2391.3248751163483
D4:22:CD:00:05:5D,173.4573211669922,-48.29294204711914,-118.93941497802734,-5.6006574630737305,-3.9350528717041016,8.165044784545898,2391.354875564575
D4:22:CD:00:05:6B,-20.882280349731445,36.527462005615234,-1.386208415031433,2.4540586471557617,-14.637554168701172,-2.775114059448242,2391.354875564575
D4:22:CD:00:49:AA,-164.55714416503906,-76.2640609741211,84.69451904296875,-2.7876791954040527,2.6578526496887207,5.385225296020508,2391.354875564575
D4:22:CD:00:05:6E,-140.63275146484375,-69.14723205566406,1.0314689874649048,2.5520377159118652,-14.479665756225586,-2.133772373199463,2391.354875564575
D4:22:CD:00:05:5E,-104.37709045410156,-46.58494567871094,-33.44005584716797,-1.1754279136657715,2.984602451324463,-10.631498336791992,2391.354875564575
D4:22:CD:00:05:5D,171.0142059326172,-53.89582443237305,-117.82523345947266,-6.215475082397461,-7.028445243835449,5.267937660217285,2391.4154267311096
D4:22:CD:00:05:6B,-15.19758415222168,41.424522399902344,0.7626420855522156,-2.4026002883911133,-6.831457138061523,-8.753702163696289,2391.4154267311096
D4:22:CD:00:49:AA,-146.9642333984375,-76.64409637451172,70.76990509033203,0.8366961479187012,0.9171938896179199,0.3962583541870117,2391.4154267311096
D4:22:CD:00:05:6E,-131.5215301513672,-63.2974739074707,0.5216550827026367,8.491828918457031,-12.45340347290039,-9.425029754638672,2391.4154267311096
D4:22:CD:00:05:5E,-88.39778137207031,-48.056583404541016,-52.741058349609375,-2.911860942840576,-2.375349998474121,-8.594478607177734,2391.4154267311096
D4:22:CD:00:05:5D,161.57711791992188,-60.3433952331543,-112.98140716552734,3.4406871795654297,-2.0451622009277344,-6.426666259765625,2391.4454262256622
D4:22:CD:00:05:6B,-9.83406925201416,45.64101791381836,2.1303582191467285,-2.2164101600646973,-0.6504343748092651,-8.128658294677734,2391.4454262256622
D4:22:CD:00:49:AA,-135.92800903320312,-75.3402099609375,62.609954833984375,2.195496082305908,0.8669512271881104,-5.726380348205566,2391.4454262256622
D4:22:CD:00:05:6E,-135.48355102539062,-57.03624725341797,0.6038727164268494,6.895745277404785,-5.224827766418457,-13.30427360534668,2391.4454262256622
D4:22:CD:00:05:5E,-79.7085952758789,-48.709373474121094,-69.66896057128906,-3.5877251625061035,-13.062856674194336,-9.076417922973633,2391.4454262256622
D4:22:CD:00:05:5D,158.7923126220703,-64.48351287841797,-104.25349426269531,8.316184997558594,-3.8174877166748047,-11.861738204956055,2391.474969148636
D4:22:CD:00:05:6B,-7.4116106033325195,49.53278732299805,0.018880637362599373,-0.7214726209640503,5.243149757385254,-8.718038558959961,2391.474969148636
D4:22:CD:00:49:AA,-130.57948303222656,-74.31090545654297,58.872802734375,2.2902045249938965,2.882617950439453,-9.596895217895508,2391.474969148636
D4:22:CD:00:05:6E,-142.20570373535156,-52.795738220214844,0.4389146864414215,4.860795974731445,-3.109585762023926,-11.589399337768555,2391.474969148636
D4:22:CD:00:05:5E,-79.48665618896484,-50.19647979736328,-83.44689178466797,-14.619611740112305,-20.099071502685547,-6.585397720336914,2391.474969148636
D4:22:CD:00:05:5D,156.31968688964844,-71.47518920898438,-92.2572250366211,7.64588737487793,11.941595077514648,-5.302268028259277,2391.5049700737
D4:22:CD:00:05:6B,-10.285470008850098,52.99878692626953,-13.202281951904297,4.389145851135254,7.548235893249512,-10.530511856079102,2391.5049700737
D4:22:CD:00:49:AA,-121.68916320800781,-75.33635711669922,51.715484619140625,-0.324698269367218,1.9933605194091797,-6.508173942565918,2391.5049700737
D4:22:CD:00:05:6E,-148.6099090576172,-50.518375396728516,0.7849915027618408,5.370163917541504,-4.687114715576172,-10.765512466430664,2391.5049700737
D4:22:CD:00:05:5E,-79.88990783691406,-52.1494255065918,-91.0733871459961,-18.703250885009766,-1.3794782161712646,-0.9716262817382812,2391.5049700737
D4:22:CD:00:05:5D,151.3738555908203,-77.34385681152344,-87.83477783203125,3.3790745735168457,8.470012664794922,5.358421325683594,2391.5359694957733
D4:22:CD:00:05:6B,-26.756969451904297,52.6545295715332,-37.87627410888672,2.911600112915039,18.269580841064453,-15.531301498413086,2391.5359694957733
D4:22:CD:00:49:AA,-98.29054260253906,-77.62232208251953,32.010528564453125,-6.200841903686523,-1.2664597034454346,-4.442995071411133,2391.5359694957733
D4:22:CD:00:05:6E,-153.4832305908203,-50.43691635131836,4.4733405113220215,7.005815505981445,0.5738000869750977,-9.526756286621094,2391.5359694957733
D4:22:CD:00:05:5E,-73.64519500732422,-53.336299896240234,-93.75164794921875,-10.315567016601562,-10.546854019165039,-11.318456649780273,2391.5359694957733
D4:22:CD:00:05:5D,142.00823974609375,-81.41130828857422,-82.9123306274414,-2.73201847076416,-10.740821838378906,-8.85379409790039,2391.565089225769
D4:22:CD:00:05:6B,-50.439212799072266,43.484291076660156,-64.43327331542969,1.1954929828643799,-8.840003967285156,-20.865894317626953,2391.565089225769
D4:22:CD:00:49:AA,-76.01854705810547,-77.17695617675781,13.979009628295898,-3.001044273376465,-0.8270620107650757,-12.40823745727539,2391.565089225769
D4:22:CD:00:05:6E,-154.10562133789062,-51.814048767089844,10.648550033569336,8.263504028320312,-0.6900215148925781,-8.24415397644043,2391.565089225769
D4:22:CD:00:05:5E,-83.30052185058594,-55.80205535888672,-86.8363037109375,-7.766644477844238,-11.564128875732422,-11.029996871948242,2391.565089225769
D4:22:CD:00:05:5D,140.1411895751953,-79.55121612548828,-75.43309020996094,-4.097785949707031,-0.31467312574386597,1.7778186798095703,2391.595712661743
D4:22:CD:00:05:6B,-62.64883041381836,26.266738891601562,-81.56546020507812,-2.396106719970703,-37.40319061279297,-15.609420776367188,2391.595712661743
D4:22:CD:00:49:AA,-78.14774322509766,-77.70429992675781,17.07773780822754,13.895099639892578,-4.453147888183594,-5.254402160644531,2391.595712661743
D4:22:CD:00:05:6E,-156.26751708984375,-52.54451370239258,17.197080612182617,11.443195343017578,-4.251043319702148,-5.04641056060791,2391.595712661743
D4:22:CD:00:05:5E,-105.36122131347656,-57.18880081176758,-73.13475036621094,-8.702337265014648,-9.473785400390625,-3.954651355743408,2391.595712661743
D4:22:CD:00:05:5D,136.55621337890625,-77.59126281738281,-72.04885864257812,2.568676471710205,-1.3812651634216309,-0.9525747299194336,2391.6257104873657
D4:22:CD:00:05:6B,-61.7844352722168,21.7581844329834,-87.00344848632812,-2.2782158851623535,11.418437957763672,-33.843299865722656,2391.6257104873657
D4:22:CD:00:49:AA,-73.8816909790039,-77.99302673339844,9.777979850769043,-0.3329278826713562,0.7393991947174072,2.641294479370117,2391.6257104873657
D4:22:CD:00:05:6E,-163.95179748535156,-51.00297546386719,22.020612716674805,12.075506210327148,-1.0123472213745117,-3.7458386421203613,2391.6257104873657
D4:22:CD:00:05:5E,-123.63166809082031,-56.20292663574219,-58.47868728637695,5.850018501281738,-7.026823997497559,-0.2980947494506836,2391.6257104873657
D4:22:CD:00:05:5D,132.20030212402344,-75.7840576171875,-65.53897094726562,3.1799726486206055,-0.6927367448806763,0.24407958984375,2391.6557240486145
D4:22:CD:00:05:6B,-66.85929870605469,29.546831130981445,-79.01459503173828,-14.50806999206543,-10.329925537109375,12.602306365966797,2391.6557240486145
D4:22:CD:00:49:AA,-68.2679214477539,-79.11597442626953,0.8317864537239075,-7.196828842163086,-3.915266513824463,0.8805370330810547,2391.6557240486145
D4:22:CD:00:05:6E,-174.59324645996094,-47.19190216064453,24.592130661010742,14.123144149780273,-0.3076872229576111,-4.570191383361816,2391.6557240486145
D4:22:CD:00:05:5E,-128.5283660888672,-56.175811767578125,-50.729583740234375,13.353597640991211,-3.680924892425537,-0.2785530090332031,2391.6557240486145
D4:22:CD:00:05:5D,127.22044372558594,-74.38790893554688,-61.21036148071289,0.3638191819190979,-1.012413501739502,0.8278713226318359,2391.7152535915375
D4:22:CD:00:05:6B,-52.33354568481445,34.8425407409668,-61.769309997558594,-3.555753707885742,-16.815170288085938,-20.95889663696289,2391.7152535915375
D4:22:CD:00:49:AA,-65.72698974609375,-80.08570861816406,-1.9847453832626343,-1.6469571590423584,-0.4091464877128601,-1.3002214431762695,2391.7152535915375
D4:22:CD:00:05:6E,170.02960205078125,-42.659488677978516,27.130767822265625,13.697042465209961,2.3406033515930176,-2.000344753265381,2391.7152535915375
D4:22:CD:00:05:5E,-129.0577392578125,-57.177494049072266,-46.28508758544922,12.210124969482422,-0.8878531455993652,2.4270830154418945,2391.7152535915375
D4:22:CD:00:05:5D,121.2462158203125,-73.24562072753906,-56.59879684448242,-1.9239306449890137,-0.8522058725357056,0.7223138809204102,2391.7452521324158
D4:22:CD:00:05:6B,-39.95471954345703,34.50812911987305,-40.743743896484375,-1.5828180313110352,-10.974515914916992,-6.316226959228516,2391.7452521324158
D4:22:CD:00:49:AA,-68.18304443359375,-81.78166961669922,-1.1837880611419678,5.435077667236328,-2.2248740196228027,-2.0878663063049316,2391.7452521324158
D4:22:CD:00:05:6E,152.82522583007812,-38.803993225097656,28.207679748535156,3.965150833129883,4.644098281860352,-2.1057705879211426,2391.7452521324158
D4:22:CD:00:05:5E,-130.56541442871094,-57.90170669555664,-41.94206237792969,4.66776180267334,-7.040952682495117,-0.8682289123535156,2391.7452521324158
D4:22:CD:00:05:5D,112.94799041748047,-72.21431732177734,-50.56827926635742,-3.43613338470459,-0.39765459299087524,3.6983232498168945,2391.774802684784
D4:22:CD:00:05:6B,-29.159164428710938,27.546253204345703,-24.440109252929688,-4.114285469055176,-0.06719052791595459,-1.501729965209961,2391.774802684784
D4:22:CD:00:49:AA,-74.67282104492188,-83.69413757324219,2.920689105987549,1.1881153583526611,-2.52421236038208,-0.6308612823486328,2391.774802684784
D4:22:CD:00:05:6E,135.47080993652344,-36.77558135986328,26.273616790771484,7.452526092529297,11.700923919677734,-5.433849334716797,2391.774802684784
D4:22:CD:00:05:5E,-136.4398651123047,-56.798160552978516,-36.50001907348633,6.608114242553711,-11.016815185546875,-2.4282469749450684,2391.774802684784
D4:22:CD:00:05:5D,101.2742919921875,-71.12638092041016,-45.51383590698242,4.030723571777344,-0.9352226257324219,0.6126565933227539,2391.805806159973
D4:22:CD:00:05:6B,-25.029682159423828,16.483991622924805,-11.765612602233887,-7.539963722229004,3.477674961090088,-5.752302169799805,2391.805806159973
D4:22:CD:00:49:AA,-94.86234283447266,-84.14362335205078,20.641382217407227,1.726520299911499,-3.238457202911377,1.8614873886108398,2391.805806159973
D4:22:CD:00:05:6E,127.72262573242188,-36.00556945800781,24.236173629760742,3.193119525909424,8.178604125976562,-6.106131553649902,2391.805806159973
D4:22:CD:00:05:5E,-142.38693237304688,-54.361812591552734,-32.21306610107422,10.772716522216797,-3.800011157989502,6.778656005859375,2391.805806159973
D4:22:CD:00:05:5D,97.91624450683594,-70.29252624511719,-49.60396957397461,13.665508270263672,-0.4093232750892639,0.33292293548583984,2391.8358035087585
D4:22:CD:00:05:6B,-22.41880226135254,4.471362113952637,-0.45520949363708496,-4.368337631225586,2.03908634185791,2.203251838684082,2391.8358035087585
D4:22:CD:00:49:AA,-119.82048034667969,-83.37374114990234,42.735435485839844,7.853812217712402,-1.2616746425628662,-4.421692848205566,2391.8358035087585
D4:22:CD:00:05:6E,125.70232391357422,-36.69789123535156,22.50823211669922,-2.5713558197021484,4.731822967529297,-0.8579702377319336,2391.8358035087585
D4:22:CD:00:05:5E,-141.9871368408203,-54.72529983520508,-29.371780395507812,-0.09521913528442383,-1.2309844493865967,1.1802749633789062,2391.8358035087585
D4:22:CD:00:05:5D,111.24409484863281,-66.65425872802734,-67.23674011230469,22.062911987304688,12.944721221923828,8.145666122436523,2391.865817308426
D4:22:CD:00:05:6B,-21.376150131225586,-6.518801212310791,10.434298515319824,-5.743049621582031,31.803421020507812,-15.371370315551758,2391.865817308426
D4:22:CD:00:49:AA,-138.63526916503906,-81.8809585571289,58.29400634765625,7.3489179611206055,-0.05853100121021271,-0.26007747650146484,2391.865817308426
D4:22:CD:00:05:6E,124.30094909667969,-38.33993148803711,21.023395538330078,-1.9524002075195312,3.159392833709717,0.8602008819580078,2391.865817308426
D4:22:CD:00:05:5E,-141.99700927734375,-54.8871955871582,-26.524505615234375,0.8463319540023804,-6.201925277709961,-0.6397972106933594,2391.865817308426
D4:22:CD:00:05:5D,129.10702514648438,-58.54718017578125,-87.68512725830078,16.193645477294922,10.303895950317383,8.320259094238281,2391.895346403122
D4:22:CD:00:05:6B,-47.0994873046875,-16.403396606445312,21.802736282348633,0.8493736982345581,1.990159034729004,0.638092041015625,2391.895346403122
D4:22:CD:00:49:AA,-152.42440795898438,-80.5956039428711,69.19964599609375,5.69349479675293,2.4874377250671387,5.396854400634766,2391.895346403122
D4:22:CD:00:05:6E,124.74885559082031,-40.71059036254883,19.748321533203125,0.489906370639801,3.8130221366882324,1.6177568435668945,2391.895346403122
D4:22:CD:00:05:5E,-141.72462463378906,-55.24699783325195,-24.701406478881836,0.9339828491210938,-5.5712995529174805,-0.5838394165039062,2391.895346403122
D4:22:CD:00:05:5D,138.13058471679688,-48.46879959106445,-104.86505126953125,7.331550598144531,-0.18989846110343933,1.1181602478027344,2391.9253463745117
D4:22:CD:00:05:6B,-54.986915588378906,-23.2047176361084,29.131391525268555,-6.37882137298584,3.533745765686035,8.858673095703125,2391.9253463745117
D4:22:CD:00:49:AA,-160.77139282226562,-80.15955352783203,75.15001678466797,1.58797025680542,2.028047561645508,2.468071937561035,2391.9253463745117
D4:22:CD:00:05:6E,128.41299438476562,-43.65174102783203,18.617422103881836,5.229811668395996,3.6760754585266113,1.4306621551513672,2391.9253463745117
D4:22:CD:00:05:5E,-141.47091674804688,-55.19583511352539,-23.65387725830078,3.5910611152648926,-4.310291290283203,0.11896419525146484,2391.9253463745117
D4:22:CD:00:05:5D,143.81390380859375,-37.50864028930664,-117.4012680053711,-0.4970232844352722,-3.1941380500793457,-6.166428565979004,2391.955346107483
D4:22:CD:00:05:6B,-55.33672332763672,-29.68227195739746,33.896366119384766,-6.333883285522461,9.23797607421875,-5.537108421325684,2391.955346107483
D4:22:CD:00:49:AA,-163.78375244140625,-79.44139862060547,77.56082916259766,1.3777062892913818,1.3585805892944336,3.430936813354492,2391.955346107483
D4:22:CD:00:05:6E,136.7915496826172,-46.433414459228516,18.994897842407227,5.3087005615234375,2.3565831184387207,-0.4514017105102539,2391.955346107483
D4:22:CD:00:05:5E,-141.09844970703125,-54.10462951660156,-22.372974395751953,2.092134952545166,-3.5751333236694336,-1.2458038330078125,2391.955346107483
D4:22:CD:00:05:5D,150.33071899414062,-27.169279098510742,-126.0350341796875,-2.5554018020629883,-2.107419967651367,-11.69070816040039,2392.014898777008
D4:22:CD:00:05:6B,-61.4021110534668,-37.43087387084961,37.88286590576172,-2.4487709999084473,6.114285469055176,-4.6210479736328125,2392.014898777008
D4:22:CD:00:49:AA,-164.24681091308594,-79.59091186523438,78.56624603271484,2.7988381385803223,0.24506863951683044,-0.7511463165283203,2392.014898777008
D4:22:CD:00:05:6E,147.6945037841797,-48.119564056396484,21.77375602722168,3.1817727088928223,0.7700097560882568,-2.615182399749756,2392.014898777008
D4:22:CD:00:05:5E,-142.23658752441406,-51.56924819946289,-21.66224479675293,3.0659351348876953,-3.1173057556152344,-1.1230478286743164,2392.014898777008
D4:22:CD:00:05:5D,158.6854248046875,-18.85594367980957,-132.4884796142578,-1.178945541381836,-1.177574634552002,-9.816133499145508,2392.0458991527557
D4:22:CD:00:05:6B,-69.79183197021484,-47.21929931640625,42.34425735473633,0.9981095790863037,7.724302291870117,-0.7177228927612305,2392.0458991527557
D4:22:CD:00:49:AA,-166.70689392089844,-79.98321533203125,81.5122299194336,2.572380542755127,1.2391979694366455,-5.334589958190918,2392.0458991527557
D4:22:CD:00:05:6E,156.7855987548828,-49.01911163330078,27.731853485107422,5.3326311111450195,-2.006579875946045,-4.156498908996582,2392.0458991527557
D4:22:CD:00:05:5E,-144.8604736328125,-46.905364990234375,-22.192670822143555,0.5783313512802124,-5.482169151306152,-8.103693008422852,2392.0458991527557
D4:22:CD:00:05:5D,165.197509765625,-13.877474784851074,-138.44998168945312,-7.579767227172852,-0.6433616876602173,-7.064620018005371,2392.0754392147064
D4:22:CD:00:05:6B,-76.93414306640625,-60.694461822509766,43.50056838989258,4.968128204345703,10.258625030517578,11.273590087890625,2392.0754392147064
D4:22:CD:00:49:AA,-171.0251922607422,-80.32907104492188,85.68872833251953,1.527662754058838,0.47403019666671753,-4.400378227233887,2392.0754392147064
D4:22:CD:00:05:6E,160.20458984375,-50.391780853271484,39.63341522216797,9.305194854736328,-6.31498908996582,-1.6670293807983398,2392.0754392147064
D4:22:CD:00:05:5E,-147.71917724609375,-42.71394729614258,-22.87802505493164,-4.217016220092773,-8.898571014404297,-6.823983192443848,2392.0754392147064
D4:22:CD:00:05:5D,162.51266479492188,-13.35464096069336,-143.69204711914062,-15.068851470947266,0.48184651136398315,-10.937564849853516,2392.1054389476776
D4:22:CD:00:05:6B,-80.18121337890625,-76.71565246582031,39.32601547241211,6.061953544616699,9.245216369628906,30.733779907226562,2392.1054389476776
D4:22:CD:00:49:AA,-171.4946746826172,-81.1325912475586,86.02812957763672,-0.11475099623203278,0.7270107269287109,-4.900047302246094,2392.1054389476776
D4:22:CD:00:05:6E,150.55564880371094,-50.0734748840332,58.07029724121094,10.182727813720703,-1.6175496578216553,4.620943069458008,2392.1054389476776
D4:22:CD:00:05:5E,-148.58261108398438,-39.397300720214844,-23.067058563232422,6.473258972167969,-3.8409247398376465,3.3004074096679688,2392.1054389476776
D4:22:CD:00:05:5D,157.37277221679688,-16.468059539794922,-145.1609344482422,-17.887775421142578,-5.30267333984375,-12.100048065185547,2392.1355690956116
D4:22:CD:00:05:6B,-82.8940200805664,-82.21455383300781,29.179750442504883,-4.375340461730957,5.855656623840332,10.705955505371094,2392.1355690956116
D4:22:CD:00:49:AA,-164.66305541992188,-82.447265625,79.21778106689453,6.186115264892578,2.537607192993164,-0.5170192718505859,2392.1355690956116
D4:22:CD:00:05:6E,132.6317901611328,-44.59050750732422,80.64169311523438,17.799423217773438,4.157007217407227,11.164312362670898,2392.1355690956116
D4:22:CD:00:05:5E,-151.82310485839844,-35.07258605957031,-23.487873077392578,-0.34351593255996704,-4.085704803466797,-1.327061653137207,2392.1355690956116
D4:22:CD:00:05:5D,157.69891357421875,-16.173839569091797,-143.30654907226562,-21.65517807006836,5.748418807983398,57.76554870605469,2392.1656501293182
D4:22:CD:00:05:6B,-88.28793334960938,-71.9613265991211,22.169090270996094,-0.9122517108917236,3.371394157409668,8.723188400268555,2392.1656501293182
D4:22:CD:00:49:AA,-161.86817932128906,-82.25086212158203,75.75127410888672,-3.3031063079833984,-0.759711742401123,-2.3169469833374023,2392.1656501293182
D4:22:CD:00:05:6E,117.87178802490234,-34.101051330566406,101.62422943115234,24.03854751586914,9.602960586547852,16.258926391601562,2392.1656501293182
D4:22:CD:00:05:5E,-154.4933624267578,-32.098209381103516,-23.43840789794922,4.983924865722656,-3.1442952156066895,3.110353469848633,2392.1656501293182
D4:22:CD:00:05:5D,163.21986389160156,-13.05263900756836,-136.99679565429688,-17.83802032470703,-14.349130630493164,1.0819787979125977,2392.220466852188
D4:22:CD:00:05:6B,-79.39471435546875,-56.35405731201172,14.21083927154541,23.820819854736328,0.8336887359619141,28.695674896240234,2392.220466852188
D4:22:CD:00:49:AA,-162.51007080078125,-80.76890563964844,75.79119873046875,3.7288589477539062,-2.670288562774658,9.243576049804688,2392.220466852188
D4:22:CD:00:05:6E,109.47002410888672,-20.934499740600586,118.78199005126953,27.121292114257812,12.884664535522461,5.40020751953125,2392.220466852188
D4:22:CD:00:05:5E,-156.00457763671875,-31.844675064086914,-22.694255828857422,2.505214214324951,-4.931563377380371,0.6663017272949219,2392.220466852188
D4:22:CD:00:05:5D,170.6135711669922,-8.402473449707031,-131.32276916503906,-15.096197128295898,-13.330366134643555,16.508773803710938,2392.2255294322968
D4:22:CD:00:05:6B,-65.3092041015625,-42.42174530029297,8.220634460449219,20.629009246826172,2.135120391845703,10.669559478759766,2392.2255294322968
D4:22:CD:00:49:AA,-165.62245178222656,-79.27356719970703,77.71222686767578,2.954364776611328,0.5477635860443115,8.940216064453125,2392.2255294322968
D4:22:CD:00:05:6E,105.1052017211914,-4.445439338684082,135.9989776611328,23.76791000366211,16.147064208984375,0.41002368927001953,2392.2255294322968
D4:22:CD:00:05:5E,-157.0264129638672,-33.456966400146484,-21.827468872070312,2.2071585655212402,-5.026750564575195,0.9407110214233398,2392.2255294322968
D4:22:CD:00:05:5D,169.98487854003906,-2.910764455795288,-128.85560607910156,-17.945648193359375,-8.088945388793945,8.864927291870117,2392.2555298805237
D4:22:CD:00:05:6B,-54.64712142944336,-35.65745162963867,2.2763848304748535,12.977163314819336,0.3611764907836914,-5.818873405456543,2392.2555298805237
D4:22:CD:00:49:AA,-165.99005126953125,-79.03511810302734,78.3734130859375,0.6741592884063721,3.1286401748657227,8.594100952148438,2392.2555298805237
D4:22:CD:00:05:6E,109.00418853759766,15.499642372131348,152.68600463867188,10.59310531616211,13.347475051879883,-1.5021448135375977,2392.2555298805237
D4:22:CD:00:05:5E,-157.8333740234375,-36.5074348449707,-21.801712036132812,0.7644388675689697,-5.982999801635742,0.6279668807983398,2392.2555298805237
D4:22:CD:00:05:5D,164.06185913085938,-0.03670842945575714,-127.86048889160156,-6.817085266113281,-6.559624671936035,-0.5252723693847656,2392.315033197403
D4:22:CD:00:05:6B,-54.5423469543457,-35.18525695800781,-3.3234338760375977,1.3015260696411133,-4.53599739074707,-5.794220924377441,2392.315033197403
D4:22:CD:00:49:AA,-171.57850646972656,-78.11019897460938,83.81234741210938,8.283061981201172,-0.22047361731529236,9.954229354858398,2392.315033197403
D4:22:CD:00:05:6E,125.24803161621094,31.95856475830078,168.1236114501953,5.000714302062988,11.202011108398438,3.478949546813965,2392.315033197403
D4:22:CD:00:05:5E,-158.0203094482422,-40.7570686340332,-23.582563400268555,2.5358376502990723,-7.369922637939453,2.6125926971435547,2392.315033197403
D4:22:CD:00:05:5D,162.7052459716797,-0.4738057851791382,-127.99134063720703,-1.6465919017791748,-1.227996587753296,-6.434331893920898,2392.345034122467
D4:22:CD:00:05:6B,-56.44526672363281,-41.66666030883789,-8.976999282836914,-3.660867691040039,-1.1656184196472168,-4.174126625061035,2392.345034122467
D4:22:CD:00:49:AA,179.16851806640625,-78.10743713378906,91.28135681152344,8.341638565063477,2.630095958709717,7.0821685791015625,2392.345034122467
D4:22:CD:00:05:6E,145.94052124023438,41.753578186035156,-177.5891571044922,-1.8796286582946777,4.352680206298828,2.4528675079345703,2392.345034122467
D4:22:CD:00:05:5E,-154.8203582763672,-48.565773010253906,-27.45657730102539,15.42605209350586,-12.545482635498047,4.194513320922852,2392.345034122467
D4:22:CD:00:05:5D,163.48646545410156,-5.285339832305908,-128.93959045410156,-3.708569049835205,2.974874496459961,-8.627410888671875,2392.375559091568
D4:22:CD:00:05:6B,-54.73078536987305,-52.88138961791992,-17.251842498779297,-3.8591413497924805,-3.4406113624572754,-2.082001209259033,2392.375559091568
D4:22:CD:00:49:AA,168.3994140625,-78.04010009765625,99.28514862060547,2.7857422828674316,2.256831645965576,5.4532623291015625,2392.375559091568
D4:22:CD:00:05:6E,167.55419921875,45.73237609863281,-165.77122497558594,-2.558013439178467,-2.8243908882141113,1.528620719909668,2392.375559091568
D4:22:CD:00:05:5E,-145.65782165527344,-55.520851135253906,-32.48240280151367,0.41850459575653076,-10.218894958496094,-0.2951221466064453,2392.375559091568
D4:22:CD:00:05:5D,163.3264923095703,-13.890209197998047,-130.10337829589844,-3.445377826690674,1.2840547561645508,-14.448661804199219,2392.405557870865
D4:22:CD:00:05:6B,-44.14494705200195,-65.43040466308594,-33.23997497558594,-6.294609069824219,-4.682097434997559,-5.166231155395508,2392.405557870865
D4:22:CD:00:49:AA,155.4902801513672,-78.27936553955078,109.68074798583984,-0.25577032566070557,0.7704933881759644,-0.03226661682128906,2392.405557870865
D4:22:CD:00:05:6E,172.5963897705078,46.33501052856445,-161.62313842773438,-3.8664889335632324,-1.2000408172607422,-5.458950996398926,2392.405557870865
D4:22:CD:00:05:5E,-146.64471435546875,-57.01653289794922,-32.70204544067383,-13.499605178833008,-10.950817108154297,-5.935696601867676,2392.405557870865
D4:22:CD:00:05:5D,162.01588439941406,-25.430280685424805,-131.25668334960938,-5.482194900512695,0.5200879573822021,-15.061569213867188,2392.4355664253235
D4:22:CD:00:05:6B,-20.474092483520508,-75.59791564941406,-65.67798614501953,-4.737115859985352,-3.0957555770874023,-4.704439163208008,2392.4355664253235
D4:22:CD:00:49:AA,146.3934326171875,-78.03791809082031,116.44178771972656,-0.018005140125751495,0.23335376381874084,-8.520685195922852,2392.4355664253235
D4:22:CD:00:05:6E,162.80364990234375,44.18284225463867,-165.1249542236328,0.9748249053955078,-5.218184471130371,-8.968988418579102,2392.4355664253235
D4:22:CD:00:05:5E,-155.87753295898438,-55.845401763916016,-29.75061798095703,4.778563499450684,-2.8363122940063477,-11.05325698852539,2392.4355664253235
D4:22:CD:00:05:5D,158.1987762451172,-39.41682815551758,-132.94790649414062,-6.831415176391602,-0.7951004505157471,-12.072092056274414,2392.4655814170837
D4:22:CD:00:05:6B,22.697683334350586,-78.87262725830078,-121.36392211914062,-9.457796096801758,0.5021352767944336,-5.857909202575684,2392.4655814170837
D4:22:CD:00:49:AA,142.58377075195312,-77.47924041748047,119.40882110595703,-1.7169325351715088,0.5477521419525146,-9.774957656860352,2392.4655814170837
D4:22:CD:00:05:6E,149.8159637451172,38.31781768798828,-172.63665771484375,-0.8933029174804688,-2.880520820617676,-10.45743179321289,2392.4655814170837
D4:22:CD:00:05:5E,-158.52467346191406,-56.93722915649414,-28.946048736572266,2.4188709259033203,-1.6888713836669922,-11.638811111450195,2392.4655814170837
D4:22:CD:00:05:5D,153.7168426513672,-55.67090606689453,-134.38499450683594,-4.922102928161621,-2.537163734436035,-5.461151123046875,2392.4951152801514
D4:22:CD:00:05:6B,62.92723083496094,-73.587646484375,-166.33668518066406,-7.036709785461426,3.6872916221618652,-6.988343238830566,2392.4951152801514
D4:22:CD:00:49:AA,138.33432006835938,-78.44926452636719,123.31613159179688,-2.4331603050231934,-0.48256391286849976,-8.556549072265625,2392.4951152801514
D4:22:CD:00:05:6E,134.62086486816406,27.670785903930664,179.37266540527344,-8.732646942138672,-2.3587136268615723,-6.8835649490356445,2392.4951152801514
D4:22:CD:00:05:5E,-157.2205047607422,-58.132545471191406,-29.13997459411621,-6.299741744995117,7.302135467529297,5.111881256103516,2392.4951152801514
D4:22:CD:00:05:5D,149.19985961914062,-74.38809204101562,-134.10360717773438,-1.3228600025177002,-0.39007723331451416,6.402139663696289,2392.526115655899
D4:22:CD:00:05:6B,81.26496124267578,-65.89701080322266,174.15249633789062,-4.273255348205566,3.9131531715393066,-6.929387092590332,2392.526115655899
D4:22:CD:00:49:AA,130.7371063232422,-80.43793487548828,129.96156311035156,2.3473782539367676,-0.2920380234718323,-10.657186508178711,2392.526115655899
D4:22:CD:00:05:6E,110.88768005371094,14.819073677062988,173.1034698486328,-28.188312530517578,2.263685703277588,6.021843910217285,2392.526115655899
D4:22:CD:00:05:5E,-156.5270538330078,-57.010704040527344,-29.511547088623047,5.287951469421387,5.123064994812012,-4.6717939376831055,2392.526115655899
D4:22:CD:00:05:5D,-13.273759841918945,-85.53717803955078,27.110532760620117,10.24036979675293,2.7968192100524902,16.515338897705078,2392.555116415024
D4:22:CD:00:05:6B,87.24505615234375,-59.14930725097656,165.6085205078125,-4.912572860717773,3.4549527168273926,-5.33394718170166,2392.555116415024
D4:22:CD:00:49:AA,123.63250732421875,-81.09916687011719,135.27658081054688,3.9941210746765137,0.6319605112075806,-10.062604904174805,2392.555116415024
D4:22:CD:00:05:6E,73.9942398071289,10.985897064208984,172.89376831054688,-14.87423324584961,-18.84040069580078,-8.861783981323242,2392.555116415024
D4:22:CD:00:05:5E,-161.06907653808594,-53.52791213989258,-30.031553268432617,5.350002288818359,-8.567464828491211,-1.3012800216674805,2392.555116415024
D4:22:CD:00:05:5D,-12.463366508483887,-69.09187316894531,32.07270050048828,19.248214721679688,14.69825553894043,12.809133529663086,2392.615662097931
D4:22:CD:00:05:6B,85.47323608398438,-55.16496658325195,161.72732543945312,-5.717687606811523,4.694007873535156,-3.868065357208252,2392.615662097931
D4:22:CD:00:49:AA,118.38243865966797,-80.66181945800781,138.24313354492188,1.2738862037658691,-1.163318395614624,-3.198542594909668,2392.615662097931
D4:22:CD:00:05:6E,55.7183952331543,18.574417114257812,169.55508422851562,-1.7581350803375244,8.544513702392578,-22.860477447509766,2392.615662097931
D4:22:CD:00:05:5E,-167.3889923095703,-49.350074768066406,-30.702301025390625,5.16887092590332,-3.471855640411377,-0.20823955535888672,2392.615662097931
D4:22:CD:00:05:5D,-7.817244529724121,-62.97349166870117,27.855384826660156,17.618511199951172,21.26336669921875,-31.461063385009766,2392.6456530094147
D4:22:CD:00:05:6B,77.11539459228516,-54.737060546875,159.2942352294922,-7.825525283813477,6.406534194946289,-1.5855083465576172,2392.6456530094147
D4:22:CD:00:49:AA,117.14212799072266,-80.89230346679688,139.64927673339844,-1.1998581886291504,-2.209747314453125,-2.039670944213867,2392.6456530094147
D4:22:CD:00:05:6E,58.86439514160156,31.1527042388916,163.88238525390625,-4.843916893005371,8.240236282348633,-19.397979736328125,2392.6456530094147
D4:22:CD:00:05:5E,-169.3400421142578,-46.93048858642578,-32.00312423706055,2.5024733543395996,-7.201775550842285,1.3534984588623047,2392.6456530094147
D4:22:CD:00:05:5D,-12.307682991027832,-66.22311401367188,24.921302795410156,13.922733306884766,-8.474800109863281,-1.7250118255615234,2392.67529964447
D4:22:CD:00:05:6B,69.10466003417969,-56.33196258544922,157.2733917236328,-10.517147064208984,12.489151000976562,1.8571863174438477,2392.67529964447
D4:22:CD:00:49:AA,130.96652221679688,-82.2430419921875,127.53408813476562,4.2183637619018555,-2.17533540725708,3.5245723724365234,2392.67529964447
D4:22:CD:00:05:6E,74.7518310546875,49.03473663330078,157.49644470214844,-4.565664291381836,2.1070971488952637,-10.566434860229492,2392.67529964447
D4:22:CD:00:05:5E,-167.80845642089844,-46.6792106628418,-33.89963912963867,4.449224472045898,-9.042652130126953,2.1195716857910156,2392.67529964447
D4:22:CD:00:05:5D,6.190890312194824,-73.970947265625,14.118982315063477,14.439554214477539,-1.1857759952545166,0.023000717163085938,2392.7052993774414
D4:22:CD:00:05:6B,71.8026123046875,-58.07440185546875,154.907470703125,-8.62069320678711,14.427085876464844,2.3596153259277344,2392.7052993774414
D4:22:CD:00:49:AA,138.1321258544922,-83.04263305664062,120.25044250488281,7.207648277282715,-0.23392194509506226,8.199979782104492,2392.7052993774414
D4:22:CD:00:05:6E,87.19140625,66.77133178710938,149.39224243164062,-3.277520179748535,-0.041451647877693176,-7.971778869628906,2392.7052993774414
D4:22:CD:00:05:5E,-164.7680206298828,-47.414306640625,-36.74878692626953,6.5433244705200195,-6.816436767578125,3.487027168273926,2392.7052993774414
D4:22:CD:00:05:5D,50.63734817504883,-81.59178924560547,-17.083600997924805,12.3946533203125,1.554983139038086,11.064685821533203,2392.7352995872498
D4:22:CD:00:05:6B,84.62918853759766,-59.776824951171875,152.9160919189453,-8.943841934204102,9.691686630249023,4.857298851013184,2392.7352995872498
D4:22:CD:00:49:AA,141.70944213867188,-83.56532287597656,116.7955093383789,-0.20944011211395264,0.33444511890411377,5.4413604736328125,2392.7352995872498
D4:22:CD:00:05:6E,79.88583374023438,80.43620300292969,126.83694458007812,4.210226058959961,-0.023234840482473373,-5.0938920974731445,2392.7352995872498
D4:22:CD:00:05:5E,-157.309326171875,-50.56901550292969,-40.63550567626953,5.829494476318359,-5.045326232910156,-2.837174892425537,2392.7352995872498
D4:22:CD:00:05:5D,99.32611083984375,-82.39326477050781,-61.85991668701172,-14.785152435302734,-6.028896331787109,6.721622467041016,2392.7653148174286
D4:22:CD:00:05:6B,100.62709045410156,-62.21855545043945,151.20977783203125,-4.827300071716309,3.1564459800720215,6.551643371582031,2392.7653148174286
D4:22:CD:00:49:AA,149.71934509277344,-83.5560073852539,111.25298309326172,-0.031506381928920746,-0.31573057174682617,3.1953554153442383,2392.7653148174286
D4:22:CD:00:05:6E,11.484967231750488,83.40991973876953,45.095951080322266,5.568791389465332,-0.16673797369003296,-0.03296375274658203,2392.7653148174286
D4:22:CD:00:05:5E,-146.74913024902344,-50.84439468383789,-45.539161682128906,2.6261119842529297,-9.873008728027344,-4.630657196044922,2392.7653148174286
D4:22:CD:00:05:5D,112.78278350830078,-84.77052307128906,-74.35554504394531,6.444920539855957,-14.099016189575195,4.110986709594727,2392.794851541519
D4:22:CD:00:05:6B,116.78057861328125,-65.59703826904297,147.5371551513672,-1.2366406917572021,2.9454073905944824,3.8797483444213867,2392.794851541519
D4:22:CD:00:49:AA,161.96263122558594,-82.50151062011719,103.91336059570312,-1.1783618927001953,-2.620026111602783,-1.2331171035766602,2392.794851541519
D4:22:CD:00:05:6E,3.645449161529541,79.13398742675781,22.25560760498047,12.603752136230469,-7.911194801330566,1.9777631759643555,2392.794851541519
D4:22:CD:00:05:5E,-135.3660125732422,-49.42292022705078,-47.276878356933594,-7.784176826477051,-12.48567008972168,3.211305618286133,2392.794851541519
D4:22:CD:00:05:5D,132.28350830078125,-84.96044158935547,-89.74116516113281,-8.478551864624023,9.557516098022461,2.953951835632324,2392.824850797653
D4:22:CD:00:05:6B,136.9699249267578,-69.05915069580078,141.29591369628906,-2.057084560394287,-0.46111994981765747,-3.0777907371520996,2392.824850797653
D4:22:CD:00:49:AA,173.6536407470703,-80.41376495361328,98.85408020019531,-2.757831573486328,-4.487353324890137,-4.291871070861816,2392.824850797653
D4:22:CD:00:05:6E,29.089895248413086,76.06781005859375,29.40331268310547,12.362548828125,-1.4428925514221191,-2.2549681663513184,2392.824850797653
D4:22:CD:00:05:5E,-124.04581451416016,-46.33054733276367,-44.228973388671875,-18.697208404541016,-20.60870361328125,7.233251571655273,2392.824850797653
D4:22:CD:00:05:5D,155.7021942138672,-84.16471099853516,-108.17705535888672,-0.9606814384460449,-0.376531720161438,0.17525577545166016,2392.8548531532288
D4:22:CD:00:05:6B,158.07240295410156,-70.66983795166016,136.13812255859375,17.990161895751953,-1.2833914756774902,-7.815489768981934,2392.8548531532288
D4:22:CD:00:49:AA,178.83351135253906,-77.5042495727539,99.86724853515625,-1.6002042293548584,1.2577950954437256,-5.280364036560059,2392.8548531532288
D4:22:CD:00:05:6E,56.321250915527344,72.07963562011719,43.120506286621094,4.00949764251709,11.217655181884766,0.9830608367919922,2392.8548531532288
D4:22:CD:00:05:5E,-118.45918273925781,-41.52104568481445,-34.81431198120117,-11.709981918334961,-22.851287841796875,-5.383996963500977,2392.8548531532288
D4:22:CD:00:05:5D,170.1258544921875,-82.19164276123047,-120.23516845703125,-1.4777123928070068,1.189819097518921,0.7987136840820312,2392.9154047966003
D4:22:CD:00:05:6B,164.280029296875,-70.47891998291016,137.16070556640625,0.1080927848815918,-2.360644817352295,-2.981156349182129,2392.9154047966003
D4:22:CD:00:49:AA,179.6009063720703,-75.05704498291016,103.58004760742188,1.8141019344329834,3.018460750579834,-3.2919297218322754,2392.9154047966003
D4:22:CD:00:05:6E,65.64476776123047,65.38226318359375,45.5066032409668,11.058486938476562,3.4165148735046387,0.40021514892578125,2392.9154047966003
D4:22:CD:00:05:5E,-121.00090026855469,-36.13829040527344,-21.49549674987793,-6.026080131530762,-14.429838180541992,-10.435325622558594,2392.9154047966003
D4:22:CD:00:05:5D,177.38368225097656,-79.90640258789062,-127.75993347167969,0.5558757781982422,0.1896570920944214,0.6249179840087891,2392.9454045295715
D4:22:CD:00:05:6B,155.53311157226562,-70.59425354003906,145.29116821289062,-0.9431126117706299,-4.955632209777832,4.905264854431152,2392.9454045295715
D4:22:CD:00:49:AA,177.072998046875,-72.59257507324219,105.53803253173828,3.616532802581787,0.3493437170982361,2.0062942504882812,2392.9454045295715
D4:22:CD:00:05:6E,69.85208892822266,56.71772766113281,39.161170959472656,9.065486907958984,1.901679277420044,-4.409547805786133,2392.9454045295715
D4:22:CD:00:05:5E,-127.34123992919922,-31.052396774291992,-7.066499710083008,-0.6346839666366577,-4.796405792236328,-13.309518814086914,2392.9454045295715
D4:22:CD:00:05:5D,-178.99496459960938,-78.01303100585938,-131.9783172607422,0.6549654006958008,0.27959638833999634,0.4656343460083008,2392.9749479293823
D4:22:CD:00:05:6B,145.75172424316406,-72.59086608886719,148.45062255859375,-8.592397689819336,-4.235428810119629,4.144830703735352,2392.9749479293823
D4:22:CD:00:49:AA,176.8323974609375,-70.09214782714844,104.90434265136719,-2.502208709716797,1.6672031879425049,2.5991106033325195,2392.9749479293823
D4:22:CD:00:05:6E,74.64683532714844,46.06724166870117,32.42316436767578,7.48760986328125,5.9901123046875,-6.496854782104492,2392.9749479293823
D4:22:CD:00:05:5E,-136.40707397460938,-26.428165435791016,5.415840148925781,0.31420743465423584,4.569832801818848,-12.687629699707031,2392.9749479293823
D4:22:CD:00:05:5D,-177.79055786132812,-76.37268829345703,-134.0155792236328,1.062201976776123,-0.022314749658107758,0.3038167953491211,2393.0049483776093
D4:22:CD:00:05:6B,144.2344512939453,-77.34490203857422,143.31275939941406,-8.345233917236328,-1.55934476852417,0.629572868347168,2393.0049483776093
D4:22:CD:00:49:AA,176.52716064453125,-68.86788177490234,104.78272247314453,-4.80415153503418,1.5959703922271729,0.17923831939697266,2393.0049483776093
D4:22:CD:00:05:6E,78.05538940429688,33.92022705078125,27.722763061523438,7.432126045227051,3.564535140991211,-8.777168273925781,2393.0049483776093
D4:22:CD:00:05:5E,-143.55931091308594,-24.49115753173828,13.981165885925293,0.8703862428665161,8.953594207763672,-9.835332870483398,2393.0049483776093
D4:22:CD:00:05:5D,-177.718505859375,-74.83341217041016,-134.56517028808594,0.05138339102268219,-0.39454585313796997,0.031655311584472656,2393.0350222587585
D4:22:CD:00:05:6B,153.05035400390625,-83.19583129882812,128.66552734375,-4.415243148803711,-1.688396692276001,-2.9657254219055176,2393.0350222587585
D4:22:CD:00:49:AA,175.07679748535156,-68.70805358886719,105.4600601196289,-2.955778121948242,1.7547149658203125,-0.260986328125,2393.0350222587585
D4:22:CD:00:05:6E,82.17393493652344,20.280426025390625,26.115367889404297,9.695199966430664,3.5448856353759766,-9.357933044433594,2393.0350222587585
D4:22:CD:00:05:5E,-146.9194793701172,-25.98699378967285,18.528287887573242,8.843080520629883,11.395397186279297,-6.788008689880371,2393.0350222587585
D4:22:CD:00:05:5D,-179.20484924316406,-72.89678955078125,-133.25660705566406,-0.3207772970199585,-1.8468143939971924,-0.9362239837646484,2393.065038919449
D4:22:CD:00:05:6B,-129.0641326904297,-87.34141540527344,46.31211853027344,-4.175570487976074,0.06781148910522461,-5.051339149475098,2393.065038919449
D4:22:CD:00:49:AA,170.0391387939453,-69.38219451904297,109.51756286621094,-2.2315101623535156,1.7242069244384766,-1.602147102355957,2393.065038919449
D4:22:CD:00:05:6E,86.65731048583984,4.544012546539307,27.703229904174805,14.617576599121094,6.849154472351074,-8.692672729492188,2393.065038919449
D4:22:CD:00:05:5E,-147.3078155517578,-31.23674774169922,17.95261573791504,13.160888671875,16.426223754882812,-7.562466621398926,2393.065038919449
D4:22:CD:00:05:5D,178.705078125,-70.21222686767578,-130.92535400390625,-0.24940112233161926,-2.4323811531066895,-1.2135334014892578,2393.095712661743
D4:22:CD:00:05:6B,-69.42462158203125,-81.5799789428711,-17.14772605895996,-3.9486851692199707,1.0721385478973389,-5.835658073425293,2393.095712661743
D4:22:CD:00:49:AA,161.4281005859375,-70.3965072631836,117.43448638916016,-3.370741844177246,0.8349547386169434,-2.5648608207702637,2393.095712661743
D4:22:CD:00:05:6E,85.16959381103516,-13.193899154663086,32.30485153198242,23.635311126708984,17.206260681152344,11.130020141601562,2393.095712661743
D4:22:CD:00:05:5E,-147.97239685058594,-36.24567794799805,15.578468322753906,-8.962656021118164,-38.480499267578125,63.95489501953125,2393.095712661743
D4:22:CD:00:05:5D,175.02023315429688,-66.80272674560547,-127.38356018066406,-1.23380446434021,-1.3472588062286377,-0.8274087905883789,2393.1257123947144
D4:22:CD:00:05:6B,-62.16521453857422,-73.5831069946289,-27.253530502319336,-5.7020063400268555,2.2770071029663086,-5.910958290100098,2393.1257123947144
D4:22:CD:00:49:AA,153.6228485107422,-71.26563262939453,125.88642883300781,-3.0200467109680176,-0.42354315519332886,-2.581730842590332,2393.1257123947144
D4:22:CD:00:05:6E,69.91185760498047,-23.885427474975586,36.750404357910156,2.9982619285583496,22.235210418701172,10.29336929321289,2393.1257123947144
D4:22:CD:00:05:5E,-157.5279541015625,-34.3740234375,15.012431144714355,13.559539794921875,11.27525520324707,-11.269899368286133,2393.1257123947144
D4:22:CD:00:05:5D,172.03268432617188,-62.93395233154297,-121.287109375,1.5926992893218994,0.3582473397254944,-0.3050546646118164,2393.155712366104
D4:22:CD:00:05:6B,-63.28641128540039,-64.060302734375,-29.82511329650879,-9.398078918457031,4.730875015258789,-4.510557174682617,2393.155712366104
D4:22:CD:00:49:AA,147.70570373535156,-72.01142883300781,133.740478515625,2.2891364097595215,0.4369206428527832,-1.3419818878173828,2393.155712366104
D4:22:CD:00:05:6E,59.70405197143555,-22.593114852905273,32.94688034057617,32.87506866455078,-8.751232147216797,-28.08273696899414,2393.155712366104
D4:22:CD:00:05:5E,-155.96949768066406,-35.79154968261719,13.864542007446289,20.611019134521484,-2.3816652297973633,3.169933319091797,2393.155712366104
D4:22:CD:00:05:5D,171.2283935546875,-58.956363677978516,-117.13536834716797,3.181602954864502,-0.7674325704574585,0.720698356628418,2393.2152557373047
D4:22:CD:00:05:6B,-69.00541687011719,-52.263004302978516,-27.794466018676758,-19.224578857421875,12.393070220947266,10.538360595703125,2393.2152557373047
D4:22:CD:00:49:AA,141.52398681640625,-72.87519073486328,142.05941772460938,3.641585350036621,2.5287246704101562,1.3562593460083008,2393.2152557373047
D4:22:CD:00:05:6E,80.71980285644531,-18.744293212890625,32.653953552246094,3.7735037803649902,20.005756378173828,-3.8032822608947754,2393.2152557373047
D4:22:CD:00:05:5E,-150.7081756591797,-35.941917419433594,14.348318099975586,20.897510528564453,-3.2909135818481445,8.835546493530273,2393.2152557373047
D4:22:CD:00:05:5D,171.54098510742188,-55.67642593383789,-115.40332794189453,0.9640911817550659,1.3325963020324707,1.3127288818359375,2393.2455966472626
D4:22:CD:00:05:6B,-67.17436981201172,-38.187992095947266,-25.204029083251953,-14.607196807861328,17.340652465820312,4.265434265136719,2393.2455966472626
D4:22:CD:00:49:AA,138.6952362060547,-72.30960083007812,146.03286743164062,-2.7949318885803223,0.4042544364929199,10.195573806762695,2393.2455966472626
D4:22:CD:00:05:6E,85.45758819580078,-19.174524307250977,33.286399841308594,12.489147186279297,15.016077041625977,-10.087614059448242,2393.2455966472626
D4:22:CD:00:05:5E,-147.83602905273438,-32.17979049682617,14.848275184631348,22.772048950195312,0.7953342199325562,11.675542831420898,2393.2455966472626
D4:22:CD:00:05:5D,172.11294555664062,-53.790504455566406,-114.91263580322266,0.1477903425693512,1.3863539695739746,1.5057735443115234,2393.275220155716
D4:22:CD:00:05:6B,-75.17713165283203,-19.593347549438477,-19.947580337524414,-17.75408935546875,16.743854522705078,19.71484375,2393.275220155716
D4:22:CD:00:49:AA,136.2412109375,-72.14525604248047,148.57664489746094,-0.2302849292755127,-2.8345398902893066,4.528186798095703,2393.275220155716
D4:22:CD:00:05:6E,91.30660247802734,-21.99009895324707,34.44474792480469,13.968852996826172,13.222084045410156,-6.239847183227539,2393.275220155716
D4:22:CD:00:05:5E,-148.71519470214844,-25.826520919799805,15.945252418518066,25.00928497314453,-4.951682090759277,7.369367599487305,2393.275220155716
D4:22:CD:00:05:5D,172.9998321533203,-53.77851867675781,-115.02826690673828,0.9082328081130981,0.47472965717315674,1.418574333190918,2393.3052201271057
D4:22:CD:00:05:6B,-71.37567138671875,1.0585086345672607,-14.672492980957031,-2.0147485733032227,7.991715431213379,18.937007904052734,2393.3052201271057
D4:22:CD:00:49:AA,136.1885986328125,-72.20195007324219,147.8800506591797,-0.7885907888412476,-1.2707605361938477,7.571575164794922,2393.3052201271057
D4:22:CD:00:05:6E,100.74394989013672,-25.866621017456055,37.41264343261719,10.740922927856445,13.353961944580078,2.160247802734375,2393.3052201271057
D4:22:CD:00:05:5E,-148.7888946533203,-20.92057228088379,17.192842483520508,14.082012176513672,-2.607402801513672,11.071451187133789,2393.3052201271057
D4:22:CD:00:05:5D,173.6001739501953,-54.98198699951172,-115.08193969726562,-0.2428559958934784,1.183809518814087,1.498866081237793,2393.3352200984955
D4:22:CD:00:05:6B,-59.60896682739258,20.809370040893555,-9.901474952697754,3.4880638122558594,-0.48826420307159424,13.771724700927734,2393.3352200984955
D4:22:CD:00:49:AA,137.34780883789062,-72.5767822265625,146.90296936035156,-0.738960862159729,-0.8634616136550903,5.212608337402344,2393.3352200984955
D4:22:CD:00:05:6E,110.29122161865234,-31.619752883911133,43.27945327758789,10.78355598449707,14.598539352416992,7.480144500732422,2393.3352200984955
D4:22:CD:00:05:5E,-148.48948669433594,-18.708038330078125,18.14640235900879,2.3398380279541016,-1.2676994800567627,3.176192283630371,2393.3352200984955
D4:22:CD:00:05:5D,174.61993408203125,-57.02561950683594,-115.9946060180664,-0.6583517789840698,1.1203057765960693,0.8976650238037109,2393.365234375
D4:22:CD:00:05:6B,-50.39753723144531,37.45817184448242,-3.521242380142212,7.0932769775390625,-4.078174591064453,7.440242767333984,2393.365234375
D4:22:CD:00:49:AA,142.58229064941406,-73.24726867675781,142.63241577148438,-2.2574596405029297,-0.18801328539848328,3.0407228469848633,2393.365234375
D4:22:CD:00:05:6E,122.38545989990234,-40.26844024658203,50.658504486083984,2.6118907928466797,8.01736068725586,15.331441879272461,2393.365234375
D4:22:CD:00:05:5E,-148.8019561767578,-20.052894592285156,16.939668655395508,-4.8261308670043945,3.6137752532958984,-3.1049365997314453,2393.365234375
D4:22:CD:00:05:5D,176.3607177734375,-59.7137565612793,-117.87566375732422,-0.05115921050310135,1.0391669273376465,1.441239356994629,2393.3957691192627
D4:22:CD:00:05:6B,-42.17533493041992,49.2874755859375,6.2057013511657715,7.717072486877441,-5.702770233154297,1.2285003662109375,2393.3957691192627
D4:22:CD:00:49:AA,151.76800537109375,-74.13919830322266,135.47792053222656,-5.847776412963867,2.3625388145446777,4.162351608276367,2393.3957691192627
D4:22:CD:00:05:6E,133.9705352783203,-49.76666259765625,56.089073181152344,-1.1471948623657227,-2.1557798385620117,10.57172966003418,2393.3957691192627
D4:22:CD:00:05:5E,-147.88768005371094,-25.372697830200195,12.588227272033691,-7.016622543334961,8.28598403930664,-9.826234817504883,2393.3957691192627
D4:22:CD:00:05:5D,178.3193817138672,-63.51070022583008,-120.03292846679688,1.5695507526397705,1.1723594665527344,3.341949462890625,2393.4257624149323
D4:22:CD:00:05:6B,-31.882991790771484,55.21615219116211,17.441028594970703,4.544212341308594,-3.1007771492004395,-2.0866880416870117,2393.4257624149323
D4:22:CD:00:49:AA,163.60076904296875,-73.92431640625,126.51433563232422,-7.150409698486328,2.204685688018799,7.060386657714844,2393.4257624149323
D4:22:CD:00:05:6E,147.38461303710938,-57.77646255493164,57.33856964111328,-3.269341468811035,-7.674465179443359,4.70728874206543,2393.4257624149323
D4:22:CD:00:05:5E,-143.23876953125,-33.81908416748047,4.535521507263184,-3.4592819213867188,10.659873962402344,-12.786603927612305,2393.4257624149323
D4:22:CD:00:05:5D,179.44610595703125,-68.9830322265625,-121.56050109863281,-1.104320764541626,0.5443785190582275,6.686252593994141,2393.455769777298
D4:22:CD:00:05:6B,-20.343124389648438,56.26504135131836,23.338916778564453,6.028717994689941,-0.8421878814697266,-4.183406829833984,2393.455769777298
D4:22:CD:00:49:AA,175.67376708984375,-73.75711059570312,118.36759948730469,-4.121309280395508,0.46204686164855957,4.193570137023926,2393.455769777298
D4:22:CD:00:05:6E,165.4415740966797,-62.825584411621094,51.749794006347656,-1.7938578128814697,-9.15566635131836,-1.726083755493164,2393.455769777298
D4:22:CD:00:05:5E,-134.9453125,-43.44287872314453,-7.359724521636963,0.6387659311294556,6.640803337097168,-9.487386703491211,2393.455769777298
D4:22:CD:00:05:5D,174.97479248046875,-76.77079010009766,-123.92911529541016,-4.365324020385742,4.597929000854492,4.177335739135742,2393.51531291008
D4:22:CD:00:05:6B,-8.330642700195312,55.606895446777344,20.530094146728516,0.7493129968643188,-1.3633205890655518,-5.17997932434082,2393.51531291008
D4:22:CD:00:49:AA,-172.68350219726562,-72.81674194335938,111.41026306152344,-1.3969731330871582,0.31322991847991943,-3.295288562774658,2393.51531291008
D4:22:CD:00:05:6E,-173.313232421875,-64.26609802246094,41.925537109375,0.7815914154052734,-6.786017417907715,-6.449056625366211,2393.51531291008
D4:22:CD:00:05:5E,-122.86376953125,-52.44298553466797,-23.819704055786133,1.4843971729278564,0.10236625373363495,-4.798830986022949,2393.51531291008
