Device,EulerX,EulerY,EulerZ,FreeAccX,FreeAccY,FreeAccZ,Timestamp
D4:22:CD:00:05:5D,176.48513793945312,-56.39762496948242,-135.22254943847656,1.3793048858642578,3.147599220275879,2.974151611328125,2357.7313101291656
D4:22:CD:00:05:6B,-56.24508285522461,-36.069210052490234,-141.9846649169922,6.719906806945801,6.452268600463867,2.6894845962524414,2357.7313101291656
D4:22:CD:00:49:AA,133.72003173828125,-72.4447250366211,153.62930297851562,1.5211312770843506,1.4123477935791016,4.799591064453125,2357.7313101291656
D4:22:CD:00:05:6E,90.28113555908203,-74.46896362304688,44.805965423583984,-2.112027645111084,4.894135475158691,7.683427810668945,2357.7313101291656
D4:22:CD:00:05:5E,163.35855102539062,-57.653175354003906,-1.088308334350586,3.814107894897461,-7.319028854370117,16.470901489257812,2357.7313101291656
D4:22:CD:00:05:5D,175.99612426757812,-53.95713806152344,-133.7419891357422,-0.09406229853630066,2.834923267364502,2.44045352935791,2357.734309911728
D4:22:CD:00:05:6B,-60.314544677734375,-26.612836837768555,-142.65232849121094,10.547203063964844,10.214336395263672,15.472618103027344,2357.734309911728
D4:22:CD:00:49:AA,132.4776611328125,-71.69554138183594,156.06900024414062,-1.4368278980255127,-2.472712516784668,10.919288635253906,2357.734309911728
D4:22:CD:00:05:6E,100.07157897949219,-68.5650863647461,39.88111877441406,-1.8323922157287598,2.3319358825683594,15.317131042480469,2357.734309911728
D4:22:CD:00:05:5E,172.68850708007812,-55.170623779296875,-1.9111014604568481,10.098714828491211,-7.453708648681641,14.02383804321289,2357.734309911728
D4:22:CD:00:05:5D,176.63742065429688,-53.50921630859375,-133.6329345703125,1.0588138103485107,2.0256171226501465,2.7757701873779297,2357.737302303314
D4:22:CD:00:05:6B,-66.11690521240234,-13.922341346740723,-136.5726318359375,7.6791791915893555,14.801950454711914,25.92083740234375,2357.737302303314
D4:22:CD:00:49:AA,133.9892120361328,-72.03251647949219,155.06529235839844,-3.312755584716797,-1.886279821395874,12.428955078125,2357.737302303314
D4:22:CD:00:05:6E,104.67716217041016,-61.22011947631836,36.05518341064453,0.3514362573623657,3.397935390472412,17.318443298339844,2357.737302303314
D4:22:CD:00:05:5E,177.7468719482422,-52.844417572021484,-3.177180290222168,10.371658325195312,-2.4078469276428223,4.213242530822754,2357.737302303314
D4:22:CD:00:05:6B,-64.72799682617188,0.38816773891448975,-124.400146484375,-4.230670928955078,1.2561533451080322,23.080486297607422,2357.740759372711
D4:22:CD:00:49:AA,134.90380859375,-72.40895080566406,154.0850830078125,2.953040599822998,-0.9565768241882324,8.783124923706055,2357.740759372711
D4:22:CD:00:05:6E,104.45265197753906,-57.29926300048828,34.36941146850586,-0.2314465045928955,1.2266268730163574,6.465782165527344,2357.740759372711
D4:22:CD:00:05:5E,174.0979766845703,-52.80913543701172,-4.009490489959717,-5.019388198852539,-2.982907772064209,4.774325370788574,2357.740759372711
D4:22:CD:00:05:5D,162.51434326171875,-55.21002197265625,-95.2509765625,-6.142389297485352,-0.6992517709732056,3.06868839263916,2357.74276137352
D4:22:CD:00:05:6B,-40.094112396240234,-33.196468353271484,-59.0093994140625,3.461115837097168,-0.24419176578521729,2.575054168701172,2357.74276137352
D4:22:CD:00:49:AA,-176.33352661132812,-66.94400024414062,112.65498352050781,-2.6550941467285156,3.173530101776123,5.342182159423828,2357.74276137352
D4:22:CD:00:05:5D,151.4160614013672,-52.707054138183594,-82.3901138305664,-1.6984350681304932,2.9163074493408203,-1.3827571868896484,2357.815766811371
D4:22:CD:00:05:6B,-49.778465270996094,-25.384122848510742,-59.194236755371094,-7.572909355163574,5.757567405700684,19.798748016357422,2357.815766811371
D4:22:CD:00:49:AA,-169.65118408203125,-71.21971893310547,106.99942779541016,0.6809903383255005,2.0781545639038086,8.720605850219727,2357.815766811371
D4:22:CD:00:05:6E,126.11324310302734,-78.36253356933594,14.460270881652832,0.8463418483734131,3.8495774269104004,10.339982986450195,2357.815766811371
D4:22:CD:00:05:5E,-172.4134521484375,-71.08985900878906,-34.83200454711914,5.62196159362793,1.1464784145355225,15.31452751159668,2357.815766811371
D4:22:CD:00:05:5D,148.16744995117188,-49.960182189941406,-76.18087768554688,6.980385780334473,3.659900665283203,-2.033822536468506,2357.8453080654144
D4:22:CD:00:05:6B,-48.3268928527832,-10.127717971801758,-58.40898513793945,-0.4382120966911316,-1.3047375679016113,30.992965698242188,2357.8453080654144
D4:22:CD:00:49:AA,-179.45062255859375,-75.47830200195312,116.20816040039062,6.117998123168945,2.527998447418213,9.530473709106445,2357.8453080654144
D4:22:CD:00:05:6E,157.28652954101562,-80.2819595336914,-5.666685104370117,-2.2067084312438965,-0.25204259157180786,7.432573318481445,2357.8453080654144
D4:22:CD:00:05:5E,-151.00753784179688,-73.79371643066406,-56.590030670166016,-0.809859037399292,0.47214895486831665,12.911697387695312,2357.8453080654144
D4:22:CD:00:05:5D,150.2915496826172,-49.8076171875,-75.98436737060547,9.134521484375,3.7510552406311035,-2.1219348907470703,2357.8754501342773
D4:22:CD:00:05:6B,-37.23387145996094,3.265474319458008,-56.70240783691406,0.6724205017089844,-5.915719032287598,22.759262084960938,2357.8754501342773
D4:22:CD:00:49:AA,158.32884216308594,-74.94412994384766,136.67034912109375,-1.8418869972229004,-1.453376054763794,8.041433334350586,2357.8754501342773
D4:22:CD:00:05:6E,162.11659240722656,-82.70996856689453,0.6835504770278931,-7.909441947937012,-1.622840404510498,5.24342155456543,2357.8754501342773
D4:22:CD:00:05:5E,-143.06820678710938,-74.99961853027344,-70.2767333984375,-10.916385650634766,-4.749815940856934,3.547390937805176,2357.8754501342773
D4:22:CD:00:05:5D,153.95736694335938,-51.70370864868164,-77.5687484741211,3.7384886741638184,0.713134765625,3.1380529403686523,2357.905450105667
D4:22:CD:00:05:6B,-20.89809799194336,12.684765815734863,-54.51741027832031,-6.979605674743652,-16.83123779296875,18.178634643554688,2357.905450105667
D4:22:CD:00:49:AA,155.1830596923828,-74.33940887451172,139.47702026367188,-4.258184432983398,-2.538153648376465,8.224193572998047,2357.905450105667
D4:22:CD:00:05:6E,176.99014282226562,-84.8340072631836,-8.889032363891602,-10.391578674316406,-5.146692276000977,2.4065513610839844,2357.905450105667
D4:22:CD:00:05:5E,-166.55824279785156,-72.02894592285156,-50.0102424621582,0.26182687282562256,-1.185772180557251,5.09360408782959,2357.905450105667
D4:22:CD:00:05:5D,156.48361206054688,-55.22416305541992,-78.15714263916016,0.15343359112739563,-1.647002935409546,5.839760780334473,2357.93599152565
D4:22:CD:00:05:6B,-0.8865993618965149,19.53549575805664,-54.43852233886719,-6.253006935119629,-12.266153335571289,4.756234169006348,2357.93599152565
D4:22:CD:00:49:AA,162.45660400390625,-75.82588958740234,133.93846130371094,-5.165946006774902,-2.690730094909668,8.195123672485352,2357.93599152565
D4:22:CD:00:05:6E,-126.03926086425781,-84.70742797851562,-65.0417709350586,-8.019901275634766,-5.256869316101074,0.12624359130859375,2357.93599152565
D4:22:CD:00:05:5E,-161.52479553222656,-70.48995208740234,-52.098663330078125,0.2862319350242615,5.696089744567871,1.5289201736450195,2357.93599152565
D4:22:CD:00:05:5D,155.7051544189453,-60.313575744628906,-75.13362884521484,-2.610753059387207,-3.574695110321045,7.996198654174805,2357.965084552765
D4:22:CD:00:05:6B,18.671140670776367,25.221555709838867,-56.577880859375,-9.513324737548828,-7.365206718444824,-1.1753559112548828,2357.965084552765
D4:22:CD:00:49:AA,178.5822296142578,-78.25165557861328,121.2439193725586,-2.6116995811462402,-0.8789135217666626,3.0582704544067383,2357.965084552765
D4:22:CD:00:05:6E,-93.4819564819336,-78.18307495117188,-96.20408630371094,-4.396333694458008,-9.009771347045898,0.29363441467285156,2357.965084552765
D4:22:CD:00:05:5E,-146.7469024658203,-69.29317474365234,-65.58030700683594,-1.561284065246582,3.0173144340515137,-7.547122001647949,2357.965084552765
D4:22:CD:00:05:5D,150.46273803710938,-66.06871795654297,-66.70033264160156,8.4630126953125,-8.008649826049805,7.157596588134766,2357.995082616806
D4:22:CD:00:05:6B,35.60532760620117,30.894649505615234,-59.86467742919922,-12.373882293701172,-5.016935348510742,-4.523099899291992,2357.995082616806
D4:22:CD:00:49:AA,-158.95480346679688,-79.52671813964844,103.02088928222656,0.17015883326530457,0.10236814618110657,-3.5278806686401367,2357.995082616806
D4:22:CD:00:05:6E,-86.27007293701172,-71.19654846191406,-101.587158203125,-3.3170666694641113,-8.47361946105957,-3.9775309562683105,2357.995082616806
D4:22:CD:00:05:5E,-132.8597412109375,-67.00775909423828,-80.90907287597656,2.662614345550537,3.6484341621398926,-13.028730392456055,2357.995082616806
D4:22:CD:00:05:5D,139.3380584716797,-72.58726501464844,-56.80360794067383,0.4684959650039673,1.0024399757385254,-4.4817705154418945,2358.0556309223175
D4:22:CD:00:05:6B,46.97805404663086,37.48097610473633,-62.81962203979492,-6.165504455566406,4.992232322692871,-8.950496673583984,2358.0556309223175
D4:22:CD:00:49:AA,-141.75123596191406,-78.62516021728516,90.05879211425781,1.8755569458007812,0.6060299873352051,-6.7313337326049805,2358.0556309223175
D4:22:CD:00:05:6E,-83.55863952636719,-67.12828826904297,-101.23422241210938,-0.8381954431533813,-6.067783355712891,-6.708608627319336,2358.0556309223175
D4:22:CD:00:05:5E,-118.9345932006836,-63.73377227783203,-97.51842498779297,1.9487133026123047,1.7484023571014404,-17.561553955078125,2358.0556309223175
D4:22:CD:00:05:5D,136.35934448242188,-73.24246215820312,-53.8074951171875,10.88444709777832,11.78907585144043,-10.104490280151367,2358.085631132126
D4:22:CD:00:05:6B,47.73462677001953,43.67949676513672,-69.26464080810547,8.430891036987305,8.325531005859375,-5.002293586730957,2358.085631132126
D4:22:CD:00:49:AA,-135.98788452148438,-78.63013458251953,86.42797088623047,4.056867599487305,2.7193379402160645,-8.75326919555664,2358.085631132126
D4:22:CD:00:05:6E,-82.05860900878906,-65.00518798828125,-99.6216812133789,-0.48887503147125244,-2.045832633972168,-8.110868453979492,2358.085631132126
D4:22:CD:00:05:5E,-106.17372131347656,-60.47722625732422,-114.29853820800781,-2.771519184112549,-4.9543561935424805,-17.781497955322266,2358.085631132126
D4:22:CD:00:05:5D,151.01727294921875,-72.18575286865234,-57.692020416259766,9.65606689453125,-3.030139446258545,-10.624120712280273,2358.1156470775604
D4:22:CD:00:05:6B,36.900665283203125,48.96887969970703,-84.2591781616211,9.695690155029297,2.433629035949707,-9.187566757202148,2358.1156470775604
D4:22:CD:00:49:AA,-133.14109802246094,-80.162353515625,83.9990005493164,1.4046893119812012,2.105502128601074,-10.548826217651367,2358.1156470775604
D4:22:CD:00:05:6E,-77.7999038696289,-63.546600341796875,-98.2401123046875,-0.7420641183853149,-2.5325560569763184,-6.845746994018555,2358.1156470775604
D4:22:CD:00:05:5E,-96.53421020507812,-58.966251373291016,-129.9888153076172,-6.45296573638916,-6.271327018737793,-15.452524185180664,2358.1156470775604
D4:22:CD:00:05:5D,161.45217895507812,-75.29498291015625,-62.45903396606445,-3.875199794769287,7.4643754959106445,-7.680450439453125,2358.145173549652
D4:22:CD:00:05:6B,12.764204978942871,49.19160079956055,-110.27237701416016,4.856601715087891,-2.576993942260742,-16.024742126464844,2358.145173549652
D4:22:CD:00:49:AA,-127.93892669677734,-82.60843658447266,78.28544616699219,-0.40599876642227173,1.5346407890319824,-8.809463500976562,2358.145173549652
D4:22:CD:00:05:6E,-69.25887298583984,-62.0854377746582,-99.23882293701172,-0.6300835609436035,-3.932551860809326,-7.651333808898926,2358.145173549652
D4:22:CD:00:05:5E,-83.90412139892578,-59.39127731323242,-148.3210906982422,-11.692888259887695,-6.221190452575684,-10.32332992553711,2358.145173549652
D4:22:CD:00:05:5D,167.377197265625,-75.38491821289062,-74.07284545898438,-7.725588798522949,12.591411590576172,-0.4834136962890625,2358.1751737594604
D4:22:CD:00:05:6B,-20.15044403076172,38.585182189941406,-134.68150329589844,-10.936975479125977,-11.274051666259766,-39.243324279785156,2358.1751737594604
D4:22:CD:00:49:AA,-122.42736053466797,-84.11943817138672,72.75984191894531,-1.6706058979034424,-0.3820803165435791,-6.555180549621582,2358.1751737594604
D4:22:CD:00:05:6E,-59.602745056152344,-59.91651153564453,-101.23524475097656,-0.5435304641723633,-7.337002754211426,-7.464447975158691,2358.1751737594604
D4:22:CD:00:05:5E,-69.41184997558594,-60.42657470703125,-168.21044921875,-29.262344360351562,-6.5592498779296875,-7.390467643737793,2358.1751737594604
D4:22:CD:00:05:5D,169.8715362548828,-73.54912567138672,-78.95515441894531,-9.146316528320312,-7.910755157470703,-3.2723140716552734,2358.2052595615387
D4:22:CD:00:05:6B,-39.075828552246094,28.71274185180664,-147.7186737060547,-27.01956558227539,8.50893783569336,-25.018413543701172,2358.2052595615387
D4:22:CD:00:49:AA,-112.87359619140625,-85.0838623046875,62.92180633544922,-1.1743652820587158,0.04673868417739868,-2.359455108642578,2358.2052595615387
D4:22:CD:00:05:6E,-50.785911560058594,-56.30158996582031,-102.9015884399414,1.103269100189209,-8.702167510986328,-7.817166328430176,2358.2052595615387
D4:22:CD:00:05:5E,-63.66643524169922,-63.666343688964844,176.05909729003906,-19.63610076904297,8.655479431152344,-7.508416175842285,2358.2052595615387
D4:22:CD:00:05:5D,169.47393798828125,-72.48817443847656,-74.61576080322266,-6.361115455627441,-7.088351249694824,2.143564224243164,2358.235472679138
D4:22:CD:00:05:6B,-61.36232376098633,37.00416946411133,-138.96688842773438,-1.3782758712768555,14.59385871887207,-1.7263069152832031,2358.235472679138
D4:22:CD:00:49:AA,-106.94728088378906,-86.0003662109375,55.8967399597168,-3.745615005493164,-0.9849261045455933,-2.2697272300720215,2358.235472679138
D4:22:CD:00:05:6E,-42.839168548583984,-52.16118240356445,-103.61448669433594,-2.680809497833252,-9.735532760620117,-8.37921142578125,2358.235472679138
D4:22:CD:00:05:5E,-56.876304626464844,-69.35909271240234,171.60791015625,-9.650663375854492,29.839168548583984,3.449549674987793,2358.235472679138
D4:22:CD:00:05:5D,167.16030883789062,-72.2700424194336,-65.9745864868164,2.235146999359131,-1.1106958389282227,3.2793712615966797,2358.2654724121094
D4:22:CD:00:05:6B,-59.42585754394531,48.16004180908203,-121.27088165283203,-11.957321166992188,-12.733890533447266,-12.957714080810547,2358.2654724121094
D4:22:CD:00:49:AA,-122.14055633544922,-85.74163055419922,70.44068908691406,-5.055395126342773,-4.997308731079102,-0.4108095169067383,2358.2654724121094
D4:22:CD:00:05:6E,-38.7374382019043,-49.46986389160156,-99.86447143554688,-0.7642151117324829,-11.079229354858398,-7.664006233215332,2358.2654724121094
D4:22:CD:00:05:5E,-63.75442123413086,-76.26258850097656,-176.33786010742188,4.700113296508789,-23.782245635986328,2.581064224243164,2358.2654724121094
D4:22:CD:00:05:5D,161.96231079101562,-72.02173614501953,-56.361324310302734,2.5122594833374023,0.5542300939559937,-1.7143611907958984,2358.2964720726013
D4:22:CD:00:05:6B,-39.488529205322266,53.201534271240234,-91.82495880126953,-5.800288200378418,-8.923913955688477,-20.41733169555664,2358.2964720726013
D4:22:CD:00:49:AA,-136.9170379638672,-85.2112045288086,84.21678924560547,0.1180868148803711,-4.495688438415527,0.6662321090698242,2358.2964720726013
D4:22:CD:00:05:6E,-38.74980545043945,-47.821834564208984,-93.47756958007812,4.591220855712891,-13.21072769165039,-6.079867362976074,2358.2964720726013
D4:22:CD:00:05:5E,-92.72506713867188,-78.3045883178711,-151.10543823242188,-4.120614051818848,-1.5952033996582031,20.151077270507812,2358.2964720726013
D4:22:CD:00:05:5D,155.31549072265625,-71.07713317871094,-48.84560012817383,-0.15007105469703674,-1.326796531677246,3.785008430480957,2358.3560264110565
D4:22:CD:00:05:6B,-22.606910705566406,47.37317657470703,-65.6578369140625,0.06498408317565918,-1.9353773593902588,-8.848657608032227,2358.3560264110565
D4:22:CD:00:49:AA,-149.3831024169922,-84.38057708740234,95.47217559814453,2.485074043273926,-2.093496799468994,1.4692621231079102,2358.3560264110565
D4:22:CD:00:05:6E,-48.61642837524414,-49.45098114013672,-85.40027618408203,7.021350860595703,-18.084148406982422,-8.159530639648438,2358.3560264110565
D4:22:CD:00:05:5E,-115.1926040649414,-78.2275619506836,-130.8604278564453,5.023455619812012,4.281608581542969,0.9765310287475586,2358.3560264110565
D4:22:CD:00:05:5D,147.9478759765625,-69.15628051757812,-42.93700408935547,4.600743293762207,-5.120116233825684,4.806268692016602,2358.385128736496
D4:22:CD:00:05:6B,-15.842508316040039,36.54951095581055,-48.850669860839844,0.3035176992416382,1.8523130416870117,-0.2126913070678711,2358.385128736496
D4:22:CD:00:49:AA,-152.51849365234375,-83.63203430175781,97.87982940673828,5.580109596252441,-0.9396408796310425,8.590726852416992,2358.385128736496
D4:22:CD:00:05:6E,-72.95475769042969,-54.52729797363281,-75.6447982788086,1.4894375801086426,-14.87910270690918,6.9334869384765625,2358.385128736496
D4:22:CD:00:05:5E,-122.99952697753906,-80.47045135498047,-121.03047180175781,-5.502382278442383,2.3362278938293457,2.3909454345703125,2358.385128736496
D4:22:CD:00:05:5D,140.8484344482422,-66.45804595947266,-39.721431732177734,5.037594795227051,-0.5021731853485107,10.680273056030273,2358.415129184723
D4:22:CD:00:05:6B,-15.954218864440918,23.829984664916992,-35.65130615234375,1.7095162868499756,7.392382621765137,2.4555492401123047,2358.415129184723
D4:22:CD:00:49:AA,-156.03163146972656,-82.91900634765625,99.83349609375,9.29212760925293,1.2458808422088623,8.02639389038086,2358.415129184723
D4:22:CD:00:05:6E,-95.66422271728516,-58.818992614746094,-64.54338836669922,5.773205757141113,6.466525077819824,12.078168869018555,2358.415129184723
D4:22:CD:00:05:5E,-104.0451889038086,-85.82402038574219,-134.86434936523438,-2.2403335571289062,-1.0114638805389404,0.7207298278808594,2358.415129184723
D4:22:CD:00:05:5D,132.84759521484375,-61.7849235534668,-44.62754821777344,7.029725074768066,16.53943634033203,12.669565200805664,2358.445603132248
D4:22:CD:00:05:6B,-20.18484115600586,11.928887367248535,-22.808446884155273,6.713644027709961,10.282054901123047,1.729649543762207,2358.445603132248
D4:22:CD:00:49:AA,-159.89389038085938,-83.73512268066406,100.78412628173828,7.097812652587891,3.3020195960998535,0.6212215423583984,2358.445603132248
D4:22:CD:00:05:6E,-100.56715393066406,-61.54006576538086,-56.711177825927734,3.4049463272094727,5.17873477935791,0.22469139099121094,2358.445603132248
D4:22:CD:00:05:5E,-58.80400848388672,-88.24699401855469,-174.979248046875,-2.588327407836914,2.6479592323303223,0.2992410659790039,2358.445603132248
D4:22:CD:00:05:5D,135.67620849609375,-51.474403381347656,-55.82558059692383,11.785457611083984,14.489927291870117,9.653606414794922,2358.4756033420563
D4:22:CD:00:05:6B,-28.438976287841797,2.48218035697937,-13.582871437072754,2.7759389877319336,20.357990264892578,-13.070302963256836,2358.4756033420563
D4:22:CD:00:49:AA,-161.0886688232422,-84.42599487304688,99.29135131835938,0.8718196153640747,0.5396102666854858,0.30181217193603516,2358.4756033420563
D4:22:CD:00:05:6E,-102.88446044921875,-63.954872131347656,-51.91427230834961,1.828705072402954,-6.236016273498535,-0.9122447967529297,2358.4756033420563
D4:22:CD:00:05:5E,20.64764976501465,-86.99534606933594,112.0506591796875,-2.3622589111328125,0.2862011790275574,-0.5311193466186523,2358.4756033420563
D4:22:CD:00:05:5D,141.4517822265625,-40.81964111328125,-66.26725769042969,7.548313140869141,3.799592971801758,-3.3530712127685547,2358.505603790283
D4:22:CD:00:05:6B,-46.00283432006836,-7.1020636558532715,-7.475255489349365,0.38421010971069336,-10.407342910766602,-2.842153549194336,2358.505603790283
D4:22:CD:00:49:AA,-153.8437042236328,-85.28740692138672,92.39077758789062,-1.8118839263916016,-0.50539231300354,4.129324913024902,2358.505603790283
D4:22:CD:00:05:6E,-108.42729949951172,-66.75784301757812,-50.02957534790039,-0.7047196626663208,-5.680793762207031,0.44687843322753906,2358.505603790283
D4:22:CD:00:05:5E,37.4236946105957,-84.26899719238281,103.121826171875,-4.667875289916992,-1.7989466190338135,-3.1214795112609863,2358.505603790283
D4:22:CD:00:05:5D,148.31471252441406,-31.366209030151367,-75.14653778076172,4.428256988525391,0.32319211959838867,-11.963846206665039,2358.5357937812805
D4:22:CD:00:05:6B,-56.83543395996094,-14.852917671203613,-2.8703267574310303,-4.669609069824219,-7.836912155151367,9.393983840942383,2358.5357937812805
D4:22:CD:00:49:AA,-153.32542419433594,-86.3637466430664,92.85539245605469,5.241204261779785,4.273553848266602,-4.631166458129883,2358.5357937812805
D4:22:CD:00:05:6E,-115.11837005615234,-70.04385375976562,-49.80406951904297,0.4763856530189514,-2.760261058807373,-1.0272417068481445,2358.5357937812805
D4:22:CD:00:05:5E,48.622371673583984,-83.3646011352539,98.2967529296875,-5.034677505493164,-4.335949897766113,-2.4145383834838867,2358.5357937812805
D4:22:CD:00:05:5D,157.15585327148438,-24.013439178466797,-82.19221496582031,1.5840303897857666,-0.16382604837417603,-15.128927230834961,2358.565791606903
D4:22:CD:00:05:6B,-60.47075271606445,-21.273338317871094,0.9769178032875061,-2.3670129776000977,-5.7451887130737305,5.318131446838379,2358.565791606903
D4:22:CD:00:49:AA,-162.72654724121094,-85.93726348876953,102.2474365234375,3.9919276237487793,2.355559825897217,-7.45915412902832,2358.565791606903
D4:22:CD:00:05:6E,-118.2417221069336,-74.04451751708984,-50.985679626464844,1.6379311084747314,0.35625749826431274,-2.8559699058532715,2358.565791606903
D4:22:CD:00:05:5E,69.84967041015625,-85.09547424316406,78.07858276367188,-4.209378242492676,0.505850076675415,0.5985746383666992,2358.565791606903
D4:22:CD:00:05:5D,166.4178466796875,-19.467695236206055,-88.32270812988281,-0.5270426273345947,-0.9982707500457764,-12.736108779907227,2358.5957906246185
D4:22:CD:00:05:6B,-59.84805679321289,-28.458833694458008,3.489633798599243,0.5533797740936279,-0.13806164264678955,-0.7042980194091797,2358.5957906246185
D4:22:CD:00:49:AA,-172.34915161132812,-84.74134063720703,112.3434829711914,0.10103601217269897,-1.3108601570129395,-6.89155387878418,2358.5957906246185
D4:22:CD:00:05:6E,-114.89604949951172,-78.58114624023438,-54.052589416503906,1.0635833740234375,1.8910164833068848,-4.019096374511719,2358.5957906246185
D4:22:CD:00:05:5E,137.77255249023438,-85.80581665039062,7.756904125213623,-2.8705320358276367,2.5299315452575684,-4.368908882141113,2358.5957906246185
D4:22:CD:00:05:5D,171.46438598632812,-18.588973999023438,-94.73233795166016,-8.261152267456055,-4.6586503982543945,-12.004167556762695,2358.655430316925
D4:22:CD:00:05:6B,-59.152950286865234,-38.53483963012695,2.4904720783233643,9.123489379882812,6.852784156799316,-0.841644287109375,2358.655430316925
D4:22:CD:00:49:AA,-174.1042938232422,-83.19966125488281,114.85739135742188,1.5365865230560303,-0.3965238332748413,-5.349486351013184,2358.655430316925
D4:22:CD:00:05:6E,-98.62562561035156,-83.45281982421875,-64.57196044921875,-0.1985349953174591,1.1733474731445312,-5.316777229309082,2358.655430316925
D4:22:CD:00:05:5E,172.6714630126953,-81.0028305053711,-30.7119083404541,-6.296090126037598,1.6221747398376465,-7.235321044921875,2358.655430316925
D4:22:CD:00:05:5D,169.12098693847656,-21.19109535217285,-100.98555755615234,-10.178522109985352,-7.743193626403809,-10.817544937133789,2358.6854288578033
D4:22:CD:00:05:6B,-60.49430847167969,-52.349456787109375,-6.081535816192627,25.41455841064453,1.9513587951660156,21.13858413696289,2358.6854288578033
D4:22:CD:00:49:AA,-169.42962646484375,-81.59416961669922,111.33155059814453,3.275925636291504,1.4751577377319336,-2.868739128112793,2358.6854288578033
D4:22:CD:00:05:6E,-32.682735443115234,-86.71461486816406,-121.60443115234375,-0.38398492336273193,-1.7421412467956543,-4.668815612792969,2358.6854288578033
D4:22:CD:00:05:5E,176.50086975097656,-77.09504699707031,-35.273277282714844,-0.7293614149093628,0.3798832893371582,7.965660095214844,2358.6854288578033
D4:22:CD:00:05:5D,165.70050048828125,-24.251636505126953,-105.72032165527344,-17.256546020507812,3.929426670074463,31.26535415649414,2358.7154297828674
D4:22:CD:00:05:6B,-74.62731170654297,-62.02120590209961,-13.103919982910156,18.068603515625,-9.893789291381836,23.236881256103516,2358.7154297828674
D4:22:CD:00:49:AA,-161.95838928222656,-81.11334991455078,104.58369445800781,-0.5762807130813599,3.408529758453369,-1.3391265869140625,2358.7154297828674
D4:22:CD:00:05:6E,37.177001953125,-82.84903717041016,179.10311889648438,1.0646235942840576,-7.202258110046387,0.2602214813232422,2358.7154297828674
D4:22:CD:00:05:5E,177.70672607421875,-73.89617156982422,-37.36820602416992,-5.085084915161133,1.406339168548584,-1.0404853820800781,2358.7154297828674
D4:22:CD:00:05:5D,164.08914184570312,-21.350505828857422,-104.2391128540039,-8.909923553466797,-25.451496124267578,-10.850578308105469,2358.7459709644318
D4:22:CD:00:05:6B,-104.17444610595703,-52.815120697021484,-8.999942779541016,5.987196922302246,23.311256408691406,7.23602294921875,2358.7459709644318
D4:22:CD:00:49:AA,-155.19654846191406,-81.69841766357422,98.13525390625,-2.1857566833496094,-0.19063955545425415,4.0102996826171875,2358.7459709644318
D4:22:CD:00:05:6E,61.575904846191406,-75.57170104980469,163.20619201660156,0.4343997836112976,-16.42049789428711,11.275667190551758,2358.7459709644318
D4:22:CD:00:05:5E,176.7552490234375,-72.49785614013672,-36.65517807006836,-4.32559871673584,2.258413791656494,1.2903385162353516,2358.7459709644318
D4:22:CD:00:05:5D,169.26869201660156,-18.72241973876953,-98.54785919189453,-13.726465225219727,-14.22916030883789,13.004634857177734,2358.7759709358215
D4:22:CD:00:05:6B,-91.85391235351562,-41.548763275146484,-10.572068214416504,20.509597778320312,-7.098655700683594,29.788681030273438,2358.7759709358215
D4:22:CD:00:49:AA,-157.3938751220703,-80.5365219116211,99.68592071533203,5.602272033691406,-0.7408624887466431,10.826803207397461,2358.7759709358215
D4:22:CD:00:05:6E,72.952392578125,-66.54151916503906,157.7386474609375,6.1382341384887695,-10.415367126464844,19.572998046875,2358.7759709358215
D4:22:CD:00:05:5E,175.6864013671875,-72.76417541503906,-36.259952545166016,-4.979885101318359,1.6112852096557617,1.6626310348510742,2358.7759709358215
D4:22:CD:00:05:5D,169.8670196533203,-13.539674758911133,-94.27179718017578,-0.9418380260467529,-16.013545989990234,16.187076568603516,2358.804971218109
D4:22:CD:00:05:6B,-61.8370361328125,-30.98478126525879,-15.418339729309082,33.3973388671875,-9.819952011108398,1.528219223022461,2358.804971218109
D4:22:CD:00:49:AA,-160.19740295410156,-79.58973693847656,100.56256866455078,0.08535154163837433,0.526826024055481,6.615528106689453,2358.804971218109
D4:22:CD:00:05:6E,83.72273254394531,-54.940792083740234,155.01832580566406,19.826656341552734,-5.111255645751953,20.542224884033203,2358.804971218109
D4:22:CD:00:05:5E,174.01063537597656,-74.83323669433594,-35.60881805419922,-4.792291641235352,1.7837738990783691,2.4893245697021484,2358.804971218109
D4:22:CD:00:05:5D,167.121337890625,-7.482583999633789,-92.88689422607422,-4.650290489196777,-11.186256408691406,14.153007507324219,2358.835516691208
D4:22:CD:00:05:6B,-48.03044891357422,-21.827484130859375,-19.730281829833984,19.709453582763672,-4.752265930175781,-10.189674377441406,2358.835516691208
D4:22:CD:00:49:AA,-166.26333618164062,-78.48429870605469,104.8750991821289,1.5742263793945312,-0.2664390802383423,9.721508026123047,2358.835516691208
D4:22:CD:00:05:6E,78.35575866699219,-40.62440490722656,153.3363494873047,21.316444396972656,0.09757167100906372,31.05554962158203,2358.835516691208
D4:22:CD:00:05:5E,172.16891479492188,-78.43839263916016,-35.87752914428711,-4.180832862854004,1.4632675647735596,5.09611701965332,2358.835516691208
D4:22:CD:00:05:5D,163.36865234375,-1.9928961992263794,-94.03799438476562,1.8311223983764648,-6.173450469970703,3.665266990661621,2358.8655123710632
D4:22:CD:00:05:6B,-51.9684944152832,-17.339879989624023,-22.17030143737793,3.69401216506958,-7.286775588989258,-2.5249123573303223,2358.8655123710632
D4:22:CD:00:49:AA,-174.92172241210938,-77.98966979980469,110.70755767822266,8.718473434448242,2.3340258598327637,9.16842269897461,2358.8655123710632
D4:22:CD:00:05:6E,65.58961486816406,-25.478654861450195,151.00279235839844,6.41642951965332,-3.7363529205322266,23.254444122314453,2358.8655123710632
D4:22:CD:00:05:5E,171.32827758789062,-83.1476821899414,-37.899620056152344,0.04380641132593155,0.4674752950668335,8.931732177734375,2358.8655123710632
D4:22:CD:00:05:5D,162.2511444091797,0.9707161784172058,-97.52435302734375,-2.3902668952941895,-1.5779187679290771,-2.308541774749756,2358.8955125808716
D4:22:CD:00:05:6B,-56.154850006103516,-19.067737579345703,-25.332763671875,-1.3435184955596924,-2.1457982063293457,-2.850040912628174,2358.8955125808716
D4:22:CD:00:49:AA,178.53268432617188,-78.2699203491211,114.34634399414062,4.213775634765625,4.3201398849487305,5.878716468811035,2358.8955125808716
D4:22:CD:00:05:6E,51.77741241455078,-12.519205093383789,147.80319213867188,-3.4941158294677734,-3.1092963218688965,8.581977844238281,2358.8955125808716
D4:22:CD:00:05:5E,-178.0943145751953,-89.02381896972656,-50.91973114013672,2.0660228729248047,-9.379646301269531,7.248767852783203,2358.8955125808716
D4:22:CD:00:05:5D,161.0529327392578,0.592894971370697,-101.81819152832031,-4.811944961547852,2.047712802886963,-7.500593185424805,2358.9550564289093
D4:22:CD:00:05:6B,-55.58414840698242,-26.140893936157227,-30.339000701904297,-5.183825492858887,-1.5463025569915771,-3.080451011657715,2358.9550564289093
D4:22:CD:00:49:AA,169.7606201171875,-78.57323455810547,119.74472045898438,0.8975944519042969,0.08070807158946991,4.11769962310791,2358.9550564289093
D4:22:CD:00:05:6E,40.22941207885742,-1.9286965131759644,145.38087463378906,-7.046627044677734,-9.007497787475586,-3.8840370178222656,2358.9550564289093
D4:22:CD:00:05:5E,-23.421161651611328,-86.53841400146484,155.89935302734375,-6.879352569580078,1.4477996826171875,-7.158111572265625,2358.9550564289093
D4:22:CD:00:05:5D,159.10491943359375,-3.0539214611053467,-105.34339904785156,-6.620406150817871,4.28816032409668,-14.89114761352539,2358.98605799675
D4:22:CD:00:05:6B,-56.33771514892578,-34.98093032836914,-35.236454010009766,-6.888178825378418,-1.177283763885498,-2.773686408996582,2358.98605799675
D4:22:CD:00:49:AA,157.29766845703125,-79.17969512939453,129.5559844970703,1.2016513347625732,0.08783745765686035,-0.7875766754150391,2358.98605799675
D4:22:CD:00:05:6E,38.71149826049805,8.045589447021484,142.18980407714844,-8.132410049438477,-9.870161056518555,-8.416007995605469,2358.98605799675
D4:22:CD:00:05:5E,-51.047603607177734,-85.4231185913086,179.0315704345703,-7.741057395935059,-0.4631800651550293,-7.7275590896606445,2358.98605799675
D4:22:CD:00:05:5D,157.16697692871094,-9.865864753723145,-106.61075592041016,-8.920576095581055,3.5808796882629395,-22.206310272216797,2359.0151677131653
D4:22:CD:00:05:6B,-55.93000793457031,-44.397884368896484,-39.85322189331055,-7.585022926330566,-1.7352747917175293,-2.8123979568481445,2359.0151677131653
D4:22:CD:00:49:AA,146.0919952392578,-78.73729705810547,138.83969116210938,-1.1619105339050293,0.7576919794082642,-5.813589096069336,2359.0151677131653
D4:22:CD:00:05:6E,45.718421936035156,18.726909637451172,138.26296997070312,-3.410602569580078,-3.998887538909912,-11.783487319946289,2359.0151677131653
D4:22:CD:00:05:5E,-73.52651977539062,-84.26557159423828,-167.6267547607422,-2.808291435241699,-7.2700090408325195,-10.079782485961914,2359.0151677131653
D4:22:CD:00:05:5D,156.02099609375,-19.692285537719727,-105.86775207519531,-8.654897689819336,-2.622127056121826,-22.751407623291016,2359.0457220077515
D4:22:CD:00:05:6B,-51.78673553466797,-53.05769729614258,-43.98941421508789,-2.8089590072631836,1.9682831764221191,-4.170660972595215,2359.0457220077515
D4:22:CD:00:49:AA,139.5265655517578,-78.17438507080078,144.61257934570312,-1.8179008960723877,0.8650658130645752,-9.938129425048828,2359.0457220077515
D4:22:CD:00:05:6E,47.37553787231445,27.771059036254883,137.19102478027344,-3.5554561614990234,-2.6879968643188477,-11.380590438842773,2359.0457220077515
D4:22:CD:00:05:5E,-73.68797302246094,-82.82788848876953,-175.501708984375,-3.5668563842773438,0.9234907627105713,-8.947675704956055,2359.0457220077515
D4:22:CD:00:05:5D,153.87026977539062,-32.981571197509766,-103.19908905029297,-6.167057037353516,-6.174631118774414,-15.428842544555664,2359.075814962387
D4:22:CD:00:05:6B,-51.40888977050781,-59.45100021362305,-46.1851692199707,-2.001706600189209,3.0717992782592773,-6.024097442626953,2359.075814962387
D4:22:CD:00:49:AA,131.76637268066406,-78.42537689208984,151.43585205078125,0.18567824363708496,1.73866605758667,-9.465597152709961,2359.075814962387
D4:22:CD:00:05:6E,40.7021598815918,33.55076217651367,142.48912048339844,3.090531826019287,0.8758676052093506,-13.272165298461914,2359.075814962387
D4:22:CD:00:05:5E,-84.84575653076172,-82.11380004882812,-169.1907196044922,-3.4313626289367676,27.420307159423828,-4.223621368408203,2359.075814962387
D4:22:CD:00:05:5D,149.2449951171875,-49.349483489990234,-98.2546157836914,-3.0389623641967773,-8.903703689575195,-5.554292678833008,2359.1058144569397
D4:22:CD:00:05:6B,-53.16067886352539,-64.1865234375,-47.172515869140625,-1.2360050678253174,4.562254905700684,-6.865180969238281,2359.1058144569397
D4:22:CD:00:49:AA,125.57007598876953,-78.94441986083984,155.99795532226562,0.32988524436950684,0.12608662247657776,-8.824382781982422,2359.1058144569397
D4:22:CD:00:05:6E,43.329612731933594,35.45609664916992,155.05545043945312,-6.904340744018555,-0.8230470418930054,-16.308197021484375,2359.1058144569397
D4:22:CD:00:05:5E,-109.17810821533203,-81.18628692626953,-147.81639099121094,-0.5589420795440674,0.46492213010787964,-8.30938720703125,2359.1058144569397
D4:22:CD:00:05:5D,139.8791961669922,-67.49980163574219,-86.16263580322266,3.4122157096862793,-11.690513610839844,14.60725212097168,2359.135354042053
D4:22:CD:00:05:6B,-53.056190490722656,-67.48282623291016,-49.16649627685547,0.3340590000152588,5.434537887573242,-6.4821672439575195,2359.135354042053
D4:22:CD:00:49:AA,122.7984848022461,-79.44124603271484,157.82310485839844,1.7861924171447754,-0.7673861980438232,-10.44454574584961,2359.135354042053
D4:22:CD:00:05:6E,48.64720153808594,33.580162048339844,170.51026916503906,-53.27446746826172,-1.0870633125305176,-22.227088928222656,2359.135354042053
D4:22:CD:00:05:5E,-125.89208221435547,-79.07003784179688,-134.19630432128906,-5.429879188537598,-1.1929309368133545,0.7825422286987305,2359.135354042053
D4:22:CD:00:05:5D,79.52932739257812,-81.12201690673828,-20.10470199584961,22.37602996826172,10.437259674072266,30.87964630126953,2359.165353536606
D4:22:CD:00:05:6B,-49.545753479003906,-69.92064666748047,-54.07009506225586,1.8899962902069092,4.195913314819336,-4.76392936706543,2359.165353536606
D4:22:CD:00:49:AA,117.26193237304688,-80.0687484741211,161.00558471679688,3.4922590255737305,-0.22401931881904602,-5.896021842956543,2359.165353536606
D4:22:CD:00:05:6E,63.89366149902344,38.97848129272461,171.67990112304688,23.184104919433594,7.603679656982422,-26.286300659179688,2359.165353536606
D4:22:CD:00:05:5E,-135.97459411621094,-76.23033142089844,-127.43865203857422,-3.3256583213806152,-4.639654159545898,4.480031967163086,2359.165353536606
D4:22:CD:00:05:5D,33.32649612426758,-76.83094024658203,31.866552352905273,-10.63917350769043,34.09136199951172,-14.942575454711914,2359.195353746414
D4:22:CD:00:05:6B,-45.174415588378906,-71.94173431396484,-61.343624114990234,2.2266740798950195,3.389982223510742,-5.179771423339844,2359.195353746414
D4:22:CD:00:49:AA,115.94283294677734,-80.92550659179688,160.8032989501953,2.788769245147705,-2.308256149291992,-3.6940793991088867,2359.195353746414
D4:22:CD:00:05:6E,73.72823333740234,46.02193832397461,158.9461212158203,-10.645896911621094,-6.5220489501953125,-4.6494293212890625,2359.195353746414
D4:22:CD:00:05:5E,-138.87332153320312,-74.09394073486328,-126.84053802490234,-4.902132034301758,0.21530959010124207,5.683778762817383,2359.195353746414
D4:22:CD:00:05:5D,40.18803405761719,-76.88619232177734,21.36612892150879,12.482870101928711,15.278541564941406,-4.981197357177734,2359.2554812431335
D4:22:CD:00:05:6B,-44.485145568847656,-73.38604736328125,-67.24116516113281,1.4742350578308105,1.0256879329681396,-1.6791658401489258,2359.2554812431335
D4:22:CD:00:49:AA,128.09539794921875,-81.25946807861328,147.6708221435547,4.007956504821777,-3.627788543701172,-0.14869022369384766,2359.2554812431335
D4:22:CD:00:05:6E,58.04841232299805,50.30974197387695,135.06509399414062,-2.8308401107788086,1.1441740989685059,-19.378772735595703,2359.2554812431335
D4:22:CD:00:05:5E,-132.9407196044922,-73.97411346435547,-132.1644287109375,-2.7783713340759277,-1.4853870868682861,11.730052947998047,2359.2554812431335
D4:22:CD:00:05:5D,79.55113220214844,-77.76936340332031,-16.441146850585938,12.360868453979492,19.769725799560547,5.137434959411621,2359.285481929779
D4:22:CD:00:05:6B,-51.60322570800781,-75.31034088134766,-65.66690063476562,0.2500240206718445,1.460824966430664,4.753451347351074,2359.285481929779
D4:22:CD:00:49:AA,141.70008850097656,-80.11412048339844,129.75265502929688,2.6490774154663086,-0.7470343112945557,11.057926177978516,2359.285481929779
D4:22:CD:00:05:6E,45.61603546142578,48.87457275390625,107.06776428222656,-2.799747943878174,3.115830898284912,-13.283802032470703,2359.285481929779
D4:22:CD:00:05:5E,-122.92211151123047,-74.29419708251953,-140.90802001953125,-4.450019836425781,-1.4424004554748535,5.965353965759277,2359.285481929779
D4:22:CD:00:05:5D,110.53954315185547,-75.25769805908203,-43.48706817626953,2.981851577758789,-5.92244815826416,3.06649112701416,2359.3157267570496
D4:22:CD:00:05:6B,-63.69318771362305,-78.7072525024414,-54.536746978759766,1.0269749164581299,2.8809456825256348,10.707145690917969,2359.3157267570496
D4:22:CD:00:49:AA,143.7403106689453,-80.83228302001953,128.48683166503906,-1.6243889331817627,1.05361008644104,9.545198440551758,2359.3157267570496
D4:22:CD:00:05:6E,41.72819519042969,41.22016906738281,85.21075439453125,-6.249747276306152,-4.318256378173828,-7.703218460083008,2359.3157267570496
D4:22:CD:00:05:5E,-99.13417053222656,-75.00908660888672,-158.88735961914062,-6.9476165771484375,-5.997653961181641,1.1116714477539062,2359.3157267570496
D4:22:CD:00:05:5D,118.2856674194336,-76.75205993652344,-52.73969650268555,0.7690342664718628,-9.562217712402344,1.4834356307983398,2359.345672607422
D4:22:CD:00:05:6B,-85.90885925292969,-81.95533752441406,-27.27760887145996,2.1373276710510254,0.5421687364578247,11.724319458007812,2359.345672607422
D4:22:CD:00:49:AA,152.110595703125,-81.05513000488281,124.11044311523438,3.334812641143799,-1.6857659816741943,5.939150810241699,2359.345672607422
D4:22:CD:00:05:6E,43.08782196044922,29.321786880493164,70.10110473632812,0.1342218816280365,-5.2191667556762695,-5.590063095092773,2359.345672607422
D4:22:CD:00:05:5E,-82.07292175292969,-73.08727264404297,-165.53961181640625,-11.673501968383789,4.185681343078613,-1.108647346496582,2359.345672607422
D4:22:CD:00:05:5D,123.63508605957031,-80.99211120605469,-63.81331253051758,-5.781907081604004,4.003856658935547,1.6937847137451172,2359.3756732940674
D4:22:CD:00:05:6B,-115.91791534423828,-81.01839447021484,8.528185844421387,5.795139312744141,-2.167023181915283,5.579342842102051,2359.3756732940674
D4:22:CD:00:49:AA,162.4383544921875,-80.41807556152344,119.02345275878906,3.9060006141662598,-1.300934076309204,-2.1219520568847656,2359.3756732940674
D4:22:CD:00:05:6E,52.1594123840332,17.21004867553711,59.10298538208008,8.93719482421875,-12.35738754272461,-10.406253814697266,2359.3756732940674
D4:22:CD:00:05:5E,-78.13687133789062,-72.15501403808594,-152.62576293945312,-33.287147521972656,22.571834564208984,0.059906005859375,2359.3756732940674
D4:22:CD:00:05:5D,131.8401641845703,-83.66305541992188,-75.1729965209961,-4.543387413024902,-7.392306327819824,15.394371032714844,2359.4056718349457
D4:22:CD:00:05:6B,-121.1596908569336,-76.01900482177734,17.897306442260742,1.6914184093475342,3.035989761352539,0.39780426025390625,2359.4056718349457
D4:22:CD:00:49:AA,168.75453186035156,-79.60430145263672,117.21724700927734,-3.4993538856506348,-5.308826446533203,-1.7926626205444336,2359.4056718349457
D4:22:CD:00:05:6E,67.32593536376953,5.412816047668457,51.462318420410156,7.38802433013916,-2.3949222564697266,-7.312442779541016,2359.4056718349457
D4:22:CD:00:05:5E,-99.64581298828125,-69.88114166259766,-119.91547393798828,-22.954410552978516,5.656518936157227,-3.535397529602051,2359.4056718349457
D4:22:CD:00:05:5D,159.67298889160156,-84.40536499023438,-99.08067321777344,2.5408082008361816,-0.22399640083312988,-2.0364646911621094,2359.4351665973663
D4:22:CD:00:05:6B,-114.83145141601562,-68.82706451416016,14.258880615234375,2.0231175422668457,-0.14150863885879517,0.18782329559326172,2359.4351665973663
D4:22:CD:00:49:AA,171.43359375,-78.20782470703125,120.82215118408203,-3.535836696624756,-1.9937787055969238,-0.6891326904296875,2359.4351665973663
D4:22:CD:00:05:6E,78.1562728881836,-4.695044994354248,45.445858001708984,6.558984756469727,-2.1814870834350586,-0.9387950897216797,2359.4351665973663
D4:22:CD:00:05:5E,-124.58016204833984,-64.4034194946289,-91.07144927978516,-7.956709861755371,-1.8933134078979492,-12.495603561401367,2359.4351665973663
D4:22:CD:00:05:5D,179.29751586914062,-84.19215393066406,-116.0702133178711,0.6532421112060547,2.4397053718566895,1.464406967163086,2359.465166568756
D4:22:CD:00:05:6B,-112.2509765625,-62.4569091796875,9.740416526794434,0.4791252017021179,0.5171114206314087,-0.15482616424560547,2359.465166568756
D4:22:CD:00:49:AA,166.17604064941406,-76.46401977539062,125.21379089355469,5.040165901184082,4.817255973815918,-2.878824234008789,2359.465166568756
D4:22:CD:00:05:6E,89.68219757080078,-11.482054710388184,38.356998443603516,-4.22831916809082,0.5960768461227417,7.669221878051758,2359.465166568756
D4:22:CD:00:05:5E,-142.78639221191406,-57.532413482666016,-72.32853698730469,0.18625181913375854,1.4843835830688477,-16.095142364501953,2359.465166568756
D4:22:CD:00:05:5D,-167.0446014404297,-83.68379211425781,-129.202880859375,-2.1478071212768555,0.8582664728164673,0.6722564697265625,2359.495166540146
D4:22:CD:00:05:6B,-107.63422393798828,-60.19007873535156,5.145922660827637,2.7035765647888184,-1.6185498237609863,-2.438502311706543,2359.495166540146
D4:22:CD:00:49:AA,165.1210174560547,-75.9050064086914,126.07527923583984,-1.087167739868164,2.721545696258545,1.727682113647461,2359.495166540146
D4:22:CD:00:05:6E,101.25064849853516,-15.09060001373291,29.40248680114746,-7.071803092956543,-0.8125491142272949,9.0030517578125,2359.495166540146
D4:22:CD:00:05:5E,-155.09524536132812,-51.45404052734375,-60.45271301269531,3.04611873626709,2.8534250259399414,-14.116121292114258,2359.495166540146
D4:22:CD:00:05:5D,-155.85240173339844,-82.95500183105469,-139.85540771484375,-3.1389641761779785,1.9188878536224365,0.8164386749267578,2359.5557157993317
D4:22:CD:00:05:6B,-106.8442611694336,-59.92125701904297,0.0627361461520195,-0.8735923767089844,-1.5289044380187988,1.187800407409668,2359.5557157993317
D4:22:CD:00:49:AA,166.7005615234375,-75.39508819580078,125.41757202148438,-8.569210052490234,2.0615439414978027,1.3446273803710938,2359.5557157993317
D4:22:CD:00:05:6E,110.11602020263672,-16.772558212280273,20.535930633544922,-1.781151294708252,-3.761486053466797,7.383356094360352,2359.5557157993317
D4:22:CD:00:05:5E,-164.3323974609375,-47.97676467895508,-51.82463836669922,3.4571924209594727,1.062321662902832,-10.347908020019531,2359.5557157993317
D4:22:CD:00:05:5D,-152.4969940185547,-81.83062744140625,-145.3103485107422,-0.4434356093406677,-2.1589136123657227,-1.1955680847167969,2359.585715532303
D4:22:CD:00:05:6B,-106.91353607177734,-59.77973556518555,-5.627350807189941,-1.275205135345459,0.5685900449752808,0.9109830856323242,2359.585715532303
D4:22:CD:00:49:AA,168.35873413085938,-74.19990539550781,123.24610900878906,-1.4111831188201904,5.6566162109375,-3.3219475746154785,2359.585715532303
D4:22:CD:00:05:6E,114.39185333251953,-18.61740493774414,14.904932975769043,1.8644425868988037,-3.385186195373535,3.7951717376708984,2359.585715532303
D4:22:CD:00:05:5E,-171.9368133544922,-47.853023529052734,-44.061927795410156,4.701394081115723,-1.3519928455352783,-4.139449119567871,2359.585715532303
D4:22:CD:00:05:5D,-154.35374450683594,-80.34166717529297,-145.45489501953125,1.9503769874572754,-2.770491600036621,-0.6458053588867188,2359.615715742111
D4:22:CD:00:05:6B,-104.63519287109375,-59.763084411621094,-12.186594009399414,-1.4539263248443604,1.7735517024993896,-1.427769660949707,2359.615715742111
D4:22:CD:00:49:AA,166.51576232910156,-72.96481323242188,123.5527114868164,1.355165719985962,2.349888324737549,-4.641817092895508,2359.615715742111
D4:22:CD:00:05:6E,115.42057037353516,-23.30743408203125,13.32666015625,4.116123199462891,-0.9163217544555664,-2.3459300994873047,2359.615715742111
D4:22:CD:00:05:5E,-177.99752807617188,-52.20083999633789,-37.300540924072266,14.336437225341797,-8.992958068847656,-3.134603977203369,2359.615715742111
D4:22:CD:00:05:5D,-160.53404235839844,-78.0564956665039,-139.5950469970703,1.332291841506958,-4.2124786376953125,-1.2999963760375977,2359.645273208618
D4:22:CD:00:05:6B,-100.87923431396484,-59.851226806640625,-20.0571231842041,-0.25034546852111816,-0.21491467952728271,-5.579236030578613,2359.645273208618
D4:22:CD:00:49:AA,161.72320556640625,-71.64643096923828,125.27061462402344,-1.1527137756347656,0.04999537765979767,-1.9309558868408203,2359.645273208618
D4:22:CD:00:05:6E,113.6308364868164,-33.240543365478516,13.39555549621582,4.950557708740234,-0.29579704999923706,0.35534000396728516,2359.645273208618
D4:22:CD:00:05:5E,-178.54458618164062,-57.80032730102539,-36.90493392944336,-9.361713409423828,21.985485076904297,41.861305236816406,2359.645273208618
D4:22:CD:00:05:5D,-168.12078857421875,-74.85873413085938,-130.1426239013672,1.7770905494689941,0.11727724969387054,0.1810903549194336,2359.675272464752
D4:22:CD:00:05:6B,-98.87903594970703,-59.560970306396484,-29.20275115966797,-1.5924241542816162,1.9738271236419678,-4.920928001403809,2359.675272464752
D4:22:CD:00:49:AA,157.12367248535156,-70.94113159179688,127.18306732177734,-1.984870433807373,0.9139951467514038,-2.756857395172119,2359.675272464752
D4:22:CD:00:05:6E,99.10628509521484,-48.49374771118164,14.54129695892334,13.556230545043945,1.3337008953094482,17.34465789794922,2359.675272464752
D4:22:CD:00:05:5E,174.09608459472656,-56.00498580932617,-41.25321578979492,5.287077903747559,-16.03384780883789,-8.047782897949219,2359.675272464752
D4:22:CD:00:05:5D,-177.04241943359375,-70.6299819946289,-118.11187744140625,-3.958372116088867,0.8172124624252319,1.3047370910644531,2359.7052726745605
D4:22:CD:00:05:6B,-94.84793853759766,-59.28426742553711,-40.125465393066406,-0.1909404993057251,4.6102752685546875,-5.244759559631348,2359.7052726745605
D4:22:CD:00:49:AA,154.19869995117188,-70.74818420410156,129.0810546875,-2.572537422180176,-1.1810338497161865,-5.013917922973633,2359.7052726745605
D4:22:CD:00:05:6E,85.03877258300781,-55.683502197265625,19.116127014160156,12.285337448120117,4.092108726501465,12.798274993896484,2359.7052726745605
D4:22:CD:00:05:5E,167.88758850097656,-56.00377655029297,-42.627559661865234,7.5990705490112305,-8.502737045288086,10.120645523071289,2359.7052726745605
D4:22:CD:00:05:5D,174.94081115722656,-64.691162109375,-104.3639907836914,-1.7463619709014893,-0.1272791028022766,-3.4616174697875977,2359.735819578171
D4:22:CD:00:05:6B,-90.19756317138672,-58.15623474121094,-51.94922637939453,1.195617437362671,6.966300964355469,-3.599863052368164,2359.735819578171
D4:22:CD:00:49:AA,152.75857543945312,-71.30547332763672,131.09823608398438,-2.45220947265625,0.9534727334976196,-1.2281227111816406,2359.735819578171
D4:22:CD:00:05:6E,90.93509674072266,-47.8894157409668,14.08469295501709,19.226131439208984,-5.822983741760254,4.070704460144043,2359.735819578171
D4:22:CD:00:05:5E,169.09461975097656,-56.89955520629883,-43.403831481933594,-1.740339756011963,-13.017082214355469,9.149728775024414,2359.735819578171
