Device,EulerX,EulerY,EulerZ,FreeAccX,FreeAccY,FreeAccZ,Timestamp
D4:22:CD:00:05:5D,175.59217834472656,-50.48284149169922,-124.69507598876953,-0.39399564266204834,0.34456509351730347,1.8716535568237305,2340.3603270053864
D4:22:CD:00:05:6B,-67.36341094970703,-24.09282684326172,-43.23085021972656,-0.0067552924156188965,1.1830003261566162,15.892255783081055,2340.3603270053864
D4:22:CD:00:49:AA,142.2017822265625,-70.39978790283203,146.71957397460938,-0.5167721509933472,1.0880687236785889,9.473697662353516,2340.3603270053864
D4:22:CD:00:05:6E,126.99954223632812,-41.94942855834961,14.60066032409668,4.272879600524902,12.5283203125,8.404516220092773,2340.3603270053864
D4:22:CD:00:05:5E,-165.49850463867188,-32.947750091552734,-81.30989837646484,0.41729819774627686,-7.438179969787598,5.082764625549316,2340.3603270053864
D4:22:CD:00:05:5D,176.6922149658203,-49.80951690673828,-124.0443115234375,0.4034717082977295,-0.020431652665138245,1.8227720260620117,2340.3643271923065
D4:22:CD:00:05:6B,-66.87688446044922,-10.563608169555664,-37.659305572509766,10.308938980102539,7.088194847106934,19.729965209960938,2340.3643271923065
D4:22:CD:00:49:AA,145.939697265625,-69.19590759277344,143.1372528076172,-1.9370033740997314,0.06635607779026031,11.47235107421875,2340.3643271923065
D4:22:CD:00:05:6E,131.89962768554688,-52.641963958740234,24.248376846313477,-1.2191474437713623,2.4095335006713867,17.111003875732422,2340.3643271923065
D4:22:CD:00:05:5E,-165.4803924560547,-30.88992691040039,-83.09033966064453,5.767138481140137,-0.6200335025787354,-3.812497615814209,2340.3643271923065
D4:22:CD:00:05:5D,177.5714569091797,-50.14080810546875,-123.2763671875,-0.40026789903640747,1.5068550109863281,2.4869775772094727,2340.367326974869
D4:22:CD:00:05:6B,-61.036949157714844,1.1694905757904053,-30.962757110595703,10.754253387451172,6.021232604980469,13.96778678894043,2340.367326974869
D4:22:CD:00:49:AA,144.8271026611328,-70.13441467285156,144.55780029296875,-4.5679931640625,0.9734998941421509,7.997236251831055,2340.367326974869
D4:22:CD:00:05:6E,138.2220001220703,-66.71871185302734,29.80150604248047,-5.524763107299805,-8.258474349975586,9.217231750488281,2340.367326974869
D4:22:CD:00:05:5E,-164.90411376953125,-33.450313568115234,-85.42997741699219,6.6418352127075195,2.648568630218506,-9.075366973876953,2340.367326974869
D4:22:CD:00:49:AA,143.76609802246094,-72.75848388671875,147.51844787597656,-8.920835494995117,-0.21586522459983826,9.260631561279297,2340.369328022003
D4:22:CD:00:05:6E,161.61196899414062,-81.52798461914062,20.849016189575195,-9.167776107788086,-14.509408950805664,4.576587677001953,2340.369328022003
D4:22:CD:00:05:5E,-163.84036254882812,-39.0013427734375,-88.63623809814453,6.159743309020996,2.8100457191467285,-11.123828887939453,2340.369328022003
D4:22:CD:00:05:5D,-110.02886962890625,-68.56443786621094,-32.84313201904297,-10.570634841918945,-23.0804443359375,-2.2026591300964355,2340.371328353882
D4:22:CD:00:05:6B,-64.22257232666016,-40.88112258911133,-100.88786315917969,2.9110465049743652,3.5147013664245605,-1.3864984512329102,2340.371328353882
D4:22:CD:00:49:AA,115.63465118408203,-32.27267837524414,-162.48394775390625,-2.3861775398254395,-3.831564426422119,-3.670414924621582,2340.371328353882
D4:22:CD:00:05:5D,-159.8917236328125,-51.87358093261719,12.719579696655273,-21.25750732421875,-5.304129600524902,9.975269317626953,2340.445876598358
D4:22:CD:00:05:6B,-58.2630500793457,-37.08042526245117,-106.85833740234375,2.9461560249328613,3.864838123321533,-1.4970693588256836,2340.445876598358
D4:22:CD:00:49:AA,120.97416687011719,-36.274742126464844,-165.99652099609375,-1.9636542797088623,-2.3778724670410156,0.3782958984375,2340.445876598358
D4:22:CD:00:05:6E,-132.20108032226562,-41.69097900390625,-47.97257995605469,-9.20412826538086,10.41769027709961,-5.980276107788086,2340.445876598358
D4:22:CD:00:05:5E,-163.02005004882812,-71.31576538085938,-76.63623046875,-0.3008671998977661,-2.0477471351623535,7.394144058227539,2340.445876598358
D4:22:CD:00:05:5D,-168.15570068359375,-23.865703582763672,22.885534286499023,13.501510620117188,17.013824462890625,-0.6468362808227539,2340.4758760929108
D4:22:CD:00:05:6B,-51.73819351196289,-36.02885055541992,-110.54625701904297,0.5801582336425781,2.503270149230957,-3.2478761672973633,2340.4758760929108
D4:22:CD:00:49:AA,128.2370147705078,-41.498470306396484,-172.31809997558594,-7.277286529541016,0.5899955034255981,7.663103103637695,2340.4758760929108
D4:22:CD:00:05:6E,-109.72918701171875,-9.678516387939453,-38.933380126953125,-2.4994702339172363,-13.614883422851562,-9.695320129394531,2340.4758760929108
D4:22:CD:00:05:5E,-160.21383666992188,-74.98897552490234,-78.26030731201172,-1.4646120071411133,-3.4039649963378906,9.369562149047852,2340.4758760929108
D4:22:CD:00:05:5D,-164.66378784179688,-12.206870079040527,24.309885025024414,14.869686126708984,4.543516159057617,-13.050369262695312,2340.5058903694153
D4:22:CD:00:05:6B,-50.948577880859375,-39.22838592529297,-110.24042510986328,-1.9351212978363037,-1.6520259380340576,-1.5475339889526367,2340.5058903694153
D4:22:CD:00:49:AA,129.8115692138672,-49.00006103515625,-173.34866333007812,-7.333919525146484,-1.3493216037750244,6.582292556762695,2340.5058903694153
D4:22:CD:00:05:6E,-106.41655731201172,-4.499270439147949,-25.359066009521484,-7.869227409362793,-13.977415084838867,-14.286977767944336,2340.5058903694153
D4:22:CD:00:05:5E,-142.26925659179688,-86.92693328857422,-90.5839614868164,0.9821295738220215,-2.098440170288086,2.0491695404052734,2340.5058903694153
D4:22:CD:00:05:5D,-162.46929931640625,-9.664427757263184,24.544410705566406,16.152297973632812,-6.703656196594238,-5.345120429992676,2340.5354175567627
D4:22:CD:00:05:6B,-54.80012130737305,-47.45072937011719,-105.48432159423828,-0.6931040287017822,-4.488804817199707,5.516550064086914,2340.5354175567627
D4:22:CD:00:49:AA,133.69137573242188,-56.04557800292969,-174.87091064453125,-6.342616081237793,-3.153698444366455,2.830228805541992,2340.5354175567627
D4:22:CD:00:05:6E,-112.21260833740234,5.344303131103516,-13.630813598632812,-4.479217529296875,-12.947772979736328,-16.254730224609375,2340.5354175567627
D4:22:CD:00:05:5E,27.2617244720459,-86.48731994628906,107.65257263183594,-13.7476806640625,1.9807965755462646,-3.0355162620544434,2340.5354175567627
D4:22:CD:00:05:5D,-161.88922119140625,-11.158419609069824,23.814441680908203,16.680927276611328,0.42316609621047974,-9.415267944335938,2340.5654180049896
D4:22:CD:00:05:6B,-55.3797492980957,-58.87321853637695,-98.12709045410156,-1.6383543014526367,-7.005946159362793,9.646947860717773,2340.5654180049896
D4:22:CD:00:49:AA,143.13653564453125,-61.34112548828125,-179.00340270996094,-4.603477478027344,-4.712106704711914,2.224616050720215,2340.5654180049896
D4:22:CD:00:05:6E,-119.00413513183594,18.407058715820312,-6.448267459869385,-4.524603843688965,-6.206455230712891,-15.969614028930664,2340.5654180049896
D4:22:CD:00:05:5E,133.9373016357422,-81.01998138427734,7.599106311798096,-24.73154067993164,11.138246536254883,5.4644880294799805,2340.5654180049896
D4:22:CD:00:05:5D,-161.1638946533203,-14.055184364318848,22.474918365478516,8.842155456542969,-2.160655975341797,-5.128945350646973,2340.5955131053925
D4:22:CD:00:05:6B,-52.86867141723633,-69.21389770507812,-89.50897979736328,-0.5132081508636475,-6.370733261108398,7.520620346069336,2340.5955131053925
D4:22:CD:00:49:AA,155.16696166992188,-64.54891204833984,174.44329833984375,-3.5373473167419434,-0.8636764287948608,-3.1322975158691406,2340.5955131053925
D4:22:CD:00:05:6E,-120.81300354003906,30.920385360717773,-2.080327033996582,-5.500944137573242,1.4813971519470215,-18.56049346923828,2340.5955131053925
D4:22:CD:00:05:5E,167.0790252685547,-62.72501754760742,-16.288917541503906,-15.061628341674805,3.0446105003356934,11.813301086425781,2340.5955131053925
D4:22:CD:00:05:5D,-161.3164825439453,-16.844749450683594,20.858810424804688,7.683135032653809,6.386660575866699,-3.039180278778076,2340.626075744629
D4:22:CD:00:05:6B,-52.18857955932617,-73.71192169189453,-80.39798736572266,-0.5866237878799438,-4.03734016418457,0.8746519088745117,2340.626075744629
D4:22:CD:00:49:AA,164.75941467285156,-64.98322296142578,167.23680114746094,-3.608095645904541,0.9997284412384033,-5.10540771484375,2340.626075744629
D4:22:CD:00:05:6E,-117.22679901123047,39.64053726196289,0.999955952167511,-15.583438873291016,11.896791458129883,-19.87441635131836,2340.626075744629
D4:22:CD:00:05:5E,177.9465789794922,-42.65082931518555,-19.773624420166016,-3.989396095275879,-4.200007438659668,1.26800537109375,2340.626075744629
D4:22:CD:00:05:5D,-160.530517578125,-19.522689819335938,19.257139205932617,7.491787910461426,2.9173583984375,-3.8102469444274902,2340.656074523926
D4:22:CD:00:05:6B,-54.3280029296875,-72.74539947509766,-72.85344696044922,0.04877328872680664,-8.723186492919922,-0.43819332122802734,2340.656074523926
D4:22:CD:00:49:AA,169.79476928710938,-63.9911003112793,162.5244903564453,-1.333620309829712,-0.5110857486724854,0.982081413269043,2340.656074523926
D4:22:CD:00:05:6E,-101.62860870361328,47.598514556884766,2.4846351146698,-6.614193916320801,10.492963790893555,-6.871074676513672,2340.656074523926
D4:22:CD:00:05:5E,179.57281494140625,-25.244531631469727,-19.4411678314209,0.37302035093307495,-4.779038429260254,-6.38416862487793,2340.656074523926
D4:22:CD:00:05:5D,-158.6692352294922,-22.312889099121094,18.2475528717041,8.560800552368164,1.5283145904541016,-4.343238830566406,2340.715802669525
D4:22:CD:00:05:6B,-59.090030670166016,-71.02108764648438,-69.2351303100586,0.4258744716644287,-8.196493148803711,-1.0116395950317383,2340.715802669525
D4:22:CD:00:49:AA,169.97769165039062,-63.909881591796875,161.79074096679688,-4.911409378051758,-1.2603576183319092,2.0477800369262695,2340.715802669525
D4:22:CD:00:05:6E,-75.47321319580078,55.820072174072266,3.589207172393799,-19.586715698242188,-7.903929710388184,-15.183526992797852,2340.715802669525
D4:22:CD:00:05:5E,177.04086303710938,-11.559367179870605,-18.11913299560547,2.515468120574951,-2.6577682495117188,-10.321512222290039,2340.715802669525
D4:22:CD:00:05:5D,-157.02174377441406,-24.819927215576172,17.4892578125,8.98453140258789,-0.05114948749542236,-4.570029258728027,2340.745803117752
D4:22:CD:00:05:6B,-66.89602661132812,-68.25322723388672,-69.33818054199219,-4.905277252197266,-1.467111349105835,3.322702407836914,2340.745803117752
D4:22:CD:00:49:AA,171.78050231933594,-64.17288970947266,160.3728485107422,-5.535491943359375,-3.925686836242676,-1.030137062072754,2340.745803117752
D4:22:CD:00:05:6E,-55.52275848388672,64.15593719482422,13.242361068725586,-29.39208221435547,1.5074741840362549,-13.752473831176758,2340.745803117752
D4:22:CD:00:05:5E,173.80226135253906,-1.906226634979248,-16.173444747924805,2.439182758331299,-0.33562564849853516,-12.136697769165039,2340.745803117752
D4:22:CD:00:05:5D,-155.9838409423828,-26.950998306274414,16.563833236694336,7.992087364196777,0.7157325744628906,-3.9950857162475586,2340.7758021354675
D4:22:CD:00:05:6B,-67.95769500732422,-64.69638061523438,-73.2225112915039,-4.2702131271362305,-2.64223575592041,0.4722003936767578,2340.7758021354675
D4:22:CD:00:49:AA,173.84793090820312,-65.12901306152344,159.14527893066406,-3.98746395111084,-0.961683988571167,-1.438582420349121,2340.7758021354675
D4:22:CD:00:05:6E,-26.59500503540039,69.50289154052734,45.13924026489258,-7.417816162109375,-3.6631531715393066,-6.828697204589844,2340.7758021354675
D4:22:CD:00:05:5E,171.3715362548828,3.7687442302703857,-13.536311149597168,2.7953124046325684,0.2772003412246704,-12.335590362548828,2340.7758021354675
D4:22:CD:00:05:5D,-155.71694946289062,-28.660436630249023,15.540000915527344,8.091035842895508,0.8253424167633057,-4.256655693054199,2340.805818080902
D4:22:CD:00:05:6B,-69.41322326660156,-60.44496154785156,-76.74315643310547,-3.934347152709961,-2.457338333129883,-1.5615129470825195,2340.805818080902
D4:22:CD:00:49:AA,174.06578063964844,-66.09732055664062,160.02182006835938,-1.2263798713684082,1.3709917068481445,-0.6619958877563477,2340.805818080902
D4:22:CD:00:05:6E,7.9864702224731445,64.1007080078125,86.7978286743164,-2.802150249481201,-3.1369595527648926,-7.885748863220215,2340.805818080902
D4:22:CD:00:05:5E,169.8533172607422,5.3917036056518555,-9.906673431396484,5.8253326416015625,-1.483780860900879,-14.808094024658203,2340.805818080902
D4:22:CD:00:05:5D,-155.6663360595703,-29.813888549804688,14.799939155578613,7.212593078613281,2.3352808952331543,-4.248212814331055,2340.8353559970856
D4:22:CD:00:05:6B,-71.98115539550781,-56.176658630371094,-79.63130950927734,-3.3665976524353027,-0.6089532375335693,-3.3394722938537598,2340.8353559970856
D4:22:CD:00:49:AA,170.6566619873047,-67.38997650146484,163.6691131591797,-0.6297911405563354,0.34787195920944214,-1.1161441802978516,2340.8353559970856
D4:22:CD:00:05:6E,16.457128524780273,48.325439453125,110.947265625,-6.586430549621582,-3.722503662109375,-14.35645866394043,2340.8353559970856
D4:22:CD:00:05:5E,169.64520263671875,1.504933476448059,-5.344048976898193,9.285659790039062,-1.258324146270752,-19.60187530517578,2340.8353559970856
D4:22:CD:00:05:5D,-155.61767578125,-30.23313331604004,14.717818260192871,6.965721130371094,2.0625205039978027,-4.075196266174316,2340.8653540611267
D4:22:CD:00:05:6B,-75.21585083007812,-52.383460998535156,-81.53002166748047,-1.8488543033599854,0.6553772687911987,-5.431788444519043,2340.8653540611267
D4:22:CD:00:49:AA,163.72903442382812,-68.59839630126953,169.7021942138672,-1.521179437637329,-0.19961339235305786,-2.3045172691345215,2340.8653540611267
D4:22:CD:00:05:6E,3.4110095500946045,27.571157455444336,125.67089080810547,-4.5560712814331055,8.502164840698242,-25.667861938476562,2340.8653540611267
D4:22:CD:00:05:5E,170.528076171875,-4.438590049743652,-1.3192369937896729,23.77688217163086,14.726724624633789,37.496246337890625,2340.8653540611267
D4:22:CD:00:05:5D,-156.12916564941406,-29.86922264099121,15.440747261047363,6.3205413818359375,2.9665956497192383,-3.8787221908569336,2340.895354270935
D4:22:CD:00:05:6B,-77.79085540771484,-49.735233306884766,-82.4326171875,-0.31657570600509644,2.448970317840576,-5.121198654174805,2340.895354270935
D4:22:CD:00:49:AA,156.3385009765625,-69.28781127929688,176.99386596679688,-1.5056490898132324,-2.1173882484436035,-1.7872676849365234,2340.895354270935
D4:22:CD:00:05:6E,-14.11328125,10.79444408416748,138.4292449951172,-31.922222137451172,33.362884521484375,-8.169797897338867,2340.895354270935
D4:22:CD:00:05:5E,169.2816162109375,-7.670594692230225,-0.3576853573322296,14.820722579956055,1.1293644905090332,-19.53656768798828,2340.895354270935
D4:22:CD:00:05:5D,-156.57708740234375,-28.930307388305664,17.16075325012207,5.578839302062988,3.103062152862549,-2.838442325592041,2340.9258983135223
D4:22:CD:00:05:6B,-75.313720703125,-47.829566955566406,-85.12064361572266,17.349639892578125,-1.1384921073913574,7.47968864440918,2340.9258983135223
D4:22:CD:00:49:AA,149.6983184814453,-69.91970825195312,-175.71942138671875,-1.0777266025543213,-1.9772772789001465,-2.1009392738342285,2340.9258983135223
D4:22:CD:00:05:6E,-19.945613861083984,10.689632415771484,145.63450622558594,-24.165115356445312,24.271446228027344,-5.9587297439575195,2340.9258983135223
D4:22:CD:00:05:5E,167.49295043945312,-11.478300094604492,1.0340062379837036,19.467884063720703,-0.7626602649688721,-3.746112823486328,2340.9258983135223
D4:22:CD:00:05:5D,-156.9815216064453,-27.948427200317383,19.52951431274414,5.4250688552856445,1.2119174003601074,-1.2434349060058594,2340.9859914779663
D4:22:CD:00:05:6B,-68.153564453125,-44.81285095214844,-90.87167358398438,1.1312155723571777,0.28491634130477905,-4.09622859954834,2340.9859914779663
D4:22:CD:00:49:AA,144.3697052001953,-70.34290313720703,-169.14962768554688,-0.6419204473495483,1.561375617980957,-2.96366548538208,2340.9859914779663
D4:22:CD:00:05:6E,-10.475445747375488,16.408348083496094,146.48681640625,-12.900615692138672,15.039770126342773,-12.325902938842773,2340.9859914779663
D4:22:CD:00:05:5E,165.22328186035156,-10.628183364868164,-0.4850750267505646,24.551551818847656,11.433845520019531,-2.2617807388305664,2340.9859914779663
D4:22:CD:00:05:5D,-157.22511291503906,-27.350454330444336,21.8089656829834,6.367430686950684,-0.12540018558502197,-1.4209318161010742,2341.015528202057
D4:22:CD:00:05:6B,-68.7354965209961,-38.183448791503906,-92.59481811523438,-1.3453774452209473,-0.7327165603637695,9.370147705078125,2341.015528202057
D4:22:CD:00:49:AA,139.4075164794922,-70.53878784179688,-163.5413818359375,0.2840639352798462,4.261832237243652,3.192516326904297,2341.015528202057
D4:22:CD:00:05:6E,2.070312738418579,22.093854904174805,139.8643341064453,-20.83548355102539,9.914566040039062,-18.451427459716797,2341.015528202057
D4:22:CD:00:05:5E,169.98638916015625,-6.943203449249268,-4.356077194213867,22.84081268310547,-5.674674034118652,6.801296234130859,2341.015528202057
D4:22:CD:00:05:5D,-157.24757385253906,-27.141653060913086,22.902149200439453,7.380982398986816,-1.503791332244873,-0.722747802734375,2341.0456318855286
D4:22:CD:00:05:6B,-73.158935546875,-28.531787872314453,-90.84259033203125,-3.2579660415649414,2.8969578742980957,14.051048278808594,2341.0456318855286
D4:22:CD:00:49:AA,137.97889709472656,-71.0391845703125,-161.31375122070312,-0.11860938370227814,-1.8490855693817139,6.437582015991211,2341.0456318855286
D4:22:CD:00:05:6E,7.980510711669922,29.432382583618164,133.10269165039062,-17.89083480834961,-0.8267842531204224,-25.13768768310547,2341.0456318855286
D4:22:CD:00:05:5E,176.30015563964844,-1.807127594947815,-7.002105712890625,23.023948669433594,-6.349024772644043,1.954054832458496,2341.0456318855286
D4:22:CD:00:05:5D,-156.67124938964844,-27.937713623046875,22.900753021240234,6.284049034118652,-0.2785220742225647,-0.4263296127319336,2341.0756323337555
D4:22:CD:00:05:6B,-76.84368896484375,-16.274553298950195,-85.9176025390625,1.1472597122192383,4.786896705627441,20.00731658935547,2341.0756323337555
D4:22:CD:00:49:AA,140.2661590576172,-70.79987335205078,-161.75880432128906,0.03244379907846451,-1.7629578113555908,4.791077613830566,2341.0756323337555
D4:22:CD:00:05:6E,9.665980339050293,35.437320709228516,129.71774291992188,-4.012862205505371,-2.2691073417663574,-18.947967529296875,2341.0756323337555
D4:22:CD:00:05:5E,-177.97015380859375,2.5022976398468018,-8.028587341308594,13.403829574584961,-4.567371368408203,-4.805014610290527,2341.0756323337555
D4:22:CD:00:05:5D,-155.43821716308594,-29.709325790405273,22.428678512573242,5.462985992431641,0.8122133016586304,-0.07053661346435547,2341.1057431697845
D4:22:CD:00:05:6B,-72.94430541992188,-0.9060077667236328,-79.3696517944336,5.4752197265625,-1.3165414333343506,19.214946746826172,2341.1057431697845
D4:22:CD:00:49:AA,140.5670166015625,-71.33480072021484,-160.68307495117188,-0.606907844543457,3.4813342094421387,5.16595458984375,2341.1057431697845
D4:22:CD:00:05:6E,20.487916946411133,37.56914138793945,133.18002319335938,-0.5993672609329224,-4.176861763000488,-19.081707000732422,2341.1057431697845
D4:22:CD:00:05:5E,-174.75540161132812,4.547286033630371,-7.989988803863525,5.845501899719238,1.8577697277069092,-10.590356826782227,2341.1057431697845
D4:22:CD:00:05:5D,-154.41770935058594,-32.2227783203125,21.206512451171875,6.235796928405762,-0.2938321828842163,-0.6506128311157227,2341.1362714767456
D4:22:CD:00:05:6B,-61.1109733581543,16.45368766784668,-71.7552261352539,3.897282123565674,-11.647390365600586,12.448158264160156,2341.1362714767456
D4:22:CD:00:49:AA,141.53024291992188,-72.47824096679688,-160.71299743652344,-1.9814696311950684,2.062878131866455,3.9137487411499023,2341.1362714767456
D4:22:CD:00:05:6E,34.7861213684082,34.768096923828125,142.27206420898438,-12.015266418457031,-9.02874755859375,-12.19747543334961,2341.1362714767456
D4:22:CD:00:05:5E,-174.45437622070312,3.4623348712921143,-8.093523979187012,4.1793928146362305,6.037067413330078,-13.458459854125977,2341.1362714767456
D4:22:CD:00:05:5D,-152.784912109375,-35.341739654541016,19.6788330078125,6.037929534912109,-0.020027652382850647,-1.3039379119873047,2341.166263818741
D4:22:CD:00:05:6B,-43.56541442871094,32.30350112915039,-62.190879821777344,5.328091621398926,-17.13524627685547,1.1799287796020508,2341.166263818741
D4:22:CD:00:49:AA,145.3330535888672,-73.47344970703125,-163.72097778320312,-3.1158103942871094,-1.426985502243042,1.054738998413086,2341.166263818741
D4:22:CD:00:05:6E,42.320472717285156,27.906829833984375,153.46937561035156,-8.050703048706055,-1.862917423248291,-11.310752868652344,2341.166263818741
D4:22:CD:00:05:5E,-174.85252380371094,-1.4269951581954956,-9.080110549926758,4.058799743652344,7.784137725830078,-15.153364181518555,2341.166263818741
D4:22:CD:00:05:5D,-151.0215301513672,-38.67547607421875,17.70830535888672,6.425313949584961,-0.019757036119699478,-1.564356803894043,2341.195271730423
D4:22:CD:00:05:6B,-22.539289474487305,44.78244400024414,-52.2099723815918,3.5869951248168945,-16.01546859741211,-7.430726051330566,2341.195271730423
D4:22:CD:00:49:AA,152.1192626953125,-73.84143829345703,-169.08749389648438,-3.015599250793457,-3.8471322059631348,-0.5383234024047852,2341.195271730423
D4:22:CD:00:05:6E,52.350799560546875,19.025875091552734,164.50559997558594,-12.44869613647461,3.109583854675293,-8.655704498291016,2341.195271730423
D4:22:CD:00:05:5E,-173.5587615966797,-10.035701751708984,-10.817577362060547,3.5588221549987793,6.713075637817383,-13.901176452636719,2341.195271730423
D4:22:CD:00:05:5D,-149.56338500976562,-41.950599670410156,15.730342864990234,5.4647016525268555,2.3966503143310547,-1.0406475067138672,2341.22580575943
D4:22:CD:00:05:6B,-1.2762870788574219,54.13439178466797,-41.52817916870117,-1.2087407112121582,-10.20578384399414,-10.252021789550781,2341.22580575943
D4:22:CD:00:49:AA,159.11993408203125,-74.21846008300781,-173.54660034179688,-1.4541988372802734,-3.620853900909424,-2.118198871612549,2341.22580575943
D4:22:CD:00:05:6E,67.59239196777344,10.375919342041016,174.1129913330078,-16.485370635986328,-0.6619408130645752,-4.658371925354004,2341.22580575943
D4:22:CD:00:05:5E,-170.8617706298828,-21.4683837890625,-12.879889488220215,3.627938747406006,3.348700523376465,-11.33175277709961,2341.22580575943
D4:22:CD:00:05:5D,-148.68606567382812,-44.82080078125,13.798254013061523,4.348669052124023,3.213289737701416,-0.9171247482299805,2341.2858061790466
D4:22:CD:00:05:6B,17.991750717163086,58.61985397338867,-28.37984848022461,-4.381052017211914,-6.801137924194336,-7.851202964782715,2341.2858061790466
D4:22:CD:00:49:AA,165.6290740966797,-74.74604034423828,-176.63461303710938,-1.137054204940796,-1.497103214263916,-2.7787833213806152,2341.2858061790466
D4:22:CD:00:05:6E,83.9861831665039,2.599632740020752,-178.74179077148438,-11.110292434692383,-4.007566452026367,-1.4696483612060547,2341.2858061790466
D4:22:CD:00:05:5E,-168.44964599609375,-34.840850830078125,-15.225092887878418,4.160758972167969,0.33097732067108154,-8.532983779907227,2341.2858061790466
D4:22:CD:00:05:5D,-149.5186309814453,-47.25047302246094,12.227579116821289,3.5085344314575195,1.9390580654144287,-2.7441468238830566,2341.315349340439
D4:22:CD:00:05:6B,30.641441345214844,58.93345642089844,-19.093374252319336,-5.50111198425293,-6.208400726318359,-6.671051025390625,2341.315349340439
D4:22:CD:00:49:AA,168.60736083984375,-75.18905639648438,-176.59205627441406,-0.3111402988433838,0.7391276359558105,-2.7128353118896484,2341.315349340439
D4:22:CD:00:05:6E,99.36774444580078,-4.040517330169678,-174.37472534179688,-7.201398849487305,-1.8705792427062988,-1.3953685760498047,2341.315349340439
D4:22:CD:00:05:5E,-166.2256317138672,-49.39861297607422,-17.655302047729492,2.785526752471924,-2.3368897438049316,-2.493434429168701,2341.315349340439
D4:22:CD:00:05:5D,-150.63938903808594,-48.94340515136719,12.300102233886719,4.083226203918457,1.7814600467681885,-3.691589832305908,2341.345349550247
D4:22:CD:00:05:6B,39.3243293762207,59.7476692199707,-18.53593635559082,-5.491947174072266,-3.4159975051879883,-6.803206443786621,2341.345349550247
D4:22:CD:00:49:AA,168.82252502441406,-75.63114929199219,-174.70062255859375,0.3263499140739441,0.7882764339447021,-3.548060417175293,2341.345349550247
D4:22:CD:00:05:6E,113.65870666503906,-9.414667129516602,-171.91986083984375,-4.839834213256836,0.05191507935523987,-1.4992303848266602,2341.345349550247
D4:22:CD:00:05:5E,-168.06893920898438,-64.21836853027344,-19.409730911254883,0.3927759528160095,-7.096850395202637,3.3839874267578125,2341.345349550247
D4:22:CD:00:05:5D,-152.8149871826172,-49.55271911621094,14.556391716003418,3.646803855895996,1.8111937046051025,-4.445427894592285,2341.375348806381
D4:22:CD:00:05:6B,46.83478927612305,63.03645706176758,-25.194032669067383,-3.3780312538146973,0.9297240972518921,-6.371809005737305,2341.375348806381
D4:22:CD:00:49:AA,169.56959533691406,-76.03264617919922,-173.27345275878906,0.07639694213867188,-2.444589138031006,-3.1729331016540527,2341.375348806381
D4:22:CD:00:05:6E,126.25909423828125,-14.130301475524902,-170.8271484375,-3.5662012100219727,1.4468648433685303,-2.330477237701416,2341.375348806381
D4:22:CD:00:05:5E,-176.51011657714844,-77.21306610107422,-21.175867080688477,-8.392923355102539,-5.99868106842041,12.628934860229492,2341.375348806381
D4:22:CD:00:05:5D,-156.06285095214844,-48.95094680786133,19.5141544342041,2.467337131500244,7.096186637878418,-1.2353954315185547,2341.405351638794
D4:22:CD:00:05:6B,47.507652282714844,68.35816955566406,-37.802520751953125,1.6058461666107178,2.1443557739257812,-6.071530342102051,2341.405351638794
D4:22:CD:00:49:AA,170.2379150390625,-76.66089630126953,-172.02593994140625,0.9365612268447876,-1.5156564712524414,-3.859334945678711,2341.405351638794
D4:22:CD:00:05:6E,137.78199768066406,-18.676677703857422,-171.0343017578125,-4.615192413330078,2.1663365364074707,-3.8892464637756348,2341.405351638794
D4:22:CD:00:05:5E,176.48748779296875,-84.79515838623047,-30.705625534057617,-26.374801635742188,-0.8090091943740845,7.264904022216797,2341.405351638794
D4:22:CD:00:05:5D,-159.6296844482422,-47.92609405517578,24.781972885131836,3.7795329093933105,-0.2549628019332886,-2.457923412322998,2341.4358682632446
D4:22:CD:00:05:6B,33.4904670715332,74.98584747314453,-60.33583450317383,4.607834815979004,0.47460854053497314,-7.618252754211426,2341.4358682632446
D4:22:CD:00:49:AA,170.7420196533203,-77.23733520507812,-171.0944366455078,0.4099839925765991,-0.16773468255996704,-1.9523181915283203,2341.4358682632446
D4:22:CD:00:05:6E,150.86752319335938,-23.149890899658203,-172.96934509277344,-5.8692426681518555,2.8672618865966797,-2.506157398223877,2341.4358682632446
D4:22:CD:00:05:5E,175.79847717285156,-84.43366241455078,-38.646488189697266,-40.60432434082031,28.036823272705078,-3.6899399757385254,2341.4358682632446
D4:22:CD:00:05:5D,-162.2760467529297,-47.18086624145508,29.40812110900879,5.117043495178223,-1.722085952758789,0.6545124053955078,2341.4658694267273
D4:22:CD:00:05:6B,-20.871883392333984,78.14080810546875,-120.72505950927734,8.529857635498047,0.26796650886535645,-7.749414443969727,2341.4658694267273
D4:22:CD:00:49:AA,167.80926513671875,-78.66632843017578,-167.57830810546875,-1.15533447265625,-0.8830889463424683,0.6016254425048828,2341.4658694267273
D4:22:CD:00:05:6E,165.20361328125,-26.31008529663086,-177.4142303466797,-8.516624450683594,6.935468673706055,0.6804637908935547,2341.4658694267273
D4:22:CD:00:05:5E,172.3724822998047,-79.27349090576172,-30.78573989868164,5.588357925415039,-12.90145492553711,3.759134292602539,2341.4658694267273
D4:22:CD:00:05:5D,-165.09861755371094,-46.857666015625,33.580265045166016,6.667267799377441,-1.1022064685821533,0.3428068161010742,2341.495868206024
D4:22:CD:00:05:6B,-63.85369110107422,64.60384368896484,-165.2065887451172,-0.0954555869102478,2.0826497077941895,-16.481616973876953,2341.495868206024
D4:22:CD:00:49:AA,161.91409301757812,-80.26264190673828,-162.77273559570312,-0.1264403760433197,-1.729306936264038,0.3621501922607422,2341.495868206024
D4:22:CD:00:05:6E,174.33119201660156,-26.756690979003906,176.63072204589844,-12.997425079345703,17.255233764648438,-0.0934743881225586,2341.495868206024
D4:22:CD:00:05:5E,167.5171356201172,-75.6990737915039,-23.945472717285156,13.241910934448242,0.5972001552581787,9.531745910644531,2341.495868206024
D4:22:CD:00:05:5D,-167.64767456054688,-47.93308639526367,36.95201110839844,5.37721061706543,-2.945641040802002,1.9504289627075195,2341.5253994464874
D4:22:CD:00:05:6B,-74.56419372558594,44.05659866333008,-175.19288635253906,-22.649208068847656,1.7613067626953125,-19.40890884399414,2341.5253994464874
D4:22:CD:00:49:AA,157.67929077148438,-80.27011108398438,-161.24449157714844,-0.979419469833374,-0.014427879825234413,8.688020706176758,2341.5253994464874
D4:22:CD:00:05:6E,170.67486572265625,-24.41073226928711,172.64337158203125,-12.833175659179688,13.250082015991211,-4.813970565795898,2341.5253994464874
D4:22:CD:00:05:5E,161.64735412597656,-70.42741394042969,-26.501253128051758,5.684377670288086,12.160587310791016,-2.1220693588256836,2341.5253994464874
D4:22:CD:00:05:5D,-169.80819702148438,-51.26545333862305,39.321109771728516,4.353389739990234,0.0466218963265419,3.320262908935547,2341.585399866104
D4:22:CD:00:05:6B,-83.4576644897461,34.963096618652344,-179.1742706298828,-0.13840913772583008,9.92721939086914,6.376766204833984,2341.585399866104
D4:22:CD:00:49:AA,152.2364959716797,-81.93121337890625,-160.35153198242188,2.393153667449951,0.32787173986434937,6.6572418212890625,2341.585399866104
D4:22:CD:00:05:6E,156.39756774902344,-19.733400344848633,171.8727569580078,-10.483665466308594,8.498384475708008,-4.456277847290039,2341.585399866104
D4:22:CD:00:05:5E,157.40493774414062,-68.20866394042969,-22.475950241088867,-1.7776167392730713,-0.851142168045044,1.019730567932129,2341.585399866104
D4:22:CD:00:05:5D,-171.513916015625,-55.542598724365234,40.2126350402832,4.836061477661133,3.607630729675293,5.782525062561035,2341.6159377098083
D4:22:CD:00:05:6B,-87.86845397949219,38.58742904663086,-175.44598388671875,-15.872138977050781,-8.244958877563477,24.14868927001953,2341.6159377098083
D4:22:CD:00:49:AA,148.61578369140625,-82.87010192871094,-161.16534423828125,1.4403362274169922,0.032890208065509796,-0.4805936813354492,2341.6159377098083
D4:22:CD:00:05:6E,138.89439392089844,-14.147395133972168,172.87010192871094,-12.618566513061523,-0.8699353933334351,-9.05487060546875,2341.6159377098083
D4:22:CD:00:05:5E,151.7623291015625,-66.7917251586914,-17.777681350708008,-0.4195569157600403,-1.4114079475402832,1.7440481185913086,2341.6159377098083
D4:22:CD:00:05:5D,-176.8112030029297,-60.107078552246094,39.24727249145508,1.844435691833496,3.6321330070495605,0.5040206909179688,2341.6451637744904
D4:22:CD:00:05:6B,-62.730384826660156,42.68458938598633,-165.55752563476562,-3.5556888580322266,10.439870834350586,-3.0603890419006348,2341.6451637744904
D4:22:CD:00:49:AA,147.44369506835938,-83.49127197265625,-163.2574462890625,0.8437505960464478,3.0246939659118652,-0.9083042144775391,2341.6451637744904
D4:22:CD:00:05:6E,131.08773803710938,-10.669351577758789,174.5397186279297,-11.252761840820312,-3.9959678649902344,-18.122665405273438,2341.6451637744904
D4:22:CD:00:05:5E,145.6361541748047,-66.22691345214844,-11.030153274536133,3.297565460205078,1.3265128135681152,1.675389289855957,2341.6451637744904
D4:22:CD:00:05:5D,172.6191864013672,-59.062286376953125,39.62189483642578,-11.725122451782227,-9.249614715576172,9.74428939819336,2341.6752409934998
D4:22:CD:00:05:6B,-44.10682678222656,44.83218765258789,-142.86497497558594,-9.688909530639648,7.551976203918457,-3.917275905609131,2341.6752409934998
D4:22:CD:00:49:AA,150.76162719726562,-83.7368392944336,-169.55686950683594,4.8512420654296875,3.4706788063049316,-1.5013914108276367,2341.6752409934998
D4:22:CD:00:05:6E,132.18698120117188,-9.677111625671387,176.77944946289062,-8.636518478393555,0.003759655635803938,-9.223983764648438,2341.6752409934998
D4:22:CD:00:05:5E,137.7581787109375,-66.56533813476562,-0.17266827821731567,3.3251376152038574,0.12771284580230713,1.2022781372070312,2341.6752409934998
D4:22:CD:00:05:5D,165.28717041015625,-50.14875411987305,41.54649353027344,-11.480777740478516,4.195459365844727,13.606674194335938,2341.705245733261
D4:22:CD:00:05:6B,-23.904254913330078,37.001129150390625,-120.40045928955078,-4.109099388122559,7.366044998168945,-9.90140151977539,2341.705245733261
D4:22:CD:00:49:AA,160.16192626953125,-83.86317443847656,178.97622680664062,0.8181315660476685,3.5429234504699707,-0.2228078842163086,2341.705245733261
D4:22:CD:00:05:6E,132.5194091796875,-9.17210865020752,179.0709228515625,-8.783601760864258,-2.476963520050049,-5.987454414367676,2341.705245733261
D4:22:CD:00:05:5E,131.5229949951172,-66.90031433105469,11.31704044342041,2.211789608001709,0.6455857753753662,-1.0085391998291016,2341.705245733261
D4:22:CD:00:05:5D,164.18313598632812,-37.837554931640625,41.57426071166992,-0.5289373397827148,5.221498489379883,5.198243141174316,2341.735772371292
D4:22:CD:00:05:6B,-13.377643585205078,21.904888153076172,-103.03005981445312,0.42612797021865845,1.0074193477630615,-16.654857635498047,2341.735772371292
D4:22:CD:00:49:AA,169.69960021972656,-84.24517059326172,168.7259063720703,1.0571763515472412,3.1910452842712402,-0.035019874572753906,2341.735772371292
D4:22:CD:00:05:6E,131.6373291015625,-8.766212463378906,-179.28370666503906,-8.890256881713867,-3.3221240043640137,-6.477121353149414,2341.735772371292
D4:22:CD:00:05:5E,128.89871215820312,-66.75666046142578,17.745088577270508,1.3177580833435059,0.24546068906784058,-1.3165550231933594,2341.735772371292
D4:22:CD:00:05:5D,162.95419311523438,-26.53624153137207,39.445499420166016,2.636890411376953,3.1393065452575684,-4.630853652954102,2341.7657721042633
D4:22:CD:00:05:6B,-12.421051979064941,4.405635356903076,-88.35196685791016,3.6725425720214844,-5.934335708618164,-14.509513854980469,2341.7657721042633
D4:22:CD:00:49:AA,175.53895568847656,-84.44526672363281,162.50083923339844,1.0751852989196777,3.1299118995666504,-0.4705677032470703,2341.7657721042633
D4:22:CD:00:05:6E,131.9917449951172,-8.15474796295166,-178.0191650390625,-8.215452194213867,-2.388972759246826,-6.443353652954102,2341.7657721042633
D4:22:CD:00:05:5E,129.34962463378906,-66.66378021240234,19.34731101989746,0.9089746475219727,-2.3846092224121094,-1.7247200012207031,2341.7657721042633
D4:22:CD:00:05:5D,162.1048126220703,-17.245685577392578,36.72153854370117,4.670523643493652,0.6288923025131226,-9.940299987792969,2341.7957730293274
D4:22:CD:00:05:6B,-18.686973571777344,-11.734984397888184,-73.36669921875,7.958508491516113,-7.477216720581055,-8.752126693725586,2341.7957730293274
D4:22:CD:00:49:AA,176.79901123046875,-84.87837982177734,160.59178161621094,1.0218091011047363,1.7912843227386475,-1.101658821105957,2341.7957730293274
D4:22:CD:00:05:6E,132.7862091064453,-6.995553493499756,-176.80984497070312,-6.980234146118164,-1.4220912456512451,-6.0936174392700195,2341.7957730293274
D4:22:CD:00:05:5E,133.17713928222656,-66.0262680053711,16.89456558227539,1.1134750843048096,-5.528327941894531,-2.3876781463623047,2341.7957730293274
D4:22:CD:00:05:5D,162.6235809326172,-10.410151481628418,33.92161178588867,3.7293009757995605,-1.2801072597503662,-12.705255508422852,2341.825309276581
D4:22:CD:00:05:6B,-30.127302169799805,-22.525352478027344,-57.93317413330078,3.1213674545288086,-5.206835746765137,1.8051481246948242,2341.825309276581
D4:22:CD:00:49:AA,174.78150939941406,-85.7070541381836,161.91844177246094,0.9058387279510498,1.2505552768707275,-3.1098079681396484,2341.825309276581
D4:22:CD:00:05:6E,132.91372680664062,-4.936631679534912,-175.37387084960938,-6.165117263793945,-1.2525882720947266,-6.6089630126953125,2341.825309276581
D4:22:CD:00:05:5E,139.5679931640625,-64.51236724853516,10.693559646606445,0.8033081293106079,-2.053576946258545,-0.9656639099121094,2341.825309276581
D4:22:CD:00:05:5D,163.99533081054688,-6.41646671295166,31.3134708404541,4.640459060668945,-1.3805022239685059,-12.61073112487793,2341.8853125572205
D4:22:CD:00:05:6B,-32.322200775146484,-25.743349075317383,-46.84581756591797,4.7048540115356445,1.064732551574707,3.8773584365844727,2341.8853125572205
D4:22:CD:00:49:AA,171.3355712890625,-86.51890563964844,164.95713806152344,1.5185866355895996,0.6551167964935303,-4.357155799865723,2341.8853125572205
D4:22:CD:00:05:6E,132.80760192871094,-1.9869178533554077,-173.45726013183594,-5.774483680725098,-0.9685192108154297,-7.624706268310547,2341.8853125572205
D4:22:CD:00:05:5E,146.2854461669922,-62.090511322021484,2.324561834335327,1.7606933116912842,-0.042564913630485535,-1.420562744140625,2341.8853125572205
D4:22:CD:00:05:5D,166.22000122070312,-5.319252967834473,28.80753517150879,6.858386993408203,0.1319943368434906,-12.434286117553711,2341.9158611297607
D4:22:CD:00:05:6B,-27.15489387512207,-24.34478187561035,-42.91212844848633,6.861200332641602,5.624301910400391,-4.618707656860352,2341.9158611297607
D4:22:CD:00:49:AA,165.35043334960938,-86.903076171875,170.63624572753906,1.8000779151916504,0.35792410373687744,-5.230623245239258,2341.9158611297607
D4:22:CD:00:05:6E,133.19818115234375,1.224426507949829,-171.08877563476562,-5.29807186126709,-0.7316210269927979,-10.894250869750977,2341.9158611297607
D4:22:CD:00:05:5E,151.0533447265625,-59.012569427490234,-6.283653736114502,0.6041969060897827,1.939849615097046,0.8646039962768555,2341.9158611297607
D4:22:CD:00:05:5D,168.3491668701172,-6.716381072998047,26.800439834594727,8.618249893188477,1.137833833694458,-9.676532745361328,2341.9458594322205
D4:22:CD:00:05:6B,-22.74195098876953,-22.223649978637695,-44.24475860595703,6.490068435668945,5.981060981750488,-6.386617660522461,2341.9458594322205
D4:22:CD:00:49:AA,159.3044891357422,-87.01017761230469,176.1479034423828,0.7072604894638062,2.130746364593506,-5.094241142272949,2341.9458594322205
D4:22:CD:00:05:6E,140.80274963378906,4.1444926261901855,-168.3948211669922,-6.078940391540527,-2.2123756408691406,-8.785125732421875,2341.9458594322205
D4:22:CD:00:05:5E,154.60906982421875,-56.2403450012207,-14.435730934143066,0.5186024904251099,-0.7974443435668945,0.5834083557128906,2341.9458594322205
D4:22:CD:00:05:5D,170.5664520263672,-9.674765586853027,25.48041343688965,11.196460723876953,-4.820660591125488,3.256540298461914,2341.975859642029
D4:22:CD:00:05:6B,-23.577545166015625,-21.244461059570312,-49.59586715698242,5.563371658325195,5.010076522827148,-8.829002380371094,2341.975859642029
D4:22:CD:00:49:AA,158.0176239013672,-87.28797912597656,175.2910614013672,2.0605392456054688,5.296074867248535,-1.7836017608642578,2341.975859642029
D4:22:CD:00:05:6E,150.13348388671875,6.034949779510498,-165.97584533691406,-12.34223747253418,5.014825820922852,4.860539436340332,2341.975859642029
D4:22:CD:00:05:5E,157.13558959960938,-53.89649200439453,-20.050094604492188,2.4581947326660156,0.3095092177391052,1.3977642059326172,2341.975859642029
D4:22:CD:00:05:5D,167.27142333984375,-7.020407676696777,26.48859214782715,12.500064849853516,0.6782907247543335,8.378458023071289,2342.005875349045
D4:22:CD:00:05:6B,-33.25133514404297,-25.961702346801758,-60.2974853515625,2.777401924133301,-7.722248077392578,-1.9905695915222168,2342.005875349045
D4:22:CD:00:49:AA,163.62326049804688,-88.29544067382812,166.9452667236328,1.6368465423583984,0.5629889965057373,1.215036392211914,2342.005875349045
D4:22:CD:00:05:6E,151.884765625,7.690943241119385,-164.4932861328125,-14.968484878540039,4.941445350646973,0.9278888702392578,2342.005875349045
D4:22:CD:00:05:5E,157.79644775390625,-52.70884323120117,-21.0413818359375,2.6614174842834473,1.8671813011169434,1.380986213684082,2342.005875349045
D4:22:CD:00:05:5D,168.66746520996094,-5.269215106964111,27.681644439697266,12.857261657714844,4.416418075561523,-6.569765090942383,2342.035408258438
D4:22:CD:00:05:6B,-37.32029724121094,-37.541500091552734,-77.01560974121094,-2.3717193603515625,-25.763317108154297,17.966838836669922,2342.035408258438
D4:22:CD:00:49:AA,-164.35569763183594,-88.31844329833984,133.77865600585938,-1.8861665725708008,-3.7505764961242676,-0.004647254943847656,2342.035408258438
D4:22:CD:00:05:6E,152.81654357910156,10.636591911315918,-163.22976684570312,-16.693038940429688,7.839743614196777,-3.5116543769836426,2342.035408258438
D4:22:CD:00:05:5E,156.61361694335938,-52.17010498046875,-19.954689025878906,1.4116966724395752,1.755108118057251,1.5210142135620117,2342.035408258438
D4:22:CD:00:05:5D,172.83851623535156,-3.420475959777832,28.444210052490234,18.943313598632812,3.3549585342407227,-4.819830894470215,2342.065407037735
D4:22:CD:00:05:6B,-37.33350372314453,-50.53831100463867,-95.82501983642578,-0.13307571411132812,-32.616966247558594,43.01184844970703,2342.065407037735
D4:22:CD:00:49:AA,-161.26856994628906,-87.76822662353516,130.18394470214844,1.114445447921753,3.026970386505127,6.88203239440918,2342.065407037735
D4:22:CD:00:05:6E,151.23268127441406,16.798311233520508,-159.77308654785156,-23.582538604736328,14.275232315063477,-3.0999755859375,2342.065407037735
D4:22:CD:00:05:5E,154.2347869873047,-52.60148239135742,-18.011632919311523,0.6854345798492432,0.6611206531524658,1.208139419555664,2342.065407037735
D4:22:CD:00:05:5D,174.4065399169922,-2.681724786758423,28.209945678710938,22.014217376708984,1.3185780048370361,1.1002445220947266,2342.0954082012177
D4:22:CD:00:05:6B,-62.80897903442383,-50.596187591552734,-88.70721435546875,24.16767120361328,-4.840812683105469,2.5735931396484375,2342.0954082012177
D4:22:CD:00:49:AA,-172.720703125,-86.48002624511719,140.93572998046875,-1.4393277168273926,2.422121047973633,5.093120574951172,2342.0954082012177
D4:22:CD:00:05:6E,146.9373016357422,24.370773315429688,-153.6345672607422,-28.51580047607422,10.188653945922852,-8.47764778137207,2342.0954082012177
D4:22:CD:00:05:5E,151.3300018310547,-54.04075622558594,-15.682531356811523,0.7551437616348267,0.20338115096092224,1.1400232315063477,2342.0954082012177
D4:22:CD:00:05:5D,170.1920166015625,-2.3098695278167725,27.817691802978516,11.260419845581055,6.889787673950195,9.11859130859375,2342.125950574875
D4:22:CD:00:05:6B,-65.99776458740234,-43.17787551879883,-79.84459686279297,-4.410181999206543,1.0058619976043701,28.201099395751953,2342.125950574875
D4:22:CD:00:49:AA,-178.60179138183594,-84.28193664550781,146.52212524414062,0.010075069963932037,2.837832450866699,7.601741790771484,2342.125950574875
D4:22:CD:00:05:6E,146.60888671875,32.239261627197266,-143.66477966308594,-28.396610260009766,10.842109680175781,-7.328405380249023,2342.125950574875
D4:22:CD:00:05:5E,147.5078125,-56.458194732666016,-12.372396469116211,0.960114598274231,0.7167552709579468,0.9628009796142578,2342.125950574875
D4:22:CD:00:05:5D,167.59288024902344,0.06665945798158646,26.727344512939453,11.77625846862793,3.3423266410827637,5.691709518432617,2342.18594956398
D4:22:CD:00:05:6B,-50.098114013671875,-34.87906265258789,-75.92069244384766,3.276646614074707,-23.457237243652344,3.085606575012207,2342.18594956398
D4:22:CD:00:49:AA,177.29344177246094,-82.22693634033203,150.13841247558594,2.257896900177002,4.428136825561523,4.141946792602539,2342.18594956398
D4:22:CD:00:05:6E,145.10533142089844,40.18458938598633,-129.46908569335938,-24.33945083618164,1.961839199066162,-9.819677352905273,2342.18594956398
D4:22:CD:00:05:5E,142.1566925048828,-59.41328048706055,-7.281792163848877,2.0417394638061523,1.6729135513305664,0.7881050109863281,2342.18594956398
D4:22:CD:00:05:5D,165.48135375976562,3.2913005352020264,26.276607513427734,9.563030242919922,-1.2402291297912598,4.8461456298828125,2342.215501308441
D4:22:CD:00:05:6B,-40.46663284301758,-28.65757179260254,-74.59977722167969,13.639961242675781,-11.81385612487793,-4.35091495513916,2342.215501308441
D4:22:CD:00:49:AA,175.31361389160156,-81.10009002685547,151.33351135253906,0.6327741146087646,4.071962356567383,2.4762496948242188,2342.215501308441
D4:22:CD:00:05:6E,146.08181762695312,46.342308044433594,-111.53868103027344,-13.334810256958008,-2.0214009284973145,-14.95817756652832,2342.215501308441
D4:22:CD:00:05:5E,135.27850341796875,-62.40422058105469,-0.0003096383879892528,2.2783799171447754,1.1139724254608154,0.41091251373291016,2342.215501308441
D4:22:CD:00:05:5D,165.12994384765625,6.682649612426758,26.326642990112305,3.592822551727295,0.870206356048584,-1.394577980041504,2342.245501279831
D4:22:CD:00:05:6B,-45.12144088745117,-23.88030242919922,-74.32185363769531,1.9210457801818848,-6.640314102172852,-4.672517776489258,2342.245501279831
D4:22:CD:00:49:AA,171.91619873046875,-80.00614929199219,152.86801147460938,0.7518104314804077,3.846963882446289,1.4181222915649414,2342.245501279831
D4:22:CD:00:05:6E,153.8648223876953,48.79023361206055,-91.87933349609375,-10.45595932006836,-3.2931580543518066,-11.511980056762695,2342.245501279831
D4:22:CD:00:05:5E,127.64335632324219,-64.88412475585938,8.406167984008789,1.6000604629516602,-1.1846723556518555,-0.41450023651123047,2342.245501279831
D4:22:CD:00:05:5D,165.23146057128906,9.210919380187988,26.11493492126465,2.3223462104797363,-2.002627372741699,-7.961373329162598,2342.275502204895
D4:22:CD:00:05:6B,-52.625240325927734,-22.085391998291016,-75.79306030273438,-1.4342167377471924,-2.228165626525879,-4.799886703491211,2342.275502204895
D4:22:CD:00:49:AA,168.9514923095703,-78.94422149658203,154.14112854003906,0.6491740942001343,2.8571958541870117,-0.9661474227905273,2342.275502204895
D4:22:CD:00:05:6E,157.94525146484375,49.0560188293457,-74.39247131347656,-11.890937805175781,-13.055877685546875,-2.95711612701416,2342.275502204895
D4:22:CD:00:05:5E,121.17496490478516,-66.35340881347656,14.584190368652344,3.805176258087158,0.6102856397628784,-1.905329704284668,2342.275502204895
D4:22:CD:00:05:5D,163.54168701171875,9.730550765991211,25.910066604614258,1.505237340927124,-6.071133613586426,-15.338438034057617,2342.305504798889
D4:22:CD:00:05:6B,-56.21393966674805,-22.990013122558594,-78.1986312866211,-1.131178379058838,-1.5193979740142822,-3.411289691925049,2342.305504798889
D4:22:CD:00:49:AA,167.31478881835938,-78.14917755126953,154.9116973876953,-0.7701030969619751,0.5484999418258667,-4.2329912185668945,2342.305504798889
D4:22:CD:00:05:6E,148.42515563964844,49.92806625366211,-63.890777587890625,-1.6136176586151123,-3.4958248138427734,-6.946345329284668,2342.305504798889
D4:22:CD:00:05:5E,116.93125915527344,-67.29509735107422,17.187557220458984,2.833866596221924,-1.8022027015686035,-2.080136299133301,2342.305504798889
D4:22:CD:00:05:5D,160.0217742919922,7.154101848602295,26.115140914916992,1.0498158931732178,-7.370976448059082,-20.785858154296875,2342.3360352516174
D4:22:CD:00:05:6B,-55.10422897338867,-25.41792106628418,-82.29430389404297,0.26334941387176514,-1.2067432403564453,-4.514921188354492,2342.3360352516174
D4:22:CD:00:49:AA,165.3515625,-77.3609390258789,156.23800659179688,-1.242337703704834,-0.20075297355651855,-5.46993350982666,2342.3360352516174
D4:22:CD:00:05:6E,135.72857666015625,49.94190979003906,-59.93760681152344,-4.184182167053223,-0.3873891830444336,-10.387052536010742,2342.3360352516174
D4:22:CD:00:05:5E,116.34321594238281,-68.27523040771484,14.936412811279297,-3.349599838256836,-5.63946533203125,-3.4626107215881348,2342.3360352516174
D4:22:CD:00:05:5D,156.82586669921875,1.1907055377960205,27.2484188079834,2.516488552093506,-5.242801666259766,-18.843021392822266,2342.3660361766815
D4:22:CD:00:05:6B,-52.6246452331543,-28.74785614013672,-87.89839172363281,0.07587963342666626,-0.8477672338485718,-5.973979949951172,2342.3660361766815
D4:22:CD:00:49:AA,162.79598999023438,-76.28343963623047,158.35826110839844,0.5054669380187988,0.9359831809997559,-3.9896140098571777,2342.3660361766815
D4:22:CD:00:05:6E,120.35188293457031,47.63311767578125,-60.5402717590332,-2.4723310470581055,-0.3801559805870056,-6.265921592712402,2342.3660361766815
D4:22:CD:00:05:5E,119.9858627319336,-69.1136703491211,9.07258129119873,-2.145371913909912,-2.0455679893493652,-1.3974342346191406,2342.3660361766815
D4:22:CD:00:05:5D,155.19708251953125,-7.976874828338623,29.555660247802734,4.356758117675781,-1.5832228660583496,-15.671182632446289,2342.3960349559784
D4:22:CD:00:05:6B,-51.19772720336914,-32.514225006103516,-94.5389633178711,-0.8113563060760498,-0.9009056091308594,-6.44544792175293,2342.3960349559784
D4:22:CD:00:49:AA,159.64393615722656,-75.66429138183594,160.9063720703125,1.2070419788360596,1.0551929473876953,-3.6131834983825684,2342.3960349559784
D4:22:CD:00:05:6E,102.8187255859375,40.30261993408203,-64.90560150146484,-1.1295666694641113,2.6702218055725098,-10.128971099853516,2342.3960349559784
D4:22:CD:00:05:5E,129.292724609375,-69.61532592773438,1.0890023708343506,2.405043125152588,-2.717435359954834,0.6010847091674805,2342.3960349559784
D4:22:CD:00:05:5D,152.7499237060547,-20.472700119018555,31.98198127746582,5.404802322387695,-0.45255357027053833,-6.471510887145996,2342.4265768527985
D4:22:CD:00:05:6B,-51.968055725097656,-36.645626068115234,-101.3601303100586,-1.680927038192749,-0.4202810525894165,-6.038862228393555,2342.4265768527985
D4:22:CD:00:49:AA,156.91920471191406,-75.5044937133789,163.13204956054688,0.8486849069595337,-0.0009193087462335825,-3.1679983139038086,2342.4265768527985
D4:22:CD:00:05:6E,90.10037994384766,27.10134506225586,-69.57353973388672,0.4442954659461975,-10.638683319091797,-11.275461196899414,2342.4265768527985
D4:22:CD:00:05:5E,139.62110900878906,-69.13304901123047,-9.795795440673828,1.720728874206543,2.1797075271606445,-0.6953353881835938,2342.4265768527985
D4:22:CD:00:05:5D,144.48069763183594,-36.36845397949219,34.33155822753906,4.749048233032227,4.849289894104004,2.2333717346191406,2342.485583782196
D4:22:CD:00:05:6B,-56.847660064697266,-41.494964599609375,-106.25410461425781,-3.153200149536133,2.701730728149414,-7.1057891845703125,2342.485583782196
D4:22:CD:00:49:AA,156.07101440429688,-75.53705596923828,164.51658630371094,1.3179740905761719,-1.1319470405578613,-1.4203205108642578,2342.485583782196
D4:22:CD:00:05:6E,80.45613098144531,11.828145980834961,-69.5381851196289,6.408243179321289,-32.23149871826172,-6.512369155883789,2342.485583782196
D4:22:CD:00:05:5E,147.3256072998047,-68.57450866699219,-18.211166381835938,1.1719739437103271,3.1965560913085938,-0.4660491943359375,2342.485583782196
D4:22:CD:00:05:5D,138.54246520996094,-52.87999725341797,37.096046447753906,8.078180313110352,13.2503662109375,13.710674285888672,2342.51611995697
D4:22:CD:00:05:6B,-64.42647552490234,-47.867366790771484,-108.05363464355469,1.3585312366485596,4.203464508056641,-3.8737897872924805,2342.51611995697
D4:22:CD:00:49:AA,154.79348754882812,-76.4671859741211,167.1048126220703,2.801635265350342,1.594782829284668,-0.048198699951171875,2342.51611995697
D4:22:CD:00:05:6E,86.71229553222656,4.731000900268555,-61.32987594604492,3.5280637741088867,-3.2223315238952637,-32.53840637207031,2342.51611995697
D4:22:CD:00:05:5E,151.85989379882812,-69.62789916992188,-22.73933982849121,1.1787714958190918,0.4730980396270752,5.24477481842041,2342.51611995697
D4:22:CD:00:05:5D,142.3693084716797,-63.83660888671875,39.82050323486328,-8.854219436645508,1.4995267391204834,21.759380340576172,2342.5451288223267
D4:22:CD:00:05:6B,-66.54584503173828,-55.436492919921875,-109.7496566772461,7.419092178344727,6.770936012268066,-0.25389957427978516,2342.5451288223267
D4:22:CD:00:49:AA,151.52432250976562,-78.29460906982422,172.12457275390625,2.963740825653076,2.8644518852233887,-0.5867109298706055,2342.5451288223267
D4:22:CD:00:05:6E,124.31075286865234,9.864333152770996,-55.27213668823242,0.6957674026489258,10.788408279418945,-6.271360397338867,2342.5451288223267
D4:22:CD:00:05:5E,154.03509521484375,-72.17288208007812,-26.076669692993164,1.8171350955963135,2.021965503692627,3.1230859756469727,2342.5451288223267
D4:22:CD:00:05:5D,149.46139526367188,-63.86577224731445,40.282108306884766,-16.261470794677734,-5.769047737121582,8.60948371887207,2342.5761275291443
D4:22:CD:00:05:6B,-57.219215393066406,-64.30052185058594,-113.85602569580078,4.265535354614258,4.906511306762695,-1.4164867401123047,2342.5761275291443
D4:22:CD:00:49:AA,148.33900451660156,-79.93030548095703,176.91152954101562,6.220810890197754,7.35118293762207,0.4644651412963867,2342.5761275291443
D4:22:CD:00:05:6E,160.4341583251953,16.53059196472168,-47.5406494140625,-3.3183670043945312,-4.2124481201171875,6.044301986694336,2342.5761275291443
D4:22:CD:00:05:5E,153.70730590820312,-75.95050811767578,-27.02770233154297,2.7594103813171387,0.26630693674087524,2.8717269897460938,2342.5761275291443
D4:22:CD:00:05:5D,154.45689392089844,-58.68303298950195,38.34515380859375,9.738021850585938,11.701700210571289,-4.585570335388184,2342.606281518936
D4:22:CD:00:05:6B,-33.866600036621094,-74.45952606201172,-126.760009765625,-1.5542199611663818,0.8679327964782715,7.609272003173828,2342.606281518936
D4:22:CD:00:49:AA,154.5764617919922,-79.06917572021484,169.6372833251953,6.101249694824219,5.649598121643066,6.540439605712891,2342.606281518936
D4:22:CD:00:05:6E,173.06414794921875,24.775983810424805,-40.64126205444336,-3.406859874725342,-8.04279899597168,0.03607463836669922,2342.606281518936
D4:22:CD:00:05:5E,151.00051879882812,-80.60736083984375,-23.534059524536133,-0.8476581573486328,-1.5042109489440918,5.781136512756348,2342.606281518936
D4:22:CD:00:05:5D,159.45956420898438,-55.22066879272461,33.34123229980469,8.394001007080078,14.544347763061523,-5.864222526550293,2342.6358256340027
D4:22:CD:00:05:6B,19.599260330200195,-80.72492218017578,-169.3672637939453,-2.526979446411133,-0.529616117477417,13.739309310913086,2342.6358256340027
D4:22:CD:00:49:AA,157.91493225097656,-78.68214416503906,165.2145233154297,-0.22674450278282166,-1.7750775814056396,2.2189998626708984,2342.6358256340027
D4:22:CD:00:05:6E,178.14500427246094,34.92879104614258,-34.81327819824219,-3.0201268196105957,-2.119157314300537,-3.1720190048217773,2342.6358256340027
D4:22:CD:00:05:5E,147.13677978515625,-84.71955108642578,-19.796478271484375,-7.08211612701416,-4.885912895202637,-0.302276611328125,2342.6358256340027
D4:22:CD:00:05:5D,167.05673217773438,-52.31298828125,28.54123878479004,5.843623161315918,-7.896572113037109,2.982450485229492,2342.665824651718
D4:22:CD:00:05:6B,59.97464370727539,-80.18917083740234,154.80462646484375,-0.18187132477760315,-0.8160382509231567,7.597900390625,2342.665824651718
D4:22:CD:00:49:AA,160.22613525390625,-78.18451690673828,164.50701904296875,1.3481698036193848,-3.9809484481811523,-2.562563896179199,2342.665824651718
D4:22:CD:00:05:6E,-176.19984436035156,46.824867248535156,-29.89109992980957,-2.978954792022705,2.765198230743408,-0.4293794631958008,2342.665824651718
D4:22:CD:00:05:5E,151.4410400390625,-85.86871337890625,-21.653263092041016,-14.58091926574707,8.404319763183594,-1.0653934478759766,2342.665824651718
D4:22:CD:00:05:5D,172.36221313476562,-49.71747970581055,26.25775146484375,5.558159828186035,5.775873184204102,-0.3077096939086914,2342.6958253383636
D4:22:CD:00:05:6B,58.997440338134766,-82.45574188232422,157.30918884277344,-0.4529237747192383,-0.9519234895706177,0.9509410858154297,2342.6958253383636
D4:22:CD:00:49:AA,165.15756225585938,-77.23868560791016,161.6143798828125,-1.6681938171386719,-2.5241141319274902,-0.013818740844726562,2342.6958253383636
D4:22:CD:00:05:6E,-168.90615844726562,60.74920654296875,-24.79788589477539,2.60689115524292,1.9107425212860107,-2.429677963256836,2342.6958253383636
D4:22:CD:00:05:5E,173.50013732910156,-81.25470733642578,-39.428260803222656,-17.49010467529297,6.931097030639648,3.4140758514404297,2342.6958253383636
D4:22:CD:00:05:5D,178.08424377441406,-47.65851974487305,26.11705207824707,1.6812758445739746,-0.38884419202804565,1.4057559967041016,2342.7253658771515
D4:22:CD:00:05:6B,-1.094910979270935,-85.32081604003906,-141.0519256591797,-1.6670103073120117,-2.914639949798584,2.6152734756469727,2342.7253658771515
D4:22:CD:00:49:AA,172.49449157714844,-76.37944793701172,156.51263427734375,-1.8908543586730957,-1.2448537349700928,2.060612678527832,2342.7253658771515
D4:22:CD:00:05:6E,-148.8528289794922,74.64710998535156,-8.653912544250488,2.5762276649475098,0.9450116157531738,-7.978400230407715,2342.7253658771515
D4:22:CD:00:05:5E,178.37649536132812,-71.48553466796875,-44.686553955078125,-9.322113037109375,0.8078347444534302,6.1217451095581055,2342.7253658771515
D4:22:CD:00:05:5D,-179.01271057128906,-46.53859329223633,25.08036231994629,5.074454307556152,-0.7632044553756714,0.8793697357177734,2342.815013408661
D4:22:CD:00:05:6B,-56.8375244140625,-79.15868377685547,-86.75492858886719,-1.7229139804840088,-4.264622688293457,1.2032594680786133,2342.815013408661
D4:22:CD:00:49:AA,178.4566650390625,-75.48544311523438,152.2859344482422,-2.0798540115356445,-0.9947205781936646,0.19032764434814453,2342.815013408661
D4:22:CD:00:05:6E,-74.47250366210938,80.0401382446289,61.24011993408203,-2.6164255142211914,4.455435752868652,-11.96815299987793,2342.815013408661
D4:22:CD:00:05:5E,177.33380126953125,-61.32263946533203,-42.794281005859375,-2.51725435256958,0.8565194606781006,1.6596555709838867,2342.815013408661
D4:22:CD:00:05:5D,-177.08499145507812,-45.964012145996094,23.036874771118164,4.3714141845703125,0.14744430780410767,-0.3867616653442383,2342.819013595581
D4:22:CD:00:05:6B,-74.82894897460938,-71.14618682861328,-74.6369400024414,-0.9767568111419678,-3.4622650146484375,-2.1079049110412598,2342.819013595581
D4:22:CD:00:49:AA,-177.7858123779297,-74.6238784790039,149.99525451660156,-3.987152099609375,-1.8743584156036377,0.000865936279296875,2342.819013595581
D4:22:CD:00:05:6E,-23.92625617980957,71.09114837646484,101.27460479736328,3.1072616577148438,12.561014175415039,-8.057209014892578,2342.819013595581
D4:22:CD:00:05:5E,178.50462341308594,-52.43967056274414,-39.51016616821289,-0.7225538492202759,-0.5267360210418701,-1.9317946434020996,2342.819013595581
D4:22:CD:00:05:5D,-175.0487060546875,-45.83713912963867,20.796371459960938,3.6324105262756348,0.7020702362060547,-0.1036233901977539,2342.846004486084
D4:22:CD:00:05:6B,-85.65396118164062,-65.10337829589844,-71.22496795654297,-1.6664338111877441,0.45005202293395996,-1.2416534423828125,2342.846004486084
D4:22:CD:00:49:AA,-176.367431640625,-74.04122161865234,148.96334838867188,-0.9564069509506226,0.37060534954071045,1.330338478088379,2342.846004486084
D4:22:CD:00:05:6E,11.625143051147461,61.36233139038086,113.86268615722656,-6.533167839050293,-6.688215255737305,-15.307853698730469,2342.846004486084
D4:22:CD:00:05:5E,178.98939514160156,-44.29582595825195,-35.696903228759766,0.7859843969345093,0.4649930000305176,-5.704990386962891,2342.846004486084
D4:22:CD:00:05:5D,-173.3748321533203,-46.18642044067383,18.751182556152344,4.020586967468262,0.8337724208831787,-0.34282398223876953,2342.876013278961
D4:22:CD:00:05:6B,-89.7765121459961,-61.74659729003906,-71.740478515625,-1.6094028949737549,0.8939733505249023,-1.1225156784057617,2342.876013278961
D4:22:CD:00:49:AA,-175.66976928710938,-73.48323822021484,147.89346313476562,-0.9182175397872925,1.9282677173614502,0.07749462127685547,2342.876013278961
D4:22:CD:00:05:6E,42.73125457763672,50.12590026855469,114.74299621582031,-25.530059814453125,-9.874269485473633,-16.00115203857422,2342.876013278961
D4:22:CD:00:05:5E,178.22821044921875,-37.44853591918945,-31.15152359008789,0.8260468244552612,1.6361620426177979,-7.328662872314453,2342.876013278961
D4:22:CD:00:05:5D,-171.9536895751953,-46.61674499511719,16.757009506225586,4.497598648071289,0.6093658208847046,-1.2474298477172852,2342.906018972397
D4:22:CD:00:05:6B,-88.54592895507812,-60.70601272583008,-74.03633880615234,-1.6670308113098145,-2.072323799133301,-1.828413486480713,2342.906018972397
D4:22:CD:00:49:AA,-176.5361328125,-73.20355224609375,148.01358032226562,-2.363783359527588,-0.41782379150390625,-2.0152764320373535,2342.906018972397
D4:22:CD:00:05:6E,72.70358276367188,40.60484313964844,111.3327407836914,-35.79480743408203,2.4823570251464844,-6.8404645919799805,2342.906018972397
D4:22:CD:00:05:5E,177.25587463378906,-32.31149673461914,-26.493249893188477,3.726776123046875,-0.44555872678756714,-10.028680801391602,2342.906018972397
D4:22:CD:00:05:5D,-170.71080017089844,-46.69767761230469,14.705954551696777,5.291199684143066,-0.18264642357826233,-1.8771400451660156,2342.9355549812317
D4:22:CD:00:05:6B,-85.99852752685547,-60.27310562133789,-77.56620025634766,-0.954815149307251,-3.827615737915039,0.08201026916503906,2342.9355549812317
D4:22:CD:00:49:AA,-179.89120483398438,-72.66806030273438,150.0523681640625,-0.7715376615524292,0.33644944429397583,-3.244145393371582,2342.9355549812317
D4:22:CD:00:05:6E,85.4916000366211,34.74498748779297,107.31465148925781,-27.948543548583984,17.234573364257812,14.830007553100586,2342.9355549812317
D4:22:CD:00:05:5E,174.46148681640625,-30.21215057373047,-21.987394332885742,9.289913177490234,-3.7753028869628906,-16.28036117553711,2342.9355549812317
D4:22:CD:00:05:5D,-169.92469787597656,-46.10548400878906,13.154778480529785,5.056452751159668,1.877530574798584,-1.0532903671264648,2342.9655537605286
D4:22:CD:00:05:6B,-83.30491638183594,-58.65117645263672,-82.88555908203125,-1.4007065296173096,-3.9247145652770996,-0.21100807189941406,2342.9655537605286
D4:22:CD:00:49:AA,173.82492065429688,-72.13392639160156,153.7552947998047,0.8116005659103394,0.8268237113952637,-3.6382670402526855,2342.9655537605286
D4:22:CD:00:05:6E,75.36122131347656,31.55543327331543,105.31869506835938,-2.1017045974731445,5.8578643798828125,-9.160694122314453,2342.9655537605286
D4:22:CD:00:05:5E,170.164306640625,-32.753150939941406,-17.64227294921875,13.298419952392578,-2.558162212371826,-15.406070709228516,2342.9655537605286
D4:22:CD:00:05:5D,-171.31394958496094,-44.78647232055664,12.933810234069824,4.599152565002441,2.25986385345459,-3.499513626098633,2342.9955549240112
D4:22:CD:00:05:6B,-83.79447174072266,-54.64943313598633,-88.43143463134766,-1.7813475131988525,-3.4099574089050293,-3.3222360610961914,2342.9955549240112
D4:22:CD:00:49:AA,166.5424346923828,-70.9986343383789,157.299072265625,-0.8110325336456299,-0.9031127691268921,-6.982148170471191,2342.9955549240112
D4:22:CD:00:05:6E,70.9337387084961,26.536331176757812,107.24256134033203,-0.12857693433761597,0.4696659445762634,-13.697320938110352,2342.9955549240112
D4:22:CD:00:05:5E,172.2406463623047,-35.760963439941406,-15.181646347045898,-4.306313514709473,10.750068664550781,51.965919494628906,2342.9955549240112
D4:22:CD:00:05:5D,-172.19955444335938,-42.70038604736328,14.190281867980957,3.0277099609375,1.0126330852508545,-2.7331857681274414,2343.051107645035
D4:22:CD:00:05:6B,-88.3782730102539,-48.69884490966797,-93.26264190673828,-1.1410918235778809,-1.432316780090332,-4.448233604431152,2343.051107645035
D4:22:CD:00:49:AA,161.2467803955078,-69.19110107421875,159.3950958251953,-2.934919834136963,-3.7981820106506348,-2.501894474029541,2343.051107645035
D4:22:CD:00:05:6E,64.47159576416016,18.45104217529297,113.80046081542969,-9.135902404785156,4.034235000610352,-5.6291351318359375,2343.051107645035
D4:22:CD:00:05:5E,169.03831481933594,-37.78977584838867,-15.338248252868652,9.851097106933594,-3.4153285026550293,-2.347208023071289,2343.051107645035
D4:22:CD:00:05:5D,-172.5308074951172,-40.1008186340332,16.05856704711914,4.797300338745117,2.733919620513916,-0.7574424743652344,2343.0861048698425
D4:22:CD:00:05:6B,-94.64775848388672,-42.647003173828125,-97.49516296386719,-0.9942219257354736,0.566956639289856,-4.321462631225586,2343.0861048698425
D4:22:CD:00:49:AA,158.4868927001953,-68.21173095703125,160.72731018066406,-4.973899841308594,-4.196861267089844,2.500823974609375,2343.0861048698425
D4:22:CD:00:05:6E,46.667293548583984,10.154348373413086,126.06463623046875,-16.698566436767578,7.118756294250488,-12.260866165161133,2343.0861048698425
D4:22:CD:00:05:5E,166.34002685546875,-40.04152297973633,-13.633454322814941,16.537330627441406,-3.6268277168273926,3.1350927352905273,2343.0861048698425
D4:22:CD:00:05:5D,-172.630859375,-37.6667366027832,18.419954299926758,3.3808841705322266,-0.1507299840450287,-0.2664041519165039,2343.115649461746
D4:22:CD:00:05:6B,-101.16389465332031,-38.166908264160156,-100.08489990234375,1.2985103130340576,5.408237457275391,-0.35682010650634766,2343.115649461746
D4:22:CD:00:49:AA,157.3955841064453,-67.80763244628906,162.10711669921875,-1.517897367477417,0.12883588671684265,0.35468101501464844,2343.115649461746
D4:22:CD:00:05:6E,26.612346649169922,8.199301719665527,140.09251403808594,-34.04291534423828,26.61447525024414,-11.727279663085938,2343.115649461746
D4:22:CD:00:05:5E,165.79513549804688,-40.61810302734375,-12.928166389465332,15.22885513305664,-2.8701748847961426,8.815378189086914,2343.115649461746
D4:22:CD:00:05:5D,-172.29437255859375,-35.82345199584961,20.81321144104004,3.692020893096924,0.933525800704956,0.7798194885253906,2343.1457664966583
D4:22:CD:00:05:6B,-103.1455078125,-36.65685272216797,-100.22225952148438,4.891592979431152,7.0287065505981445,4.371347427368164,2343.1457664966583
D4:22:CD:00:49:AA,156.67909240722656,-67.78175354003906,163.6615447998047,0.12252756953239441,1.913663387298584,6.0142927169799805,2343.1457664966583
D4:22:CD:00:05:6E,22.183406829833984,12.92071533203125,146.94154357910156,-14.787017822265625,20.615966796875,-20.115982055664062,2343.1457664966583
D4:22:CD:00:05:5E,167.3556365966797,-39.49278259277344,-13.77283763885498,10.693954467773438,-6.999748229980469,8.814990997314453,2343.1457664966583
D4:22:CD:00:05:5D,-171.88462829589844,-34.82871627807617,22.49973487854004,3.954331874847412,-0.30759942531585693,0.8399906158447266,2343.17528629303
D4:22:CD:00:05:6B,-101.28889465332031,-35.82063293457031,-98.07701873779297,2.4731903076171875,5.782604217529297,11.36030387878418,2343.17528629303
D4:22:CD:00:49:AA,155.85198974609375,-67.97990417480469,165.3354949951172,-0.2195335328578949,0.19975262880325317,6.290639877319336,2343.17528629303
D4:22:CD:00:05:6E,28.619224548339844,15.392393112182617,142.47003173828125,-22.579017639160156,18.0643310546875,-17.114795684814453,2343.17528629303
D4:22:CD:00:05:5E,172.14938354492188,-38.62267303466797,-15.198405265808105,13.514581680297852,-3.3291802406311035,1.5754947662353516,2343.17528629303
D4:22:CD:00:05:5D,-171.36788940429688,-34.844993591308594,23.30059051513672,3.217061996459961,0.629958987236023,1.218282699584961,2343.205388069153
D4:22:CD:00:05:6B,-100.36305236816406,-31.477949142456055,-94.86802673339844,1.4294583797454834,1.3474342823028564,11.041814804077148,2343.205388069153
D4:22:CD:00:49:AA,157.87091064453125,-68.04680633544922,164.0155487060547,-0.7194783687591553,-0.5338934659957886,5.698604583740234,2343.205388069153
D4:22:CD:00:05:6E,37.02983856201172,18.976497650146484,137.34176635742188,-14.591720581054688,3.9716992378234863,-24.455230712890625,2343.205388069153
D4:22:CD:00:05:5E,173.33053588867188,-36.079994201660156,-18.094322204589844,8.53886604309082,-3.5542802810668945,2.434149742126465,2343.205388069153
D4:22:CD:00:05:5D,-170.90554809570312,-35.96438980102539,23.32183265686035,4.095152854919434,-0.2719268202781677,0.4269981384277344,2343.2352340221405
D4:22:CD:00:05:6B,-101.69505310058594,-24.640295028686523,-90.9939193725586,2.5881447792053223,2.355696201324463,8.508071899414062,2343.2352340221405
D4:22:CD:00:49:AA,161.49957275390625,-68.30770111083984,161.5292510986328,-1.3110630512237549,-0.001892484026029706,5.854713439941406,2343.2352340221405
D4:22:CD:00:05:6E,47.104434967041016,22.289918899536133,136.13938903808594,-10.045492172241211,-0.8562667369842529,-18.801597595214844,2343.2352340221405
D4:22:CD:00:05:5E,174.41323852539062,-35.39122772216797,-20.71004295349121,10.573352813720703,1.1017003059387207,-2.2178311347961426,2343.2352340221405
D4:22:CD:00:05:5D,-169.85069274902344,-37.79764175415039,23.2238712310791,4.683838844299316,-0.544558048248291,-0.4795999526977539,2343.265233039856
D4:22:CD:00:05:6B,-101.21858215332031,-16.999990463256836,-86.35609436035156,4.839808464050293,0.790095329284668,7.059118270874023,2343.265233039856
D4:22:CD:00:49:AA,163.29257202148438,-69.26656341552734,160.3344268798828,-1.277726411819458,1.6062324047088623,3.9493026733398438,2343.265233039856
D4:22:CD:00:05:6E,56.598487854003906,24.97812271118164,139.50823974609375,-7.457971572875977,-1.719637393951416,-14.986808776855469,2343.265233039856
D4:22:CD:00:05:5E,178.06414794921875,-37.2011833190918,-23.977148056030273,6.1993913650512695,2.1672463417053223,-3.283358573913574,2343.265233039856
D4:22:CD:00:05:5D,-168.5581512451172,-40.05186080932617,22.388362884521484,4.07413387298584,-0.6458919048309326,0.5097694396972656,2343.29523229599
D4:22:CD:00:05:6B,-97.11969757080078,-9.23662281036377,-81.6075210571289,6.246335983276367,-2.639796733856201,9.283548355102539,2343.29523229599
D4:22:CD:00:49:AA,162.4800567626953,-71.42350769042969,160.9155731201172,-3.328878402709961,-0.5573607683181763,2.484379768371582,2343.29523229599
D4:22:CD:00:05:6E,67.6680679321289,26.828393936157227,146.30201721191406,-7.889300346374512,-1.110452651977539,-13.545894622802734,2343.29523229599
D4:22:CD:00:05:5E,-177.9304962158203,-41.132328033447266,-27.254436492919922,3.2649621963500977,1.4332945346832275,-6.1961517333984375,2343.29523229599
D4:22:CD:00:05:5D,-168.1487274169922,-43.65915298461914,19.19363784790039,3.0872530937194824,-0.7239022254943848,0.42236804962158203,2343.3257830142975
D4:22:CD:00:05:6B,-89.13929748535156,-0.9289652705192566,-78.20545196533203,10.81854248046875,-4.97064208984375,12.848247528076172,2343.3257830142975
D4:22:CD:00:49:AA,162.25576782226562,-73.4329833984375,161.10963439941406,-1.3840522766113281,-1.1721916198730469,-0.7097883224487305,2343.3257830142975
D4:22:CD:00:05:6E,82.34288024902344,26.84346580505371,155.747802734375,-10.313404083251953,-1.1949191093444824,-8.420503616333008,2343.3257830142975
D4:22:CD:00:05:5E,-174.91282653808594,-46.68706130981445,-30.723243713378906,2.2230377197265625,0.07723604142665863,-8.055164337158203,2343.3257830142975
D4:22:CD:00:05:5D,-168.64381408691406,-47.51282501220703,15.482419967651367,3.7102417945861816,-0.9192559719085693,0.08983898162841797,2343.3859810829163
D4:22:CD:00:05:6B,-76.949951171875,8.644058227539062,-77.23613739013672,7.070347785949707,-9.158437728881836,11.701791763305664,2343.3859810829163
D4:22:CD:00:49:AA,163.0751495361328,-75.15140533447266,160.42694091796875,-1.7343792915344238,0.8262284994125366,-1.5471200942993164,2343.3859810829163
D4:22:CD:00:05:6E,96.3829574584961,24.00895118713379,166.72474670410156,-9.209238052368164,-1.4963657855987549,-5.2811126708984375,2343.3859810829163
D4:22:CD:00:05:5E,-172.8755340576172,-53.45543670654297,-34.63362121582031,2.356311798095703,-0.8434926271438599,-7.290297508239746,2343.3859810829163
D4:22:CD:00:05:5D,-169.46002197265625,-51.30887985229492,11.747867584228516,3.6460537910461426,0.9373593330383301,-0.8662290573120117,2343.4155254364014
D4:22:CD:00:05:6B,-63.23098373413086,18.992599487304688,-77.86433410644531,2.285207748413086,-11.624650955200195,6.136836051940918,2343.4155254364014
D4:22:CD:00:49:AA,163.81494140625,-76.5465087890625,159.49758911132812,-1.1922731399536133,0.22110241651535034,-3.502617359161377,2343.4155254364014
D4:22:CD:00:05:6E,106.79102325439453,18.317153930664062,177.1758575439453,-6.519689559936523,-1.4907865524291992,-5.18046760559082,2343.4155254364014
D4:22:CD:00:05:5E,-169.59054565429688,-61.84626388549805,-39.17695617675781,0.6234359741210938,-1.5882320404052734,-3.315357208251953,2343.4155254364014
D4:22:CD:00:05:5D,-169.30099487304688,-54.8007926940918,8.143999099731445,3.3809566497802734,1.583094596862793,-1.251119613647461,2343.4455258846283
D4:22:CD:00:05:6B,-48.272682189941406,29.44488525390625,-79.35819244384766,-4.395286560058594,-13.182668685913086,1.3966665267944336,2343.4455258846283
D4:22:CD:00:49:AA,164.2079315185547,-77.44684600830078,158.61932373046875,-1.6532800197601318,-0.6734331846237183,-5.40831184387207,2343.4455258846283
D4:22:CD:00:05:6E,114.53121948242188,10.394795417785645,-174.26519775390625,-4.637518882751465,-1.2994487285614014,-5.430665016174316,2343.4455258846283
D4:22:CD:00:05:5E,-166.2921905517578,-70.78604888916016,-46.793312072753906,-5.579716682434082,-5.351311683654785,-0.8930110931396484,2343.4455258846283
