Device,EulerX,EulerY,EulerZ,FreeAccX,FreeAccY,FreeAccZ,Timestamp
D4:22:CD:00:05:5D,-20.99997329711914,-86.2717514038086,81.02002716064453,-0.07449641823768616,0.07281984388828278,0.09420394897460938,1339.4939732551575
D4:22:CD:00:05:6B,-9.910720825195312,-9.079218864440918,-51.58855438232422,0.3470422625541687,0.20821627974510193,-0.051201820373535156,1339.4939732551575
D4:22:CD:00:49:AA,-3.005338668823242,-56.22129821777344,31.482728958129883,0.14253687858581543,-0.2550162672996521,-0.2154064178466797,1339.4939732551575
D4:22:CD:00:05:6E,41.51093673706055,-3.584637403488159,49.88166427612305,0.17914345860481262,-0.004241381771862507,-0.015947341918945312,1339.4939732551575
D4:22:CD:00:05:5E,137.52099609375,-41.97624206542969,-32.62653732299805,0.9951317310333252,-0.8420535326004028,-1.9277048110961914,1339.4939732551575
D4:22:CD:00:05:6B,-9.512740135192871,-9.21214485168457,-51.78771209716797,0.3800168037414551,0.25621581077575684,-0.031388282775878906,1339.5019707679749
D4:22:CD:00:49:AA,-2.719541072845459,-56.32170104980469,31.12628173828125,0.0448925718665123,-0.4096394181251526,-0.020025253295898438,1339.5019707679749
D4:22:CD:00:05:6E,40.700645446777344,-3.7190001010894775,49.923805236816406,0.5107287168502808,-0.0366811528801918,-0.034473419189453125,1339.5019707679749
D4:22:CD:00:05:5E,138.20907592773438,-41.48093032836914,-31.976289749145508,1.02341628074646,-0.38637590408325195,0.6686315536499023,1339.5019707679749
D4:22:CD:00:05:6B,-9.494382858276367,-9.349644660949707,-51.99018478393555,0.04482750594615936,0.15199995040893555,0.10635852813720703,1339.5059735774994
D4:22:CD:00:49:AA,-2.669769287109375,-56.416629791259766,30.862735748291016,-0.08008915185928345,-0.09343506395816803,0.2656431198120117,1339.5059735774994
D4:22:CD:00:05:6E,40.94129180908203,-3.725233554840088,49.94297790527344,0.19699633121490479,0.08848161995410919,0.5151615142822266,1339.5059735774994
D4:22:CD:00:05:5E,138.42111206054688,-41.134246826171875,-31.698129653930664,0.7733675241470337,-0.6101094484329224,1.331390380859375,1339.5059735774994
D4:22:CD:00:05:5D,166.492919921875,-66.2491683959961,-89.61106872558594,-0.4742884635925293,3.0188522338867188,1.1627702713012695,1339.510394334793
D4:22:CD:00:49:AA,-2.7823092937469482,-56.50518035888672,30.643600463867188,0.1560395359992981,-0.08967210352420807,-0.3003368377685547,1339.510394334793
D4:22:CD:00:05:6E,41.091033935546875,-3.681640148162842,49.95979309082031,-0.07015065848827362,-0.09743756055831909,0.2412557601928711,1339.510394334793
D4:22:CD:00:05:5E,138.4744415283203,-40.96845245361328,-31.470762252807617,0.581814169883728,-0.9843477010726929,-0.43077754974365234,1339.510394334793
D4:22:CD:00:05:5D,177.97592163085938,-48.69353103637695,-93.08763122558594,-1.041348934173584,-2.5904812812805176,3.2403573989868164,1339.5133895874023
D4:22:CD:00:05:6B,-32.63320541381836,19.304677963256836,-28.794967651367188,1.2453269958496094,-12.06405258178711,11.317129135131836,1339.5133895874023
D4:22:CD:00:49:AA,-172.69432067871094,-75.99182891845703,89.32170867919922,-1.721834659576416,-1.8295366764068604,9.058996200561523,1339.5133895874023
D4:22:CD:00:05:6E,150.7526397705078,-62.17289733886719,-11.391408920288086,-4.76743221282959,-5.188608169555664,4.571389198303223,1339.5133895874023
D4:22:CD:00:05:5D,177.55975341796875,-54.197322845458984,-90.95347595214844,-1.6156485080718994,-3.6675190925598145,5.825898170471191,1339.5567781925201
D4:22:CD:00:05:6B,-23.172563552856445,19.799110412597656,-24.19242286682129,-0.9649076461791992,-7.864073753356934,2.8220062255859375,1339.5567781925201
D4:22:CD:00:49:AA,-158.26284790039062,-77.1707534790039,78.78364562988281,-1.830723762512207,-0.684515118598938,5.719514846801758,1339.5567781925201
D4:22:CD:00:05:6E,157.2224578857422,-64.33936309814453,-4.202736854553223,-10.416950225830078,-5.052783012390137,3.9238157272338867,1339.5567781925201
D4:22:CD:00:05:5E,-114.6415023803711,-36.26487350463867,-80.80645751953125,0.4979115128517151,1.9883441925048828,2.6778135299682617,1339.5567781925201
D4:22:CD:00:05:5D,175.43539428710938,-61.405738830566406,-86.62690734863281,1.884385347366333,-6.216813087463379,8.858907699584961,1339.5871946811676
D4:22:CD:00:05:6B,-15.546451568603516,24.1774845123291,-26.08159065246582,2.562650203704834,0.6983215808868408,-6.213253974914551,1339.5871946811676
D4:22:CD:00:49:AA,-137.4525146484375,-77.24494934082031,62.539466857910156,1.3928027153015137,1.4541332721710205,-0.567591667175293,1339.5871946811676
D4:22:CD:00:05:6E,166.8494873046875,-63.461185455322266,-6.079928874969482,-10.293216705322266,-8.280601501464844,-0.7516412734985352,1339.5871946811676
D4:22:CD:00:05:5E,-111.24995422363281,-34.18641662597656,-86.4746322631836,-1.3655881881713867,1.6247084140777588,1.6099357604980469,1339.5871946811676
D4:22:CD:00:05:5D,166.4730987548828,-69.21324157714844,-83.2055892944336,-0.9198751449584961,-2.70721435546875,0.7159900665283203,1339.6172151565552
D4:22:CD:00:05:6B,-11.550920486450195,29.653894424438477,-34.725406646728516,1.8635056018829346,-0.38399964570999146,-10.199926376342773,1339.6172151565552
D4:22:CD:00:49:AA,-124.53007507324219,-76.77655029296875,53.916629791259766,2.1507034301757812,-1.3592596054077148,-5.339935302734375,1339.6172151565552
D4:22:CD:00:05:6E,173.2796173095703,-60.805397033691406,-11.097597122192383,-0.5825132131576538,-7.823307991027832,-5.521862983703613,1339.6172151565552
D4:22:CD:00:05:5E,-109.23722076416016,-30.77855110168457,-95.57229614257812,-6.539624214172363,4.712642669677734,-3.7775464057922363,1339.6172151565552
D4:22:CD:00:05:5D,161.99737548828125,-71.75318145751953,-73.2551040649414,15.702550888061523,4.157109260559082,-9.020265579223633,1339.6572575569153
D4:22:CD:00:05:6B,-14.329496383666992,34.46435546875,-48.824607849121094,2.489288330078125,0.7833642959594727,-14.727569580078125,1339.6572575569153
D4:22:CD:00:49:AA,-119.72877502441406,-76.66204071044922,51.692935943603516,2.8838343620300293,1.3788931369781494,-8.220932006835938,1339.6572575569153
D4:22:CD:00:05:6E,179.07235717773438,-60.04805374145508,-14.795696258544922,1.7765977382659912,-6.763704299926758,-6.58225154876709,1339.6572575569153
D4:22:CD:00:05:5E,-112.8181381225586,-27.530200958251953,-101.71416473388672,-6.869026184082031,4.4937639236450195,-2.771328926086426,1339.6572575569153
D4:22:CD:00:05:5D,167.70062255859375,-72.10970306396484,-64.72136688232422,5.475542068481445,-1.5764696598052979,-5.995436668395996,1339.6768572330475
D4:22:CD:00:05:6B,-25.282398223876953,36.251163482666016,-66.88475799560547,-2.1425180435180664,-5.919835090637207,-17.25464630126953,1339.6768572330475
D4:22:CD:00:49:AA,-114.6175537109375,-77.27729034423828,48.69163513183594,-0.16380155086517334,3.5221261978149414,-13.03619384765625,1339.6768572330475
D4:22:CD:00:05:6E,-177.2041015625,-60.37409210205078,-14.456746101379395,-1.123354196548462,-5.653567314147949,-5.753652572631836,1339.6768572330475
D4:22:CD:00:05:5E,-115.78431701660156,-26.084049224853516,-107.19828796386719,-8.47385025024414,-1.0436110496520996,-6.84483528137207,1339.6768572330475
D4:22:CD:00:05:5D,175.91207885742188,-74.3774185180664,-61.82130813598633,7.4061784744262695,1.4992942810058594,-12.537820816040039,1339.7074213027954
D4:22:CD:00:05:6B,-38.669620513916016,33.28499984741211,-88.20586395263672,-5.641369819641113,-15.226522445678711,-20.68667221069336,1339.7074213027954
D4:22:CD:00:49:AA,-104.06510162353516,-78.95336151123047,40.30473327636719,0.28974664211273193,0.5911513566970825,-11.539339065551758,1339.7074213027954
D4:22:CD:00:05:6E,178.46206665039062,-59.92656326293945,-6.963186740875244,0.1929376721382141,-5.213332176208496,-8.454160690307617,1339.7074213027954
D4:22:CD:00:05:5E,-121.36836242675781,-27.539031982421875,-112.34796905517578,-13.583433151245117,-0.10881862044334412,-9.40733528137207,1339.7074213027954
D4:22:CD:00:05:5D,176.17080688476562,-73.7845230102539,-62.59600067138672,-15.633840560913086,1.293999195098877,4.165261268615723,1339.7376925945282
D4:22:CD:00:05:6B,-47.978553771972656,23.30377769470215,-106.83792114257812,-19.993022918701172,-22.56344985961914,-15.180608749389648,1339.7376925945282
D4:22:CD:00:49:AA,-93.42971801757812,-80.43980407714844,31.037134170532227,-1.638343095779419,0.905598521232605,-6.471303939819336,1339.7376925945282
D4:22:CD:00:05:6E,171.240234375,-58.87216567993164,3.353207588195801,2.600461006164551,-3.79893159866333,-7.617435455322266,1339.7376925945282
D4:22:CD:00:05:5E,-131.111572265625,-30.08775520324707,-114.93095397949219,-12.02918815612793,0.5288758277893066,-6.574018478393555,1339.7376925945282
D4:22:CD:00:05:5D,173.7944793701172,-72.65377807617188,-62.876277923583984,-3.3699984550476074,-4.980140686035156,-4.394822120666504,1339.7671761512756
D4:22:CD:00:05:6B,-51.762908935546875,18.812732696533203,-111.08683013916016,1.0138216018676758,10.684247970581055,-18.798080444335938,1339.7671761512756
D4:22:CD:00:49:AA,-81.21449279785156,-80.3398666381836,20.841856002807617,-2.4841856956481934,-0.6399606466293335,-2.1394710540771484,1339.7671761512756
D4:22:CD:00:05:6E,166.89633178710938,-57.99528121948242,11.795044898986816,3.70206356048584,-1.5407955646514893,-5.585597991943359,1339.7671761512756
D4:22:CD:00:05:5E,-139.51475524902344,-33.16664505004883,-115.07293701171875,-13.683643341064453,1.6467409133911133,-2.357267379760742,1339.7671761512756
D4:22:CD:00:05:5D,171.01402282714844,-72.20512390136719,-59.52294921875,1.1963672637939453,-4.9279069900512695,0.9578275680541992,1339.8274652957916
D4:22:CD:00:05:6B,-68.475830078125,22.24488067626953,-105.47868347167969,-7.867140769958496,7.5252180099487305,4.674132347106934,1339.8274652957916
D4:22:CD:00:49:AA,-73.15213775634766,-80.32579803466797,14.074936866760254,-1.3087048530578613,0.13061940670013428,-3.388857841491699,1339.8274652957916
D4:22:CD:00:05:6E,166.51559448242188,-57.163700103759766,17.324604034423828,4.692548751831055,-2.6912050247192383,-2.7081847190856934,1339.8274652957916
D4:22:CD:00:05:5E,-147.9999542236328,-35.362274169921875,-111.78587341308594,-19.33502197265625,1.4366438388824463,-7.455075263977051,1339.8274652957916
D4:22:CD:00:05:5D,167.39675903320312,-71.3637466430664,-53.604469299316406,7.209444999694824,-1.014089822769165,0.20653152465820312,1339.8575432300568
D4:22:CD:00:05:6B,-64.23230743408203,28.700807571411133,-93.3453140258789,-5.692887306213379,-14.260486602783203,-9.650667190551758,1339.8575432300568
D4:22:CD:00:49:AA,-70.22843933105469,-81.40995788574219,10.915369033813477,2.801485538482666,-2.243720531463623,-1.1791439056396484,1339.8575432300568
D4:22:CD:00:05:6E,165.97560119628906,-55.871891021728516,19.91356086730957,9.145391464233398,-5.015008926391602,0.29315185546875,1339.8575432300568
D4:22:CD:00:05:5E,-159.8301239013672,-34.22946548461914,-105.08348846435547,-13.450029373168945,13.02664566040039,10.185482025146484,1339.8575432300568
D4:22:CD:00:05:5D,162.64459228515625,-69.9360580444336,-47.67808151245117,4.024273872375488,0.30928581953048706,2.2160778045654297,1339.8880639076233
D4:22:CD:00:05:6B,-52.52861785888672,35.01260757446289,-73.78422546386719,-5.720820426940918,-14.281919479370117,-23.87103271484375,1339.8880639076233
D4:22:CD:00:49:AA,-68.45767211914062,-81.90412902832031,8.623024940490723,-0.2058071494102478,-4.163556098937988,4.193437576293945,1339.8880639076233
D4:22:CD:00:05:6E,161.04478454589844,-54.42151641845703,21.092933654785156,11.344903945922852,-2.7249808311462402,0.9988956451416016,1339.8880639076233
D4:22:CD:00:05:5E,-164.96168518066406,-31.8631534576416,-98.97406005859375,-4.011274337768555,-14.871585845947266,-12.338254928588867,1339.8880639076233
D4:22:CD:00:05:5D,155.63412475585938,-68.26333618164062,-41.14700698852539,-0.44020742177963257,-2.8232884407043457,3.53810977935791,1339.9180688858032
D4:22:CD:00:05:6B,-45.62569808959961,35.60772705078125,-51.835330963134766,-8.86369514465332,-8.60565185546875,-7.983953475952148,1339.9180688858032
D4:22:CD:00:49:AA,-71.19532775878906,-81.91959381103516,10.293913841247559,-0.17278513312339783,-3.487694263458252,2.690052032470703,1339.9180688858032
D4:22:CD:00:05:6E,153.2123260498047,-52.65093231201172,22.136571884155273,10.622879028320312,1.7775568962097168,0.9839754104614258,1339.9180688858032
D4:22:CD:00:05:5E,-166.12367248535156,-31.963666915893555,-92.6426773071289,-1.5862696170806885,-20.275737762451172,-6.1000871658325195,1339.9180688858032
D4:22:CD:00:05:5D,145.13546752929688,-66.6147689819336,-34.46327209472656,3.956602096557617,-5.321752548217773,3.2596845626831055,1339.9480605125427
D4:22:CD:00:05:6B,-36.585906982421875,29.25074577331543,-33.54330062866211,-9.196098327636719,6.933297157287598,-4.389074325561523,1339.9480605125427
D4:22:CD:00:49:AA,-78.92852020263672,-81.80921173095703,16.674468994140625,4.051902770996094,-2.1070799827575684,1.6826448440551758,1339.9480605125427
D4:22:CD:00:05:6E,144.63426208496094,-50.09782409667969,22.638776779174805,13.74908447265625,7.166823387145996,-1.545511245727539,1339.9480605125427
D4:22:CD:00:05:5E,-174.3334197998047,-29.928560256958008,-88.70135498046875,1.0498778820037842,-17.50235366821289,0.6368274688720703,1339.9480605125427
D4:22:CD:00:05:5D,134.21932983398438,-63.986907958984375,-31.92681884765625,11.616003036499023,2.301811695098877,11.352888107299805,1339.9773435592651
D4:22:CD:00:05:6B,-38.85601043701172,20.03472137451172,-17.869123458862305,-8.840822219848633,23.208770751953125,-9.258550643920898,1339.9773435592651
D4:22:CD:00:49:AA,-95.51531219482422,-81.0410385131836,29.801342010498047,8.498449325561523,1.635059118270874,-1.1248197555541992,1339.9773435592651
D4:22:CD:00:05:6E,138.6539764404297,-49.85959243774414,20.977521896362305,15.431989669799805,13.537166595458984,-12.035587310791016,1339.9773435592651
D4:22:CD:00:05:5E,177.42971801757812,-29.126453399658203,-84.48404693603516,2.132188320159912,-6.017223358154297,-0.4996013641357422,1339.9773435592651
D4:22:CD:00:05:5D,127.39140319824219,-60.647552490234375,-40.91579055786133,14.480850219726562,30.435867309570312,5.02579402923584,1340.0073826313019
D4:22:CD:00:05:6B,-52.450843811035156,11.35033893585205,-3.325565814971924,3.184260845184326,17.634464263916016,7.794275283813477,1340.0073826313019
D4:22:CD:00:49:AA,-113.20355987548828,-78.66971588134766,42.20293426513672,11.463022232055664,-1.404540777206421,0.30510807037353516,1340.0073826313019
D4:22:CD:00:05:6E,139.151123046875,-53.69696044921875,18.816360473632812,9.220243453979492,10.302946090698242,-5.351126670837402,1340.0073826313019
D4:22:CD:00:05:5E,174.58241271972656,-30.083824157714844,-81.43547058105469,-1.6509039402008057,-7.252671241760254,-0.11859130859375,1340.0073826313019
D4:22:CD:00:05:5D,133.9128875732422,-53.481788635253906,-58.85517501831055,16.64642333984375,22.242839813232422,8.271970748901367,1340.0374269485474
D4:22:CD:00:05:6B,-69.177734375,3.471039295196533,7.287238121032715,0.9490566253662109,12.392887115478516,-7.347905158996582,1340.0374269485474
D4:22:CD:00:49:AA,-120.32804870605469,-76.89155578613281,45.95914077758789,1.9032256603240967,2.3483457565307617,5.686467170715332,1340.0374269485474
D4:22:CD:00:05:6E,144.7431640625,-58.37581253051758,18.252235412597656,1.0212478637695312,4.515877723693848,6.791952133178711,1340.0374269485474
D4:22:CD:00:05:5E,171.78228759765625,-30.6900691986084,-80.07054138183594,1.017209529876709,-7.200626373291016,-0.7683019638061523,1340.0374269485474
D4:22:CD:00:05:5D,145.94508361816406,-42.000213623046875,-75.69481658935547,7.650995254516602,5.496102333068848,4.446660041809082,1340.0684459209442
D4:22:CD:00:05:6B,-88.22787475585938,-4.203609943389893,16.25899314880371,3.460681915283203,2.001925468444824,8.886154174804688,1340.0684459209442
D4:22:CD:00:49:AA,-124.06153869628906,-76.61107635498047,49.26189422607422,0.6520614624023438,3.774048328399658,4.698056221008301,1340.0684459209442
D4:22:CD:00:05:6E,149.1615753173828,-61.83797073364258,18.949249267578125,2.753904342651367,4.460113525390625,1.4050054550170898,1340.0684459209442
D4:22:CD:00:05:5E,169.85984802246094,-31.687868118286133,-78.77130126953125,2.177480697631836,-7.402022361755371,-2.40962553024292,1340.0684459209442
D4:22:CD:00:05:5D,156.15545654296875,-29.22726821899414,-88.90074157714844,-4.928034782409668,-5.310331344604492,-7.700717926025391,1340.1278975009918
D4:22:CD:00:05:6B,-94.1827392578125,-11.594701766967773,22.983016967773438,-1.0960338115692139,3.5709075927734375,6.928842544555664,1340.1278975009918
D4:22:CD:00:49:AA,-127.04934692382812,-76.13949584960938,52.651939392089844,5.652222633361816,1.4616355895996094,0.26313304901123047,1340.1278975009918
D4:22:CD:00:05:6E,153.3162384033203,-63.60310363769531,21.21101951599121,0.22534716129302979,0.994070291519165,-0.8713350296020508,1340.1278975009918
D4:22:CD:00:05:5E,169.64212036132812,-32.597713470458984,-77.31288146972656,-0.6929688453674316,-7.535440444946289,-4.266631126403809,1340.1278975009918
D4:22:CD:00:05:5D,167.2265625,-17.870807647705078,-98.05818176269531,-13.057395935058594,-8.621740341186523,-14.914142608642578,1340.157223701477
D4:22:CD:00:05:6B,-92.4175033569336,-17.89678382873535,27.38993263244629,-1.3391766548156738,-0.2860265374183655,1.2581596374511719,1340.157223701477
D4:22:CD:00:49:AA,-128.40293884277344,-76.4166488647461,54.69818115234375,1.4951138496398926,0.20541444420814514,-2.827928066253662,1340.157223701477
D4:22:CD:00:05:6E,156.0972137451172,-63.28740692138672,25.711551666259766,-1.4266607761383057,-0.3414161205291748,-3.50547456741333,1340.157223701477
D4:22:CD:00:05:5E,170.0637969970703,-32.510337829589844,-76.26900482177734,0.6438754796981812,-6.8770647048950195,-5.016491889953613,1340.157223701477
D4:22:CD:00:05:5D,175.21922302246094,-12.434187889099121,-104.6004638671875,-9.258607864379883,-6.526741981506348,-14.38555908203125,1340.187421321869
D4:22:CD:00:05:6B,-89.5562973022461,-22.59758186340332,30.566736221313477,0.06899403035640717,-0.4291791319847107,0.04360008239746094,1340.187421321869
D4:22:CD:00:49:AA,-128.4422149658203,-77.00545501708984,55.63954544067383,-0.6911499500274658,1.0719170570373535,-6.118441581726074,1340.187421321869
D4:22:CD:00:05:6E,158.332763671875,-61.6141471862793,31.961753845214844,-1.0761423110961914,-1.8728289604187012,-4.551082611083984,1340.187421321869
D4:22:CD:00:05:5E,171.6810302734375,-30.86311149597168,-76.39351654052734,-1.3818840980529785,-6.570215225219727,-4.4555463790893555,1340.187421321869
D4:22:CD:00:05:5D,176.0323028564453,-12.543634414672852,-110.91127014160156,-12.389986038208008,-6.1677961349487305,-14.163122177124023,1340.217384338379
D4:22:CD:00:05:6B,-84.86471557617188,-27.13947105407715,33.661582946777344,2.8985419273376465,-1.5086767673492432,-1.7106475830078125,1340.217384338379
D4:22:CD:00:49:AA,-128.69068908691406,-77.00530242919922,57.194488525390625,0.8450508117675781,-0.4753064513206482,-7.038140296936035,1340.217384338379
D4:22:CD:00:05:6E,159.13571166992188,-59.399757385253906,38.2496337890625,0.4938030242919922,-2.9373397827148438,-3.9676127433776855,1340.217384338379
D4:22:CD:00:05:5E,173.64051818847656,-27.95631980895996,-77.54129028320312,-0.4234486222267151,-2.499734878540039,-4.097922325134277,1340.217384338379
D4:22:CD:00:05:5D,171.05990600585938,-17.379262924194336,-115.45694732666016,-14.755233764648438,-9.884449005126953,-16.059425354003906,1340.24738407135
D4:22:CD:00:05:6B,-78.5492172241211,-32.503170013427734,37.20878601074219,5.538106918334961,0.25870370864868164,-4.693324089050293,1340.24738407135
D4:22:CD:00:49:AA,-132.4967498779297,-76.70674133300781,62.096092224121094,3.3507766723632812,-0.09196904301643372,-5.379276275634766,1340.24738407135
D4:22:CD:00:05:6E,158.0697021484375,-56.67414093017578,43.75067138671875,2.3940038681030273,-3.331056594848633,-3.882720470428467,1340.24738407135
D4:22:CD:00:05:5E,174.15802001953125,-24.95560646057129,-79.13599395751953,-3.485651969909668,-10.335502624511719,-2.7081360816955566,1340.24738407135
D4:22:CD:00:05:5D,167.541748046875,-22.915708541870117,-116.65192413330078,-10.72476577758789,1.26737380027771,32.851104736328125,1340.2771689891815
D4:22:CD:00:05:6B,-74.11841583251953,-39.76823043823242,41.10575866699219,10.079914093017578,4.869625091552734,-2.269634246826172,1340.2771689891815
D4:22:CD:00:49:AA,-135.36119079589844,-76.62745666503906,64.00010681152344,5.22457218170166,0.8956260681152344,-3.134777069091797,1340.2771689891815
D4:22:CD:00:05:6E,156.20823669433594,-53.3040885925293,47.90592956542969,5.086889266967773,-2.82997989654541,-3.083852767944336,1340.2771689891815
D4:22:CD:00:05:5E,173.98170471191406,-21.860994338989258,-81.37139129638672,0.42753201723098755,-5.067356109619141,-2.4579062461853027,1340.2771689891815
D4:22:CD:00:05:5D,173.2442169189453,-23.051721572875977,-113.2880630493164,-7.451238632202148,-18.09505844116211,-10.10354232788086,1340.30757188797
D4:22:CD:00:05:6B,-71.5084457397461,-48.90388107299805,44.317298889160156,17.452964782714844,19.994998931884766,12.631147384643555,1340.30757188797
D4:22:CD:00:49:AA,-135.91676330566406,-76.46748352050781,62.56447219848633,0.32371312379837036,-2.347064971923828,0.6697998046875,1340.30757188797
D4:22:CD:00:05:6E,153.43946838378906,-48.88193130493164,52.180973052978516,9.49810791015625,-5.697032928466797,3.579085350036621,1340.30757188797
D4:22:CD:00:05:5E,173.9225311279297,-18.817508697509766,-83.03356170654297,1.5358695983886719,-8.33633041381836,-1.5420913696289062,1340.30757188797
D4:22:CD:00:05:5D,-178.75210571289062,-22.360502243041992,-109.07474517822266,-4.331262588500977,-18.636890411376953,6.06650447845459,1340.3375742435455
D4:22:CD:00:05:6B,-78.22306060791016,-51.18836212158203,45.41739273071289,16.85666275024414,20.844318389892578,9.419897079467773,1340.3375742435455
D4:22:CD:00:49:AA,-136.75216674804688,-76.58599853515625,63.3149528503418,-2.175950050354004,0.3215904235839844,3.8724536895751953,1340.3375742435455
D4:22:CD:00:05:6E,145.78416442871094,-40.895347595214844,56.75601577758789,12.63949966430664,-2.266695499420166,23.47629165649414,1340.3375742435455
D4:22:CD:00:05:5E,174.33639526367188,-16.757551193237305,-83.0782470703125,0.8310319185256958,-7.191173553466797,-1.5944509506225586,1340.3375742435455
D4:22:CD:00:05:5D,178.93235778808594,-19.47517204284668,-106.6327133178711,-11.751209259033203,-22.17995834350586,10.148553848266602,1340.36767911911
D4:22:CD:00:05:6B,-95.84904479980469,-41.657562255859375,44.78746032714844,21.186695098876953,14.740737915039062,12.109676361083984,1340.36767911911
D4:22:CD:00:49:AA,-142.2737579345703,-76.24896240234375,69.22016906738281,2.0979485511779785,-0.3297070860862732,7.443233489990234,1340.36767911911
D4:22:CD:00:05:6E,127.49588012695312,-25.91645050048828,60.814693450927734,25.763507843017578,3.1273369789123535,25.492103576660156,1340.36767911911
D4:22:CD:00:05:5E,173.9202880859375,-15.031822204589844,-82.24728393554688,0.2380940318107605,-6.396919250488281,-1.2639141082763672,1340.36767911911
D4:22:CD:00:05:5D,172.18527221679688,-14.724052429199219,-104.82821655273438,-3.995123863220215,-14.497346878051758,11.111244201660156,1340.4276587963104
D4:22:CD:00:05:6B,-97.43392181396484,-30.388038635253906,39.25048828125,15.192808151245117,9.60453987121582,20.778114318847656,1340.4276587963104
D4:22:CD:00:49:AA,-145.70086669921875,-75.4015121459961,73.82752227783203,0.12312926352024078,-0.46611034870147705,5.4964447021484375,1340.4276587963104
D4:22:CD:00:05:6E,107.29544830322266,-4.9325852394104,62.744537353515625,21.083904266357422,8.632360458374023,21.203052520751953,1340.4276587963104
D4:22:CD:00:05:5E,172.96849060058594,-14.254011154174805,-81.44717407226562,0.15415820479393005,-7.234430313110352,-0.8904867172241211,1340.4276587963104
D4:22:CD:00:05:5D,167.50245666503906,-9.946972846984863,-104.29867553710938,-11.232166290283203,-11.080184936523438,7.579916000366211,1340.45765542984
D4:22:CD:00:05:6B,-96.64515686035156,-24.043413162231445,33.42632293701172,6.094477653503418,1.101874828338623,1.1823530197143555,1340.45765542984
D4:22:CD:00:49:AA,-148.4703369140625,-76.32333374023438,77.84982299804688,2.949359893798828,2.6908254623413086,6.972599029541016,1340.45765542984
D4:22:CD:00:05:6E,87.98148345947266,18.599197387695312,63.589752197265625,23.40365982055664,14.871175765991211,5.598123550415039,1340.45765542984
D4:22:CD:00:05:5E,171.8846893310547,-15.09756088256836,-80.72748565673828,1.1143028736114502,-7.126889228820801,-0.1303234100341797,1340.45765542984
D4:22:CD:00:05:5D,166.41796875,-6.947922706604004,-103.61878967285156,-5.132662773132324,-1.3937458992004395,1.164876937866211,1340.4870047569275
D4:22:CD:00:05:6B,-107.2518539428711,-23.53953742980957,29.342876434326172,-7.552847862243652,0.6497633457183838,4.218070983886719,1340.4870047569275
D4:22:CD:00:49:AA,-153.76513671875,-77.38420104980469,82.99627685546875,9.225175857543945,3.2467546463012695,8.429105758666992,1340.4870047569275
D4:22:CD:00:05:6E,70.5353775024414,42.280494689941406,62.91023635864258,13.545766830444336,13.34970474243164,-8.208030700683594,1340.4870047569275
D4:22:CD:00:05:5E,170.36671447753906,-17.641279220581055,-79.50820922851562,1.1021544933319092,-7.529669761657715,0.8256282806396484,1340.4870047569275
D4:22:CD:00:05:5D,167.5520477294922,-7.616436958312988,-103.45341491699219,-1.2128875255584717,4.028288841247559,-4.807832717895508,1340.5171744823456
D4:22:CD:00:05:6B,-114.37720489501953,-28.193281173706055,26.640172958374023,-14.710197448730469,6.352541923522949,4.137722969055176,1340.5171744823456
D4:22:CD:00:49:AA,-160.27935791015625,-77.79422760009766,87.7654037475586,10.135047912597656,2.9690027236938477,9.148500442504883,1340.5171744823456
D4:22:CD:00:05:6E,52.812355041503906,61.415157318115234,58.57388687133789,7.55325984954834,6.662051200866699,-8.239826202392578,1340.5171744823456
D4:22:CD:00:05:5E,167.84371948242188,-22.437288284301758,-77.73556518554688,0.6344767808914185,-8.31509017944336,2.4867639541625977,1340.5171744823456
D4:22:CD:00:05:5D,166.96597290039062,-12.849563598632812,-104.26520538330078,-2.790408134460449,4.095202445983887,-10.151676177978516,1340.547369480133
D4:22:CD:00:05:6B,-117.2883071899414,-35.57129669189453,25.15736198425293,-12.86507797241211,5.749790191650391,-3.4284119606018066,1340.547369480133
D4:22:CD:00:49:AA,-165.97036743164062,-78.71968078613281,90.02713012695312,3.762693405151367,2.269988536834717,6.314655303955078,1340.547369480133
D4:22:CD:00:05:6E,29.84409523010254,73.49250793457031,49.301944732666016,-3.938171863555908,2.718005657196045,-6.619436264038086,1340.547369480133
D4:22:CD:00:05:5E,166.1481170654297,-31.387882232666016,-73.94499206542969,3.103699207305908,-22.658809661865234,2.344461441040039,1340.547369480133
D4:22:CD:00:05:5D,163.1851806640625,-22.5637149810791,-105.33484649658203,-2.7908124923706055,0.9399349689483643,-15.33858871459961,1340.577056646347
D4:22:CD:00:05:6B,-120.62462615966797,-43.86553955078125,24.86469268798828,-8.569965362548828,4.996169090270996,-6.755410194396973,1340.577056646347
D4:22:CD:00:49:AA,-169.6846160888672,-78.78446197509766,90.54814147949219,0.7201502323150635,1.3545050621032715,-1.596527099609375,1340.577056646347
D4:22:CD:00:05:6E,-1.0591769218444824,78.97700500488281,27.6181583404541,4.422732353210449,-1.2237331867218018,-4.1774444580078125,1340.577056646347
D4:22:CD:00:05:5E,171.13211059570312,-39.40895080566406,-69.88727569580078,6.713037490844727,-4.791111946105957,-1.3737897872924805,1340.577056646347
D4:22:CD:00:05:5D,158.5068359375,-35.2386360168457,-106.02144622802734,-5.98246955871582,-2.5499229431152344,-15.138349533081055,1340.6073062419891
D4:22:CD:00:05:6B,-125.24400329589844,-52.22166442871094,26.26175880432129,-2.911896228790283,2.2306008338928223,-9.91739273071289,1340.6073062419891
D4:22:CD:00:49:AA,-171.70408630371094,-77.9352035522461,90.51860809326172,1.6839349269866943,-1.1008501052856445,-6.259343147277832,1340.6073062419891
D4:22:CD:00:05:6E,-28.655282974243164,80.34628295898438,9.349602699279785,-1.5711476802825928,0.9073278903961182,-3.9745564460754395,1340.6073062419891
D4:22:CD:00:05:5E,174.4674072265625,-40.683876037597656,-70.57837677001953,1.0299906730651855,12.02250862121582,7.09351921081543,1340.6073062419891
D4:22:CD:00:05:5D,154.29074096679688,-49.965240478515625,-105.60614776611328,-4.716588020324707,-5.952849388122559,-11.219324111938477,1340.637310743332
D4:22:CD:00:05:6B,-132.4569549560547,-57.94448471069336,25.131103515625,-7.93565559387207,13.065933227539062,-3.1314849853515625,1340.637310743332
D4:22:CD:00:49:AA,-173.529541015625,-77.08634948730469,90.67777252197266,0.642814040184021,-1.795837163925171,-8.181709289550781,1340.637310743332
D4:22:CD:00:05:6E,-36.76804733276367,81.18753814697266,8.111809730529785,2.772645950317383,1.2055771350860596,-5.182770729064941,1340.637310743332
D4:22:CD:00:05:5E,172.6138916015625,-35.606903076171875,-76.77822875976562,1.6384494304656982,-3.0630369186401367,-9.223823547363281,1340.637310743332
D4:22:CD:00:05:5D,151.99574279785156,-66.0797348022461,-102.18670654296875,-1.2444989681243896,-3.6185803413391113,1.0600309371948242,1340.6971921920776
D4:22:CD:00:05:6B,-132.9544677734375,-61.230255126953125,17.661195755004883,-3.5478830337524414,4.416759490966797,-9.108283996582031,1340.6971921920776
D4:22:CD:00:49:AA,-176.5325164794922,-77.06118774414062,91.602294921875,-0.1564302146434784,2.1784982681274414,-10.829833984375,1340.6971921920776
D4:22:CD:00:05:6E,-21.698747634887695,83.26542663574219,25.133502960205078,1.6344788074493408,3.3375935554504395,-7.347545623779297,1340.6971921920776
D4:22:CD:00:05:5E,165.12744140625,-33.111122131347656,-81.28650665283203,-2.0615439414978027,-3.2948789596557617,-18.738906860351562,1340.6971921920776
D4:22:CD:00:05:5D,135.81883239746094,-82.5103530883789,-81.27713012695312,4.944391250610352,4.6788530349731445,10.565805435180664,1340.7273700237274
D4:22:CD:00:05:6B,-129.4262237548828,-62.56742858886719,9.7183198928833,-1.6580314636230469,2.780427932739258,-10.10850715637207,1340.7273700237274
D4:22:CD:00:49:AA,177.82611083984375,-77.73616790771484,93.54290771484375,2.743210792541504,2.880497455596924,-8.316957473754883,1340.7273700237274
D4:22:CD:00:05:6E,36.885677337646484,83.21823120117188,83.031494140625,0.33857446908950806,1.0504224300384521,-10.185823440551758,1340.7273700237274
D4:22:CD:00:05:5E,159.65774536132812,-33.9736328125,-82.3412094116211,6.661408424377441,6.98837947845459,14.628900527954102,1340.7273700237274
D4:22:CD:00:05:5D,24.804914474487305,-80.80802917480469,38.97975158691406,8.25352668762207,18.206558227539062,13.578094482421875,1340.7575125694275
D4:22:CD:00:05:6B,-123.11824798583984,-63.42328643798828,3.4095942974090576,3.785322666168213,1.0601658821105957,-10.90919303894043,1340.7575125694275
D4:22:CD:00:49:AA,168.0364990234375,-79.64042663574219,98.74236297607422,1.9857587814331055,-0.2607611417770386,-8.163080215454102,1340.7575125694275
D4:22:CD:00:05:6E,73.98892211914062,75.60425567626953,118.4673080444336,-1.8435051441192627,3.079409122467041,-14.092388153076172,1340.7575125694275
D4:22:CD:00:05:5E,159.13673400878906,-33.687843322753906,-82.64250946044922,-3.0414390563964844,-3.720902442932129,-6.909934043884277,1340.7575125694275
D4:22:CD:00:05:5D,21.855649948120117,-73.52935791015625,42.28561782836914,-1.758434534072876,26.5269775390625,-18.426620483398438,1340.811537027359
D4:22:CD:00:05:6B,-117.3894271850586,-64.77389526367188,-2.5558016300201416,-0.29608607292175293,3.7384157180786133,-8.84538459777832,1340.811537027359
D4:22:CD:00:49:AA,157.23794555664062,-81.53189086914062,106.49893951416016,-2.420440196990967,-2.36745023727417,-6.578061103820801,1340.811537027359
D4:22:CD:00:05:6E,88.9212875366211,63.96460723876953,131.29661560058594,-5.091137886047363,5.103389739990234,-19.828861236572266,1340.811537027359
D4:22:CD:00:05:5E,158.02340698242188,-32.091400146484375,-84.53543090820312,-0.7157094478607178,-6.867256164550781,-4.180426597595215,1340.811537027359
D4:22:CD:00:05:5D,23.903169631958008,-74.16289520263672,32.42831802368164,14.622255325317383,5.473222732543945,-7.105291366577148,1340.8191666603088
D4:22:CD:00:05:6B,-115.74549102783203,-65.90796661376953,-4.8861494064331055,0.3370792865753174,2.472470283508301,-5.738286018371582,1340.8191666603088
D4:22:CD:00:49:AA,161.83908081054688,-82.21278381347656,100.27030181884766,0.0009728401200845838,-2.6047754287719727,-1.9572052955627441,1340.8191666603088
D4:22:CD:00:05:6E,99.86862182617188,51.64958190917969,139.3800048828125,-10.075822830200195,8.634679794311523,-22.582534790039062,1340.8191666603088
D4:22:CD:00:05:5E,155.32875061035156,-29.763751983642578,-88.12594604492188,1.193796157836914,-10.3861083984375,-4.275205612182617,1340.8191666603088
D4:22:CD:00:05:5D,56.56834411621094,-76.7340087890625,4.325440883636475,10.173358917236328,9.394309997558594,-5.69222354888916,1340.8475513458252
D4:22:CD:00:05:6B,-116.2454605102539,-66.96446990966797,-3.359726667404175,-1.9001352787017822,7.030814170837402,-1.9069809913635254,1340.8475513458252
D4:22:CD:00:49:AA,170.4906005859375,-82.07026672363281,91.2867431640625,2.307028293609619,0.41049182415008545,3.3678579330444336,1340.8475513458252
D4:22:CD:00:05:6E,120.93587493896484,44.51560974121094,144.81178283691406,-3.4021501541137695,-9.57244873046875,-5.5893707275390625,1340.8475513458252
D4:22:CD:00:05:5E,155.73504638671875,-28.05401039123535,-91.6065902709961,-6.529751777648926,-9.953449249267578,0.41472339630126953,1340.8475513458252
D4:22:CD:00:05:5D,82.24256134033203,-77.42626190185547,-19.71682357788086,1.3044841289520264,-11.132139205932617,2.590670585632324,1340.8770701885223
D4:22:CD:00:05:6B,-119.82329559326172,-67.12934875488281,2.4148945808410645,-1.2582125663757324,6.125394821166992,1.5285921096801758,1340.8770701885223
D4:22:CD:00:49:AA,173.54344177246094,-81.86441040039062,88.72998046875,3.9806089401245117,1.7497332096099854,1.2215824127197266,1340.8770701885223
D4:22:CD:00:05:6E,142.81784057617188,50.004798889160156,147.15618896484375,-3.8133044242858887,1.5238935947418213,4.859346389770508,1340.8770701885223
D4:22:CD:00:05:5E,156.76092529296875,-27.817764282226562,-94.62459564208984,1.7242298126220703,-12.45501708984375,0.8872756958007812,1340.8770701885223
D4:22:CD:00:05:5D,96.15701293945312,-79.0873794555664,-38.26203918457031,13.142154693603516,-10.264118194580078,3.4669675827026367,1340.9073705673218
D4:22:CD:00:05:6B,-123.7248764038086,-66.20792388916016,8.808372497558594,0.1622171401977539,15.434682846069336,5.741238594055176,1340.9073705673218
D4:22:CD:00:49:AA,-179.2981414794922,-81.11974334716797,81.97727966308594,4.206697463989258,2.6600661277770996,5.386386871337891,1340.9073705673218
D4:22:CD:00:05:6E,166.97894287109375,65.97193145751953,156.64422607421875,-14.080327987670898,25.789348602294922,-0.609492301940918,1340.9073705673218
D4:22:CD:00:05:5E,157.9356689453125,-29.48455047607422,-96.85945129394531,0.33154749870300293,-13.575767517089844,0.14043807983398438,1340.9073705673218
D4:22:CD:00:05:5D,122.3769760131836,-80.37240600585938,-63.23704147338867,4.2996110916137695,-14.07563591003418,1.3974761962890625,1340.9375984668732
D4:22:CD:00:05:6B,-126.22416687011719,-65.44100189208984,15.658415794372559,1.5344772338867188,10.970523834228516,3.468770980834961,1340.9375984668732
D4:22:CD:00:49:AA,-176.84078979492188,-79.55286407470703,80.88506317138672,5.350893974304199,-3.2778191566467285,6.098794937133789,1340.9375984668732
D4:22:CD:00:05:6E,-123.02742767333984,81.36457824707031,-139.6737518310547,-2.559917449951172,9.660575866699219,-15.712259292602539,1340.9375984668732
D4:22:CD:00:05:5E,161.67100524902344,-33.388214111328125,-98.16350555419922,-2.312446117401123,-13.488203048706055,-3.068171977996826,1340.9375984668732
D4:22:CD:00:05:5D,139.95965576171875,-79.04409790039062,-76.56782531738281,-18.11752700805664,5.393974304199219,13.799243927001953,1340.9971997737885
D4:22:CD:00:05:6B,-128.8374786376953,-65.01344299316406,22.345056533813477,2.098475456237793,4.940237998962402,4.203115463256836,1340.9971997737885
D4:22:CD:00:49:AA,-178.8821258544922,-77.4925765991211,84.38199615478516,-0.09661369025707245,-0.694817304611206,0.9808158874511719,1340.9971997737885
D4:22:CD:00:05:6E,-40.10049819946289,68.95437622070312,-63.46470642089844,-1.1138947010040283,1.2193634510040283,-11.823726654052734,1340.9971997737885
D4:22:CD:00:05:5E,168.6726837158203,-36.11466598510742,-101.093017578125,-12.209939956665039,-0.5119031667709351,-2.0593013763427734,1340.9971997737885
D4:22:CD:00:05:5D,152.50697326660156,-77.29065704345703,-85.94137573242188,-4.952431678771973,4.173102378845215,0.6774320602416992,1341.0272336006165
D4:22:CD:00:05:6B,-132.5980682373047,-64.53274536132812,27.08707618713379,0.18714141845703125,2.592175006866455,2.7388057708740234,1341.0272336006165
D4:22:CD:00:49:AA,-179.50503540039062,-74.79646301269531,88.37710571289062,-11.126546859741211,-1.8357083797454834,3.2012367248535156,1341.0272336006165
D4:22:CD:00:05:6E,-26.12485122680664,50.348121643066406,-52.36770248413086,11.17496109008789,2.601505756378174,-12.96116828918457,1341.0272336006165
D4:22:CD:00:05:5E,178.82138061523438,-35.85143280029297,-103.49946594238281,-8.575929641723633,6.707066535949707,14.11076545715332,1341.0272336006165
D4:22:CD:00:05:5D,164.10423278808594,-76.57137298583984,-97.46684265136719,1.73260498046875,1.256476879119873,0.14481639862060547,1341.0576195716858
D4:22:CD:00:05:6B,-135.77415466308594,-63.07868194580078,27.338497161865234,-5.705142021179199,4.737250328063965,1.6868696212768555,1341.0576195716858
D4:22:CD:00:49:AA,-177.65908813476562,-73.59969329833984,92.64578247070312,-8.22807502746582,1.277024507522583,-2.1942620277404785,1341.0576195716858
D4:22:CD:00:05:6E,-27.913570404052734,34.78242492675781,-52.97932815551758,19.424213409423828,-21.17874526977539,6.954160690307617,1341.0576195716858
D4:22:CD:00:05:5E,-166.7768096923828,-30.505834579467773,-105.21781921386719,-12.56599235534668,4.956358909606934,16.688888549804688,1341.0576195716858
D4:22:CD:00:05:5D,172.65733337402344,-76.1065444946289,-107.36804962158203,1.74696946144104,-1.0553052425384521,0.7560625076293945,1341.087251663208
D4:22:CD:00:05:6B,-134.8443603515625,-62.099246978759766,26.402572631835938,-3.389843463897705,-1.075312852859497,-1.7596311569213867,1341.087251663208
D4:22:CD:00:49:AA,-178.00572204589844,-72.47969818115234,96.48531341552734,5.425542831420898,-0.18821102380752563,-1.1924018859863281,1341.087251663208
D4:22:CD:00:05:6E,-14.223810195922852,29.5833797454834,-54.55839920043945,-1.1894786357879639,-26.937286376953125,19.931427001953125,1341.087251663208
D4:22:CD:00:05:5E,-163.7384490966797,-19.147220611572266,-103.9102554321289,-19.49976348876953,2.4799342155456543,2.6532649993896484,1341.087251663208
D4:22:CD:00:05:5D,177.94407653808594,-75.72410583496094,-113.02034759521484,1.9325933456420898,-0.15213072299957275,0.4293384552001953,1341.1175000667572
D4:22:CD:00:05:6B,-134.39852905273438,-62.50107955932617,25.70730972290039,-3.8447604179382324,1.8134429454803467,-1.2330131530761719,1341.1175000667572
D4:22:CD:00:49:AA,179.01075744628906,-71.61580657958984,99.51038360595703,3.634709358215332,1.0318033695220947,2.0682458877563477,1341.1175000667572
D4:22:CD:00:05:6E,9.848023414611816,31.74259376525879,-50.08711624145508,10.21241569519043,10.681390762329102,-13.569620132446289,1341.1175000667572
D4:22:CD:00:05:5E,-169.9846649169922,-6.73128080368042,-99.21051025390625,-6.716341018676758,-1.5915958881378174,-6.676912307739258,1341.1175000667572
D4:22:CD:00:05:5D,-179.6697235107422,-75.75035858154297,-115.73695373535156,0.27216100692749023,-0.5226966142654419,0.7366676330566406,1341.1475973129272
D4:22:CD:00:05:6B,-131.2648468017578,-64.92037963867188,21.035627365112305,-2.9885072708129883,3.4531445503234863,0.4852018356323242,1341.1475973129272
D4:22:CD:00:49:AA,173.59664916992188,-71.6881332397461,104.1366958618164,-6.309534072875977,3.7891030311584473,1.998239517211914,1341.1475973129272
D4:22:CD:00:05:6E,21.846343994140625,33.053157806396484,-41.365135192871094,-0.027910467237234116,6.915116310119629,-8.532140731811523,1341.1475973129272
D4:22:CD:00:05:5E,-174.87442016601562,2.9269602298736572,-93.6740951538086,-0.9215441942214966,-2.045661449432373,-10.455825805664062,1341.1475973129272
D4:22:CD:00:05:5D,-178.98377990722656,-75.63824462890625,-117.34822845458984,-0.4919108748435974,-0.8247998952865601,-0.16384506225585938,1341.1772804260254
D4:22:CD:00:05:6B,-125.4413833618164,-67.37808990478516,10.53735065460205,-4.283980369567871,1.6897902488708496,-1.5097589492797852,1341.1772804260254
D4:22:CD:00:49:AA,167.97430419921875,-72.2278823852539,108.48808288574219,-4.949404716491699,1.6682326793670654,-1.8418688774108887,1341.1772804260254
D4:22:CD:00:05:6E,37.52822494506836,30.969959259033203,-29.921648025512695,-1.432527780532837,2.6721463203430176,-12.205682754516602,1341.1772804260254
D4:22:CD:00:05:5E,179.77259826660156,9.254790306091309,-87.66519165039062,0.09254765510559082,-1.9834084510803223,-10.932004928588867,1341.1772804260254
D4:22:CD:00:05:5D,-179.46791076660156,-74.64300537109375,-117.05303955078125,0.7377101182937622,-0.8386993408203125,-1.1502189636230469,1341.2073774337769
D4:22:CD:00:05:6B,-117.91687774658203,-68.27015686035156,-1.3655035495758057,-4.215198516845703,2.2590527534484863,-4.883094787597656,1341.2073774337769
D4:22:CD:00:49:AA,163.5882568359375,-72.5087890625,111.95211791992188,-0.4216828942298889,0.4996664524078369,-4.859145164489746,1341.2073774337769
D4:22:CD:00:05:6E,56.93662643432617,24.103376388549805,-19.761608123779297,9.759876251220703,13.008092880249023,-11.535476684570312,1341.2073774337769
D4:22:CD:00:05:5E,174.16505432128906,12.281180381774902,-81.00130462646484,1.5648841857910156,-5.966620445251465,-8.087614059448242,1341.2073774337769
D4:22:CD:00:05:5D,178.55990600585938,-72.67317199707031,-115.12178802490234,1.0059337615966797,-1.8536250591278076,-2.357351779937744,1341.237560749054
D4:22:CD:00:05:6B,-108.60889434814453,-68.40543365478516,-12.845595359802246,-2.5538954734802246,2.74294376373291,-7.616914749145508,1341.237560749054
D4:22:CD:00:49:AA,157.28659057617188,-72.16960906982422,116.56966400146484,1.4531278610229492,0.1427810788154602,-5.2740325927734375,1341.237560749054
D4:22:CD:00:05:6E,68.82791137695312,14.187520027160645,-12.457650184631348,14.050132751464844,9.471250534057617,0.21253490447998047,1341.237560749054
D4:22:CD:00:05:5E,173.65037536621094,10.473254203796387,-73.78490447998047,8.992734909057617,-9.30620002746582,-19.220657348632812,1341.237560749054
D4:22:CD:00:05:5D,176.72079467773438,-69.77422332763672,-112.1395263671875,1.409238338470459,-2.127098560333252,-0.5938901901245117,1341.297786951065
D4:22:CD:00:05:6B,-98.21585083007812,-68.20244598388672,-24.32827377319336,-0.5533390045166016,2.1490278244018555,-9.463096618652344,1341.297786951065
D4:22:CD:00:49:AA,148.6890869140625,-71.40348815917969,122.27494812011719,-0.5206023454666138,0.2836286425590515,-4.6556196212768555,1341.297786951065
D4:22:CD:00:05:6E,67.66838836669922,0.9707720279693604,-5.517080783843994,12.066650390625,2.6676387786865234,-4.754599571228027,1341.297786951065
D4:22:CD:00:05:5E,-178.71627807617188,4.215131759643555,-67.36560821533203,19.984119415283203,-7.929945945739746,7.310237884521484,1341.297786951065
D4:22:CD:00:05:5D,174.90797424316406,-65.91670227050781,-109.00511932373047,-0.748272180557251,0.6929420232772827,-1.436985969543457,1341.3274455070496
D4:22:CD:00:05:6B,-89.70256042480469,-67.39451599121094,-35.43217468261719,-1.9844722747802734,2.9962472915649414,-7.562033653259277,1341.3274455070496
D4:22:CD:00:49:AA,140.65158081054688,-70.51493835449219,128.0081787109375,-2.4459095001220703,0.06388670206069946,-4.71810245513916,1341.3274455070496
D4:22:CD:00:05:6E,61.06060028076172,-14.468067169189453,2.528874635696411,31.976524353027344,0.9341549873352051,7.492031097412109,1341.3274455070496
D4:22:CD:00:05:5E,-173.37936401367188,3.5909626483917236,-64.56049346923828,13.788335800170898,-11.323450088500977,-21.433990478515625,1341.3274455070496
D4:22:CD:00:05:5D,173.10940551757812,-61.093563079833984,-106.20423889160156,-1.6152417659759521,-0.7415292263031006,1.5469026565551758,1341.3575193881989
D4:22:CD:00:05:6B,-83.36286926269531,-66.12066650390625,-48.167789459228516,-4.585884094238281,8.423974990844727,-2.637619972229004,1341.3575193881989
D4:22:CD:00:49:AA,134.61251831054688,-69.33924865722656,133.8911590576172,-3.8888301849365234,-0.326092004776001,-4.3037004470825195,1341.3575193881989
D4:22:CD:00:05:6E,54.18352127075195,-23.750497817993164,9.139214515686035,26.456375122070312,8.036691665649414,2.713533401489258,1341.3575193881989
D4:22:CD:00:05:5E,-172.70082092285156,2.2755279541015625,-62.941463470458984,14.445976257324219,-16.765594482421875,-7.930957794189453,1341.3575193881989
D4:22:CD:00:05:5D,172.2425994873047,-55.91357421875,-102.53778076171875,-0.12221375107765198,-0.11562258005142212,-0.7845039367675781,1341.3875269889832
D4:22:CD:00:05:6B,-69.81741333007812,-64.10221099853516,-64.88720703125,-2.0878348350524902,10.711414337158203,2.8132572174072266,1341.3875269889832
D4:22:CD:00:49:AA,133.18643188476562,-68.24600219726562,137.24652099609375,-0.9761435985565186,1.183553695678711,-0.06659793853759766,1341.3875269889832
D4:22:CD:00:05:6E,61.801063537597656,-23.039947509765625,2.3773770332336426,9.747421264648438,2.166107177734375,9.762584686279297,1341.3875269889832
D4:22:CD:00:05:5E,-174.6439971923828,1.2572696208953857,-62.650962829589844,13.382495880126953,-13.425207138061523,-4.26317024230957,1341.3875269889832
D4:22:CD:00:05:5D,173.65658569335938,-51.44501876831055,-100.15533447265625,4.186779975891113,1.6503357887268066,-0.05322074890136719,1341.432987689972
D4:22:CD:00:05:6B,-58.77223587036133,-58.89942169189453,-79.61097717285156,2.266357898712158,5.548101425170898,7.303600311279297,1341.432987689972
D4:22:CD:00:49:AA,136.11460876464844,-67.13805389404297,136.5533447265625,-3.889688491821289,2.3588552474975586,7.9588775634765625,1341.432987689972
D4:22:CD:00:05:6E,64.12450408935547,-19.150205612182617,-6.802690029144287,20.929424285888672,-2.0671777725219727,3.072418212890625,1341.432987689972
D4:22:CD:00:05:5E,-176.70584106445312,1.6808253526687622,-62.41313552856445,2.1626639366149902,-22.218528747558594,-0.3148965835571289,1341.432987689972
D4:22:CD:00:05:5D,175.10081481933594,-48.67274475097656,-100.09931182861328,0.9992008209228516,2.109323024749756,1.4025135040283203,1341.4472434520721
D4:22:CD:00:05:6B,-65.18721008300781,-49.768638610839844,-85.01876068115234,-8.568862915039062,20.527320861816406,5.912240028381348,1341.4472434520721
D4:22:CD:00:49:AA,140.69839477539062,-65.88560485839844,134.58848571777344,-5.981766700744629,0.060955554246902466,9.201677322387695,1341.4472434520721
D4:22:CD:00:05:6E,66.73311614990234,-12.410321235656738,-12.094589233398438,20.67650604248047,-7.868593215942383,-1.410684585571289,1341.4472434520721
D4:22:CD:00:05:5E,-177.3573455810547,3.5336990356445312,-63.625999450683594,4.516356468200684,-29.72228240966797,-4.0169267654418945,1341.4472434520721
D4:22:CD:00:05:5D,175.6460418701172,-48.288490295410156,-99.18793487548828,3.088223934173584,1.6834805011749268,3.125065803527832,1341.4769446849823
D4:22:CD:00:05:6B,-72.44620513916016,-39.50566482543945,-81.39494323730469,-8.664592742919922,41.095237731933594,15.411239624023438,1341.4769446849823
D4:22:CD:00:49:AA,145.17593383789062,-65.7912368774414,132.58792114257812,-2.8663482666015625,-0.7235623598098755,11.302656173706055,1341.4769446849823
D4:22:CD:00:05:6E,75.37835693359375,-3.7339518070220947,-13.689753532409668,23.726478576660156,-2.1535263061523438,-4.479241371154785,1341.4769446849823
D4:22:CD:00:05:5E,-173.38427734375,7.973514080047607,-65.91876983642578,6.358248710632324,-32.176918029785156,-13.085243225097656,1341.4769446849823
D4:22:CD:00:05:5D,174.586181640625,-49.917781829833984,-96.18840026855469,-0.06365111470222473,0.9037554264068604,2.0873641967773438,1341.526957988739
D4:22:CD:00:05:6B,-73.02066040039062,-23.70778465270996,-71.55310821533203,-5.40397834777832,21.876583099365234,16.84378433227539,1341.526957988739
D4:22:CD:00:49:AA,148.6764678955078,-65.90910339355469,131.1964111328125,1.0597445964813232,-1.7218456268310547,11.078834533691406,1341.526957988739
D4:22:CD:00:05:6E,82.09615325927734,3.6324474811553955,-11.247431755065918,20.655868530273438,4.525341033935547,-6.468382835388184,1341.526957988739
D4:22:CD:00:05:5E,-172.44818115234375,13.17917537689209,-67.8072738647461,5.407951354980469,-19.858409881591797,-12.030410766601562,1341.526957988739
D4:22:CD:00:05:5D,173.69009399414062,-52.167137145996094,-94.13536834716797,-3.76373291015625,0.6997568607330322,1.9674816131591797,1341.557050704956
D4:22:CD:00:05:6B,-67.17633056640625,-5.689726829528809,-60.68442153930664,0.11168408393859863,7.235536575317383,17.49215316772461,1341.557050704956
D4:22:CD:00:49:AA,148.20608520507812,-67.27883911132812,133.7713165283203,-3.4256629943847656,0.526403546333313,7.257341384887695,1341.557050704956
D4:22:CD:00:05:6E,88.08599090576172,7.127192974090576,-4.22242546081543,11.879070281982422,6.480938911437988,-9.012584686279297,1341.557050704956
D4:22:CD:00:05:5E,-169.06222534179688,13.38814926147461,-68.7901840209961,10.301658630371094,-11.081945419311523,-8.689441680908203,1341.557050704956
