Device,EulerX,EulerY,EulerZ,FreeAccX,FreeAccY,FreeAccZ,Timestamp
D4:22:CD:00:05:5D,173.52032470703125,-53.2518424987793,-4.978957653045654,0.3049039840698242,-1.389167308807373,1.3228530883789062,1456.1602623462677
D4:22:CD:00:05:6B,-74.39481353759766,-13.617593765258789,-87.40626525878906,0.9148740768432617,6.561122894287109,6.600515365600586,1456.1602623462677
D4:22:CD:00:49:AA,126.19788360595703,-71.37665557861328,144.847900390625,-7.046950340270996,0.10691921412944794,11.554515838623047,1456.1602623462677
D4:22:CD:00:05:6E,103.90571594238281,-59.43608856201172,35.84180450439453,5.529571533203125,11.619007110595703,3.612311363220215,1456.1602623462677
D4:22:CD:00:05:5E,-154.8660888671875,-64.21318817138672,-4.468311786651611,4.850916862487793,6.570426940917969,20.754459381103516,1456.1602623462677
D4:22:CD:00:05:5D,174.1246795654297,-50.28102111816406,-4.95770263671875,-0.4959721565246582,-0.9737660884857178,1.9900941848754883,1456.168390750885
D4:22:CD:00:05:6B,-68.57044219970703,-0.45937615633010864,-84.01607513427734,21.47003173828125,-0.6672735214233398,18.11398696899414,1456.168390750885
D4:22:CD:00:49:AA,128.65383911132812,-70.31013488769531,143.13980102539062,-3.5761356353759766,-0.05767259746789932,7.757419586181641,1456.168390750885
D4:22:CD:00:05:6E,94.02755737304688,-65.26689147949219,31.261444091796875,17.691593170166016,12.948091506958008,9.271329879760742,1456.168390750885
D4:22:CD:00:05:5E,-152.07615661621094,-61.544124603271484,-5.893939971923828,7.111604690551758,-4.168929100036621,16.24352264404297,1456.168390750885
D4:22:CD:00:05:6B,-54.74626159667969,10.145602226257324,-79.50411987304688,6.265024185180664,-1.7272677421569824,25.552032470703125,1456.174388408661
D4:22:CD:00:49:AA,131.49588012695312,-69.6884994506836,139.08700561523438,-1.3198001384735107,-0.36291706562042236,9.652978897094727,1456.174388408661
D4:22:CD:00:05:6E,91.67254638671875,-72.48493194580078,22.818546295166016,11.68118667602539,1.1991746425628662,16.538650512695312,1456.174388408661
D4:22:CD:00:05:5E,-152.64207458496094,-56.698612213134766,-6.076620578765869,5.881331443786621,-6.852387428283691,11.347246170043945,1456.174388408661
D4:22:CD:00:05:6B,-34.17975997924805,20.826339721679688,-73.33094787597656,5.743593215942383,-0.2566375732421875,17.31645965576172,1456.1783876419067
D4:22:CD:00:49:AA,137.42922973632812,-69.41133117675781,134.05929565429688,-3.705656051635742,0.9534727334976196,10.414335250854492,1456.1783876419067
D4:22:CD:00:05:6E,102.3667221069336,-79.50862884521484,5.007049083709717,5.733424186706543,-3.563803195953369,16.198829650878906,1456.1783876419067
D4:22:CD:00:05:5E,-158.887451171875,-53.46422576904297,-4.647757530212402,7.189126968383789,0.2919369339942932,5.189059257507324,1456.1783876419067
D4:22:CD:00:05:5D,162.08714294433594,-69.41278839111328,-79.90369415283203,5.7627410888671875,1.642951250076294,2.5728673934936523,1456.1823897361755
D4:22:CD:00:05:6B,-74.55410766601562,-25.905790328979492,-93.1750717163086,2.7909412384033203,0.5794796943664551,-0.10188674926757812,1456.1823897361755
D4:22:CD:00:49:AA,-152.74603271484375,-79.15901184082031,83.26518249511719,4.425051689147949,2.103935718536377,-0.44269466400146484,1456.1823897361755
D4:22:CD:00:05:5D,162.9705810546875,-63.41621017456055,-77.14167022705078,3.0098938941955566,3.526656150817871,-0.2739076614379883,1456.226811170578
D4:22:CD:00:05:6B,-72.2475814819336,-17.414899826049805,-96.19589233398438,5.8918914794921875,-3.1649317741394043,14.721540451049805,1456.226811170578
D4:22:CD:00:49:AA,175.3894805908203,-83.20929718017578,116.6566390991211,4.447463035583496,0.8999972343444824,3.3559370040893555,1456.226811170578
D4:22:CD:00:05:6E,38.142879486083984,-64.57672882080078,107.55000305175781,0.7620238065719604,-4.957772254943848,6.713296890258789,1456.226811170578
D4:22:CD:00:05:5E,153.72108459472656,-76.92748260498047,28.619401931762695,-1.9687154293060303,-4.528023719787598,14.084156036376953,1456.226811170578
D4:22:CD:00:05:5D,165.64141845703125,-59.3497200012207,-76.71784973144531,1.6360955238342285,6.4417266845703125,-0.27083873748779297,1456.256869316101
D4:22:CD:00:05:6B,-65.93236541748047,-6.575791835784912,-98.23357391357422,10.153495788574219,-5.601540565490723,19.678424835205078,1456.256869316101
D4:22:CD:00:49:AA,140.67269897460938,-81.63829803466797,152.269775390625,-3.495260715484619,-1.5860023498535156,10.816591262817383,1456.256869316101
D4:22:CD:00:05:6E,53.358673095703125,-48.70719528198242,93.10624694824219,-6.217796325683594,11.521223068237305,6.623905181884766,1456.256869316101
D4:22:CD:00:05:5E,155.65213012695312,-69.85139465332031,27.309770584106445,-0.0033302591182291508,-2.6017937660217285,18.019214630126953,1456.256869316101
D4:22:CD:00:05:5D,168.48912048339844,-57.77462387084961,-77.54579162597656,2.2016634941101074,4.849526405334473,0.839198112487793,1456.2867889404297
D4:22:CD:00:05:6B,-58.077117919921875,6.209177017211914,-97.2176742553711,7.610405921936035,-13.590263366699219,33.24162292480469,1456.2867889404297
D4:22:CD:00:49:AA,138.04042053222656,-81.47276306152344,156.524169921875,1.7914938926696777,-0.898147702217102,10.14605712890625,1456.2867889404297
D4:22:CD:00:05:6E,67.96891021728516,-50.23306655883789,74.37928771972656,-0.8762995004653931,11.719001770019531,15.40278434753418,1456.2867889404297
D4:22:CD:00:05:5E,158.929443359375,-63.49492263793945,27.709943771362305,11.916814804077148,1.9230024814605713,22.215423583984375,1456.2867889404297
D4:22:CD:00:05:5D,170.6747589111328,-58.252525329589844,-78.29410552978516,-1.6843023300170898,1.3402581214904785,4.109314918518066,1456.3170185089111
D4:22:CD:00:05:6B,-40.44207763671875,20.19507598876953,-93.04698181152344,3.6785826683044434,-18.50011444091797,19.1202392578125,1456.3170185089111
D4:22:CD:00:49:AA,141.5494842529297,-80.96930694580078,154.511962890625,2.140167713165283,-2.2018070220947266,8.135482788085938,1456.3170185089111
D4:22:CD:00:05:6E,69.22004699707031,-53.15028762817383,66.33967590332031,3.8842806816101074,9.639175415039062,9.412572860717773,1456.3170185089111
D4:22:CD:00:05:5E,160.11546325683594,-66.45027160644531,27.508167266845703,-2.771756649017334,-0.24549522995948792,14.178035736083984,1456.3170185089111
D4:22:CD:00:05:5D,172.8332061767578,-59.910491943359375,-78.8604507446289,-2.545192241668701,1.9177145957946777,3.0652456283569336,1456.346875667572
D4:22:CD:00:05:6B,-16.332427978515625,31.61039161682129,-84.8543472290039,-1.8945927619934082,-14.933290481567383,6.062823295593262,1456.346875667572
D4:22:CD:00:49:AA,145.4412384033203,-81.03068542480469,151.61265563964844,-4.132036209106445,-0.30354398488998413,8.660202026367188,1456.346875667572
D4:22:CD:00:05:6E,67.5146484375,-61.331111907958984,74.67700958251953,1.2047712802886963,10.787338256835938,-2.336380958557129,1456.346875667572
D4:22:CD:00:05:5E,161.4815673828125,-67.18511962890625,25.018375396728516,0.8485008478164673,8.273990631103516,3.0927486419677734,1456.346875667572
D4:22:CD:00:05:5D,174.1875,-63.05656051635742,-79.35340881347656,-2.8127145767211914,0.7628103494644165,5.2796783447265625,1456.3774180412292
D4:22:CD:00:05:6B,7.762297630310059,38.55214309692383,-76.22248840332031,-4.4755144119262695,-11.838541030883789,-0.06309318542480469,1456.3774180412292
D4:22:CD:00:49:AA,156.5764617919922,-82.38728332519531,142.7425079345703,-3.8079934120178223,0.19961002469062805,6.879756927490234,1456.3774180412292
D4:22:CD:00:05:6E,53.3250732421875,-72.01067352294922,107.6246566772461,-12.562551498413086,0.27126020193099976,-0.4115867614746094,1456.3774180412292
D4:22:CD:00:05:5E,171.76727294921875,-71.45279693603516,17.096332550048828,-2.8528451919555664,9.535594940185547,-2.7066659927368164,1456.3774180412292
D4:22:CD:00:05:5D,172.68296813964844,-67.43303680419922,-75.38462829589844,-2.1729841232299805,-1.7592694759368896,7.601461410522461,1456.4074182510376
D4:22:CD:00:05:6B,26.309757232666016,43.10374069213867,-70.8255386352539,-5.805550575256348,-5.788434982299805,-4.645923614501953,1456.4074182510376
D4:22:CD:00:49:AA,-178.3856658935547,-83.16399383544922,121.37239837646484,0.09736223518848419,0.20468220114707947,1.1748600006103516,1456.4074182510376
D4:22:CD:00:05:6E,2.6208853721618652,-73.68144989013672,172.37046813964844,-11.443634033203125,-10.529928207397461,-1.4290313720703125,1456.4074182510376
D4:22:CD:00:05:5E,-165.980712890625,-77.10223388671875,-3.6365766525268555,-0.4081401228904724,8.706640243530273,-8.460622787475586,1456.4074182510376
D4:22:CD:00:05:5D,167.09791564941406,-73.77777862548828,-70.31724548339844,5.395917892456055,-8.723861694335938,1.5903902053833008,1456.4365046024323
D4:22:CD:00:05:6B,35.3148078918457,45.976863861083984,-67.04541778564453,-6.690956115722656,-1.1729729175567627,-7.147152900695801,1456.4365046024323
D4:22:CD:00:49:AA,-155.7453155517578,-81.8708267211914,102.67838287353516,-0.0135019700974226,0.13053011894226074,-3.566018581390381,1456.4365046024323
D4:22:CD:00:05:6E,-22.480764389038086,-64.81061553955078,-146.0125274658203,-12.290210723876953,-12.599628448486328,-2.2589058876037598,1456.4365046024323
D4:22:CD:00:05:5E,-113.96800994873047,-80.41216278076172,-56.276607513427734,2.3547592163085938,7.359429359436035,-12.058298110961914,1456.4365046024323
D4:22:CD:00:05:5D,158.15553283691406,-76.57672119140625,-66.41967010498047,7.303600311279297,2.984053134918213,-6.104973793029785,1456.4968030452728
D4:22:CD:00:05:6B,36.844566345214844,49.375667572021484,-67.47773742675781,-3.720109462738037,1.4388256072998047,-9.492687225341797,1456.4968030452728
D4:22:CD:00:49:AA,-147.15167236328125,-79.29878997802734,96.64492797851562,2.444760322570801,3.2541861534118652,-6.364529609680176,1456.4968030452728
D4:22:CD:00:05:6E,-28.812744140625,-57.07064437866211,-121.63287353515625,-6.661952972412109,-19.20825958251953,-8.254072189331055,1456.4968030452728
D4:22:CD:00:05:5E,-63.20964431762695,-74.70866394042969,-108.5542984008789,-0.8182333707809448,5.385893821716309,-14.010459899902344,1456.4968030452728
D4:22:CD:00:05:5D,153.1899871826172,-78.20040893554688,-65.29717254638672,2.6370158195495605,3.9190239906311035,-7.537220001220703,1456.526799917221
D4:22:CD:00:05:6B,34.316856384277344,55.231300354003906,-76.16494750976562,3.996027946472168,0.04365527629852295,-11.376459121704102,1456.526799917221
D4:22:CD:00:49:AA,-144.5719757080078,-77.6535415649414,94.58888244628906,2.290736198425293,4.638980865478516,-8.890239715576172,1456.526799917221
D4:22:CD:00:05:6E,-39.533470153808594,-52.30481719970703,-102.60120391845703,2.691405773162842,-15.119342803955078,-9.156272888183594,1456.526799917221
D4:22:CD:00:05:5E,-41.93535232543945,-64.740478515625,-131.53318786621094,-4.80766487121582,0.6058650016784668,-11.522472381591797,1456.526799917221
D4:22:CD:00:05:5D,145.23744201660156,-80.29850769042969,-62.070430755615234,5.764788627624512,-6.379541397094727,-11.838777542114258,1456.556705236435
D4:22:CD:00:05:6B,21.449853897094727,60.99187469482422,-96.3570327758789,4.023013114929199,0.5869816541671753,-14.705327987670898,1456.556705236435
D4:22:CD:00:49:AA,-142.1697998046875,-77.74481201171875,91.98153686523438,0.6234301328659058,1.7292532920837402,-9.622980117797852,1456.556705236435
D4:22:CD:00:05:6E,-49.35348129272461,-49.037940979003906,-90.04983520507812,0.46707385778427124,-7.607020378112793,-10.994518280029297,1456.556705236435
D4:22:CD:00:05:5E,-32.48932647705078,-54.588836669921875,-144.31370544433594,-9.329833984375,-7.599851608276367,-5.476808547973633,1456.556705236435
D4:22:CD:00:05:5D,154.88011169433594,-82.41553497314453,-66.64693450927734,-8.536182403564453,12.994653701782227,-5.3444318771362305,1456.5869102478027
D4:22:CD:00:05:6B,-7.500028610229492,59.4434700012207,-125.9618148803711,3.6661887168884277,0.2983245849609375,-18.873523712158203,1456.5869102478027
D4:22:CD:00:49:AA,-140.72030639648438,-78.88526916503906,90.24993133544922,-0.16403675079345703,1.6015441417694092,-9.061042785644531,1456.5869102478027
D4:22:CD:00:05:6E,-53.5972900390625,-47.15078353881836,-82.19178771972656,1.1439642906188965,-5.07205867767334,-8.628320693969727,1456.5869102478027
D4:22:CD:00:05:5E,-31.455610275268555,-46.04621124267578,-152.01815795898438,-19.439655303955078,-11.239385604858398,-7.562514305114746,1456.5869102478027
D4:22:CD:00:05:5D,154.0937042236328,-80.20110321044922,-66.41898345947266,-11.829612731933594,1.5551905632019043,-3.6988673210144043,1456.6209082603455
D4:22:CD:00:05:6B,-33.878273010253906,48.04659652709961,-147.4460906982422,-16.369495391845703,-9.528728485107422,-28.458911895751953,1456.6209082603455
D4:22:CD:00:49:AA,-141.62094116210938,-79.82630157470703,90.3105697631836,-1.4904608726501465,-0.8212263584136963,-6.626060485839844,1456.6209082603455
D4:22:CD:00:05:6E,-52.23025894165039,-47.510536193847656,-78.47920227050781,4.148612022399902,-4.652227401733398,-9.997594833374023,1456.6209082603455
D4:22:CD:00:05:5E,-35.90938186645508,-41.9066276550293,-154.55404663085938,-17.472030639648438,-4.235897064208984,-19.512718200683594,1456.6209082603455
D4:22:CD:00:05:5D,149.8231201171875,-78.29280853271484,-62.00873947143555,-2.7292227745056152,-4.977378845214844,5.21458625793457,1456.6564273834229
D4:22:CD:00:05:6B,-48.35358810424805,37.4828987121582,-155.10043334960938,-19.942638397216797,11.68272590637207,-16.02544403076172,1456.6564273834229
D4:22:CD:00:49:AA,-138.84429931640625,-80.27916717529297,86.94448852539062,-2.6220011711120605,-2.1339030265808105,-3.5145020484924316,1456.6564273834229
D4:22:CD:00:05:6E,-49.19342803955078,-49.4691047668457,-77.14176177978516,5.818524360656738,-5.324960708618164,-8.080379486083984,1456.6564273834229
D4:22:CD:00:05:5E,-37.45677947998047,-42.61933517456055,-154.320556640625,-19.255619049072266,-2.8304452896118164,-18.25942611694336,1456.6564273834229
D4:22:CD:00:05:5D,145.8109130859375,-75.88052368164062,-53.394866943359375,4.722476959228516,-0.5878126621246338,4.213472366333008,1456.6870076656342
D4:22:CD:00:05:6B,-54.70240020751953,44.636905670166016,-150.32736206054688,-21.56100845336914,-0.042550086975097656,14.923782348632812,1456.6870076656342
D4:22:CD:00:49:AA,-136.0958251953125,-80.22328186035156,83.10552978515625,-1.9946458339691162,-1.7427880764007568,0.5864200592041016,1456.6870076656342
D4:22:CD:00:05:6E,-46.690792083740234,-52.12332534790039,-77.06812286376953,6.472402572631836,-5.383217811584473,-6.929401397705078,1456.6870076656342
D4:22:CD:00:05:5E,-45.19493103027344,-48.95197296142578,-147.32054138183594,-26.848220825195312,-3.5742554664611816,-24.462200164794922,1456.6870076656342
D4:22:CD:00:05:5D,139.74974060058594,-74.00615692138672,-45.806514739990234,4.098958969116211,-1.050523281097412,7.233394622802734,1456.7070145606995
D4:22:CD:00:05:6B,-42.85447692871094,49.55659484863281,-141.08865356445312,0.3116598129272461,4.2969465255737305,-7.474504470825195,1456.7070145606995
D4:22:CD:00:49:AA,-138.38534545898438,-79.7365951538086,84.10108184814453,-3.0840048789978027,-3.7422404289245605,5.971035957336426,1456.7070145606995
D4:22:CD:00:05:6E,-46.25084686279297,-54.56001663208008,-75.74396514892578,6.744916915893555,-7.055972099304199,-5.807245254516602,1456.7070145606995
D4:22:CD:00:05:5E,-50.06492614746094,-54.575050354003906,-140.9086151123047,5.265445709228516,-12.531963348388672,4.770417213439941,1456.7070145606995
D4:22:CD:00:05:5D,133.1382293701172,-72.11382293701172,-40.07977294921875,-2.1079459190368652,1.0747907161712646,4.170994758605957,1456.7370247840881
D4:22:CD:00:05:6B,-25.29218864440918,51.532623291015625,-120.82389068603516,-3.1175408363342285,0.6288838386535645,-13.369709014892578,1456.7370247840881
D4:22:CD:00:49:AA,-145.1785888671875,-78.7573471069336,88.68650817871094,-1.4883642196655273,-4.2783050537109375,7.116672515869141,1456.7370247840881
D4:22:CD:00:05:6E,-52.38200759887695,-56.122310638427734,-70.4522476196289,14.112794876098633,-9.474401473999023,-2.9153900146484375,1456.7370247840881
D4:22:CD:00:05:5E,-53.539310455322266,-58.237186431884766,-137.1207275390625,-4.239663124084473,-13.882205963134766,1.2563152313232422,1456.7370247840881
D4:22:CD:00:05:5D,123.69774627685547,-72.03934478759766,-33.828125,-0.9582096338272095,1.4316678047180176,3.420522689819336,1456.7978811264038
D4:22:CD:00:05:6B,-9.248473167419434,46.87052917480469,-100.40129852294922,-7.136432647705078,-6.104372978210449,-11.967697143554688,1456.7978811264038
D4:22:CD:00:49:AA,-145.8927764892578,-79.1412353515625,86.48916625976562,1.6345515251159668,-1.9202911853790283,4.612736701965332,1456.7978811264038
D4:22:CD:00:05:6E,-66.67466735839844,-58.32394790649414,-65.40213012695312,18.5128173828125,-12.400930404663086,3.210373878479004,1456.7978811264038
D4:22:CD:00:05:5E,-66.15554809570312,-61.12834930419922,-129.85546875,-5.115732192993164,1.9823613166809082,11.439287185668945,1456.7978811264038
D4:22:CD:00:05:5D,107.79841613769531,-73.07006072998047,-23.154315948486328,5.4124755859375,2.9483046531677246,3.6543874740600586,1456.8273854255676
D4:22:CD:00:05:6B,0.015135020948946476,38.7664794921875,-85.49993133544922,-4.94013786315918,-5.220700263977051,-5.066689491271973,1456.8273854255676
D4:22:CD:00:49:AA,-142.70819091796875,-79.46170043945312,79.856689453125,2.6964802742004395,0.4871891736984253,0.9750356674194336,1456.8273854255676
D4:22:CD:00:05:6E,-83.7766342163086,-64.82228088378906,-64.10588073730469,5.621819496154785,-2.7016377449035645,8.836923599243164,1456.8273854255676
D4:22:CD:00:05:5E,-72.93939971923828,-63.807586669921875,-125.01219177246094,-3.931445598602295,2.0424351692199707,1.9385614395141602,1456.8273854255676
D4:22:CD:00:05:5D,88.10017395019531,-74.49529266357422,-13.286637306213379,10.52208137512207,7.7300920486450195,-3.319493293762207,1456.8573622703552
D4:22:CD:00:05:6B,2.9520797729492188,29.05630111694336,-74.76610565185547,-4.463986396789551,1.1172680854797363,-0.3380403518676758,1456.8573622703552
D4:22:CD:00:49:AA,-143.90261840820312,-78.48889923095703,76.75923156738281,7.081084251403809,3.843554973602295,-0.2846212387084961,1456.8573622703552
D4:22:CD:00:05:6E,-101.29179382324219,-69.9366683959961,-64.44574737548828,-8.952640533447266,18.954158782958984,13.186607360839844,1456.8573622703552
D4:22:CD:00:05:5E,-71.12635803222656,-66.27182006835938,-126.13622283935547,-7.827207565307617,-8.02617073059082,-4.091327667236328,1456.8573622703552
D4:22:CD:00:05:5D,96.23438262939453,-74.33007049560547,-33.55788040161133,12.957176208496094,26.541702270507812,5.827503204345703,1456.8873617649078
D4:22:CD:00:05:6B,7.703780651092529,18.105243682861328,-66.624755859375,-7.082935333251953,-1.074669361114502,-2.3870701789855957,1456.8873617649078
D4:22:CD:00:49:AA,-149.79408264160156,-77.91450500488281,79.0254135131836,7.0870361328125,0.9451960325241089,-0.3934307098388672,1456.8873617649078
D4:22:CD:00:05:6E,-98.21605682373047,-70.84369659423828,-74.31155395507812,4.667844772338867,0.48100054264068604,1.4881162643432617,1456.8873617649078
D4:22:CD:00:05:5E,-68.38094329833984,-68.0905532836914,-128.20623779296875,-6.3889265060424805,-6.063660621643066,-3.444227695465088,1456.8873617649078
D4:22:CD:00:05:5D,122.90355682373047,-66.56783294677734,-67.4254379272461,14.717876434326172,11.346160888671875,8.806753158569336,1456.9167520999908
D4:22:CD:00:05:6B,15.992368698120117,5.454255104064941,-58.6444206237793,7.566887855529785,0.6799943447113037,-2.186838150024414,1456.9167520999908
D4:22:CD:00:49:AA,-151.88357543945312,-77.79503631591797,80.95635223388672,-2.148536205291748,0.5179847478866577,3.061748504638672,1456.9167520999908
D4:22:CD:00:05:6E,-81.78742980957031,-69.19285583496094,-86.8818588256836,-8.667301177978516,0.4937227964401245,4.508752822875977,1456.9167520999908
D4:22:CD:00:05:5E,-67.93283081054688,-69.13389587402344,-129.60374450683594,-6.046160697937012,-3.674043655395508,-2.06160831451416,1456.9167520999908
D4:22:CD:00:05:5D,140.3534698486328,-54.17833709716797,-86.39571380615234,7.144595146179199,-1.514362096786499,0.8970708847045898,1456.9463996887207
D4:22:CD:00:05:6B,8.330453872680664,-7.6119232177734375,-49.91013717651367,14.494924545288086,12.10791015625,2.2831478118896484,1456.9463996887207
D4:22:CD:00:49:AA,-151.6710662841797,-77.81890106201172,81.22627258300781,1.2310740947723389,3.5600357055664062,0.830235481262207,1456.9463996887207
D4:22:CD:00:05:6E,-69.89564514160156,-66.44510650634766,-94.70012664794922,-9.423578262329102,-9.231918334960938,-0.2695293426513672,1456.9463996887207
D4:22:CD:00:05:5E,-68.29141998291016,-69.47874450683594,-130.81153869628906,-5.5261077880859375,-3.2266182899475098,-1.037405014038086,1456.9463996887207
D4:22:CD:00:05:5D,151.20114135742188,-42.19743347167969,-96.92633819580078,-3.864798069000244,-4.469503402709961,-7.6823930740356445,1456.9774088859558
D4:22:CD:00:05:6B,-6.912123680114746,-18.266542434692383,-42.1851692199707,-8.97700309753418,-11.613996505737305,5.022182464599609,1456.9774088859558
D4:22:CD:00:49:AA,-155.41627502441406,-77.62630462646484,85.21537780761719,7.632658958435059,2.171804904937744,1.151320457458496,1456.9774088859558
D4:22:CD:00:05:6E,-63.72276306152344,-64.55908966064453,-99.33057403564453,-8.345396041870117,-8.006778717041016,-0.4188194274902344,1456.9774088859558
D4:22:CD:00:05:5E,-67.87052154541016,-69.76405334472656,-132.90557861328125,-4.320600509643555,-2.4605941772460938,-0.9975786209106445,1456.9774088859558
D4:22:CD:00:05:5D,158.67721557617188,-32.64502716064453,-103.1065444946289,-6.674090385437012,-2.6671833992004395,-13.31207275390625,1457.0084114074707
D4:22:CD:00:05:6B,-12.637901306152344,-24.172569274902344,-37.388221740722656,1.044823408126831,5.088576316833496,3.650156021118164,1457.0084114074707
D4:22:CD:00:49:AA,-160.37921142578125,-77.93781280517578,89.72647094726562,2.8788509368896484,2.4978318214416504,-0.3566608428955078,1457.0084114074707
D4:22:CD:00:05:6E,-58.365379333496094,-64.54972076416016,-102.62998962402344,-5.7835588455200195,-6.738106727600098,-3.130466938018799,1457.0084114074707
D4:22:CD:00:05:5E,-66.5232162475586,-70.21479797363281,-135.06398010253906,-3.214609146118164,-3.7070069313049316,-2.344882011413574,1457.0084114074707
D4:22:CD:00:05:5D,163.64930725097656,-27.3620662689209,-107.6833267211914,-3.8489627838134766,-0.3611146807670593,-11.741958618164062,1457.0669748783112
D4:22:CD:00:05:6B,-19.68255615234375,-28.335777282714844,-34.89277267456055,-1.9405338764190674,3.188183307647705,2.1408166885375977,1457.0669748783112
D4:22:CD:00:49:AA,-163.18528747558594,-78.6461410522461,92.30262756347656,-1.8530759811401367,1.6277658939361572,-3.712860107421875,1457.0669748783112
D4:22:CD:00:05:6E,-52.13378143310547,-66.38923645019531,-106.4486083984375,-3.2835488319396973,-5.384551048278809,-5.369969367980957,1457.0669748783112
D4:22:CD:00:05:5E,-68.21249389648438,-70.7701644897461,-133.53773498535156,-2.1278762817382812,-4.232043266296387,-2.8721470832824707,1457.0669748783112
D4:22:CD:00:05:5D,165.50660705566406,-26.587358474731445,-111.92030334472656,-6.819345474243164,-1.9952800273895264,-9.305736541748047,1457.0970923900604
D4:22:CD:00:05:6B,-22.60601806640625,-33.35982131958008,-34.54249954223633,1.2393007278442383,3.1482458114624023,-1.6876134872436523,1457.0970923900604
D4:22:CD:00:49:AA,-164.126220703125,-78.99348449707031,93.36555480957031,0.8027635812759399,0.24405625462532043,-4.975533485412598,1457.0970923900604
D4:22:CD:00:05:6E,-43.00187301635742,-69.6135482788086,-113.15093994140625,-1.9680967330932617,-4.679599761962891,-5.41042423248291,1457.0970923900604
D4:22:CD:00:05:5E,-75.54447174072266,-71.01944732666016,-124.90927124023438,-0.6982961893081665,-5.356930732727051,-3.726339817047119,1457.0970923900604
D4:22:CD:00:05:5D,163.33106994628906,-30.300683975219727,-115.65706634521484,-9.394304275512695,-5.822914123535156,-10.614049911499023,1457.1265952587128
D4:22:CD:00:05:6B,-24.00162696838379,-41.190582275390625,-35.9867057800293,3.9452786445617676,-0.17289066314697266,-2.508889675140381,1457.1265952587128
D4:22:CD:00:49:AA,-163.30271911621094,-78.93793487548828,93.3129653930664,2.274289131164551,-0.9645129442214966,-6.816241264343262,1457.1265952587128
D4:22:CD:00:05:6E,-27.826744079589844,-73.25733184814453,-125.843505859375,-0.24562403559684753,-4.910388946533203,-4.324127197265625,1457.1265952587128
D4:22:CD:00:05:5E,-87.21007537841797,-70.50645446777344,-111.90523529052734,-5.725862503051758,-3.823065757751465,-0.7507495880126953,1457.1265952587128
D4:22:CD:00:05:5D,161.05357360839844,-32.208126068115234,-117.67921447753906,-8.094097137451172,-0.03123682737350464,14.87782096862793,1457.160234928131
D4:22:CD:00:05:6B,-22.12522315979004,-51.7990837097168,-40.85420227050781,7.350003242492676,-3.0037903785705566,6.85893440246582,1457.160234928131
D4:22:CD:00:49:AA,-161.88844299316406,-78.46561431884766,92.3738021850586,2.028468608856201,0.47869086265563965,-10.214197158813477,1457.160234928131
D4:22:CD:00:05:6E,-1.4282722473144531,-75.43885803222656,-150.40879821777344,1.501837968826294,-6.258308410644531,-3.4211196899414062,1457.160234928131
D4:22:CD:00:05:5E,-97.99444580078125,-68.87116241455078,-99.36094665527344,-5.058835983276367,-1.4315896034240723,-6.240383148193359,1457.160234928131
D4:22:CD:00:05:5D,162.511474609375,-32.82621765136719,-116.13330078125,-3.950155735015869,-11.037559509277344,-5.197042465209961,1457.186880350113
D4:22:CD:00:05:6B,-14.619905471801758,-60.75418472290039,-52.275550842285156,7.772221565246582,-3.4074249267578125,19.336177825927734,1457.186880350113
D4:22:CD:00:49:AA,-160.34063720703125,-77.18619537353516,89.73120880126953,3.8766403198242188,0.1156836599111557,-5.659214973449707,1457.186880350113
D4:22:CD:00:05:6E,30.455116271972656,-73.07200622558594,176.68775939941406,1.1173627376556396,-7.782583236694336,-1.762547492980957,1457.186880350113
D4:22:CD:00:05:5E,-109.09293365478516,-66.29505157470703,-89.20526123046875,-5.885478973388672,-5.439716339111328,1.0506582260131836,1457.186880350113
D4:22:CD:00:05:5D,169.36602783203125,-31.113574981689453,-113.37090301513672,-11.088325500488281,-9.184574127197266,10.231689453125,1457.2168827056885
D4:22:CD:00:05:6B,-10.15056037902832,-62.14185333251953,-61.668453216552734,5.135271072387695,-4.834066390991211,12.053936004638672,1457.2168827056885
D4:22:CD:00:49:AA,-158.1702880859375,-75.94383239746094,86.46186828613281,1.3812556266784668,-0.5331004858016968,3.7384910583496094,1457.2168827056885
D4:22:CD:00:05:6E,48.108367919921875,-65.73345184326172,153.7804412841797,-2.134294033050537,-4.303302764892578,-0.4515705108642578,1457.2168827056885
D4:22:CD:00:05:5E,-116.21627044677734,-63.80310821533203,-82.88691711425781,-6.002127647399902,-2.8213510513305664,-0.3677835464477539,1457.2168827056885
D4:22:CD:00:05:5D,169.27499389648438,-26.049585342407227,-110.01701354980469,-9.18594741821289,-11.671268463134766,16.128677368164062,1457.247388601303
D4:22:CD:00:05:6B,-16.143531799316406,-57.39447784423828,-55.61404800415039,7.451727867126465,-11.64703369140625,8.502201080322266,1457.247388601303
D4:22:CD:00:49:AA,-155.98033142089844,-74.04119873046875,85.15479278564453,-6.091238975524902,-3.5270819664001465,5.322482109069824,1457.247388601303
D4:22:CD:00:05:6E,54.46284484863281,-56.11709213256836,140.4630584716797,-1.9823732376098633,-3.397454261779785,3.048274040222168,1457.247388601303
D4:22:CD:00:05:5E,-120.70662689208984,-62.88865280151367,-78.01605224609375,-4.68929386138916,-1.6701717376708984,0.06456470489501953,1457.247388601303
D4:22:CD:00:05:5D,167.63014221191406,-17.42232322692871,-107.46255493164062,-3.3992600440979004,-14.442691802978516,12.043994903564453,1457.2774903774261
D4:22:CD:00:05:6B,-22.01791000366211,-49.7142219543457,-46.51015853881836,11.619369506835938,-16.605159759521484,6.336490631103516,1457.2774903774261
D4:22:CD:00:49:AA,-153.92626953125,-72.38524627685547,85.0111083984375,2.4334664344787598,1.4854710102081299,7.373374938964844,1457.2774903774261
D4:22:CD:00:05:6E,57.6771240234375,-45.133419036865234,132.18568420410156,1.5471858978271484,-3.2152366638183594,10.80473518371582,1457.2774903774261
D4:22:CD:00:05:5E,-124.0466079711914,-63.179412841796875,-74.22684478759766,-6.800642967224121,-3.5778965950012207,-1.0124139785766602,1457.2774903774261
D4:22:CD:00:05:5D,167.12969970703125,-8.43231201171875,-107.48201751708984,-5.5759477615356445,-14.061487197875977,9.262548446655273,1457.3069274425507
D4:22:CD:00:05:6B,-25.57623291015625,-41.68876266479492,-43.06332778930664,6.852452278137207,-9.473859786987305,5.018642425537109,1457.3069274425507
D4:22:CD:00:49:AA,-153.28260803222656,-72.22637939453125,84.88664245605469,5.618736267089844,4.219785690307617,7.653593063354492,1457.3069274425507
D4:22:CD:00:05:6E,58.82672119140625,-33.07041931152344,127.38587188720703,1.4684240818023682,-6.906388282775879,21.3193359375,1457.3069274425507
D4:22:CD:00:05:5E,-124.82433319091797,-63.588905334472656,-73.90449523925781,-7.032118797302246,-3.956486701965332,-1.2936925888061523,1457.3069274425507
D4:22:CD:00:05:5D,162.9933624267578,-1.041172981262207,-109.54444885253906,-7.270512580871582,-7.351449966430664,1.9641590118408203,1457.367486000061
D4:22:CD:00:05:6B,-31.775358200073242,-34.591224670410156,-43.934593200683594,3.723862648010254,-7.605368614196777,4.0671491622924805,1457.367486000061
D4:22:CD:00:49:AA,-154.1749725341797,-72.77536010742188,85.32144165039062,2.7041611671447754,3.8785738945007324,8.912302017211914,1457.367486000061
D4:22:CD:00:05:6E,55.4094123840332,-18.91788673400879,123.36261749267578,3.2806458473205566,-0.7277183532714844,23.407245635986328,1457.367486000061
D4:22:CD:00:05:5E,-122.78961944580078,-64.18267822265625,-76.99385833740234,-6.1888427734375,-3.2144570350646973,-0.7010650634765625,1457.367486000061
D4:22:CD:00:05:5D,161.08299255371094,3.151524782180786,-111.32109069824219,-5.2491254806518555,-2.1280264854431152,-6.997366905212402,1457.3967263698578
D4:22:CD:00:05:6B,-40.785865783691406,-30.237096786499023,-46.84038162231445,-0.7537901401519775,-6.7571210861206055,1.1497831344604492,1457.3967263698578
D4:22:CD:00:49:AA,-155.90505981445312,-73.55035400390625,85.99807739257812,5.619592666625977,4.089423179626465,8.94662857055664,1457.3967263698578
D4:22:CD:00:05:6E,43.868953704833984,-2.681978940963745,118.7466812133789,5.24462890625,10.884288787841797,17.564247131347656,1457.3967263698578
D4:22:CD:00:05:5E,-118.99211120605469,-65.50492858886719,-82.49214935302734,-6.554173469543457,-2.447577476501465,0.6674776077270508,1457.3967263698578
D4:22:CD:00:05:5D,162.17715454101562,2.5340774059295654,-112.2667007446289,-5.269883155822754,1.6879158020019531,-13.887924194335938,1457.4267356395721
D4:22:CD:00:05:6B,-47.676185607910156,-30.130279541015625,-50.86089324951172,-2.2052979469299316,-3.876628875732422,4.350124359130859,1457.4267356395721
D4:22:CD:00:49:AA,-159.63299560546875,-74.85611724853516,89.37725067138672,5.111513137817383,5.017096519470215,6.383516311645508,1457.4267356395721
D4:22:CD:00:05:6E,28.93278694152832,12.322998046875,114.54058837890625,5.648019790649414,11.001335144042969,9.848104476928711,1457.4267356395721
D4:22:CD:00:05:5E,-111.89888763427734,-67.77493286132812,-92.21923828125,-6.42939567565918,-1.8430027961730957,2.522519111633301,1457.4267356395721
D4:22:CD:00:05:5D,162.05776977539062,-4.0626068115234375,-113.0887222290039,-8.184549331665039,1.047191858291626,-20.884368896484375,1457.457427740097
D4:22:CD:00:05:6B,-50.95539093017578,-32.94744110107422,-55.18787384033203,0.10130813717842102,-0.8554806709289551,3.1431198120117188,1457.457427740097
D4:22:CD:00:49:AA,-164.886962890625,-75.63579559326172,93.00572204589844,1.6518135070800781,3.3910231590270996,3.4881982803344727,1457.457427740097
D4:22:CD:00:05:6E,17.774728775024414,23.68207550048828,112.3978500366211,0.2989932894706726,6.099626541137695,8.655065536499023,1457.457427740097
D4:22:CD:00:05:5E,-94.66510772705078,-69.7646255493164,-113.44689178466797,-3.4964566230773926,-7.009438514709473,6.862565994262695,1457.457427740097
D4:22:CD:00:05:5D,158.5118865966797,-16.86698341369629,-113.897705078125,-8.385690689086914,-4.8839616775512695,-21.35985565185547,1457.4874486923218
D4:22:CD:00:05:6B,-54.344051361083984,-36.53913879394531,-58.93782043457031,-0.7228460311889648,-0.3883262276649475,-0.31371402740478516,1457.4874486923218
D4:22:CD:00:49:AA,-170.56277465820312,-75.66477966308594,97.50272369384766,-1.2730858325958252,1.1142213344573975,-2.4769773483276367,1457.4874486923218
D4:22:CD:00:05:6E,18.902334213256836,30.83161163330078,111.00682067871094,-5.745560646057129,-0.11191768944263458,4.117443084716797,1457.4874486923218
D4:22:CD:00:05:5E,-76.95280456542969,-70.066650390625,-130.31097412109375,-1.9787507057189941,-4.233656883239746,-1.8304181098937988,1457.4874486923218
D4:22:CD:00:05:5D,155.53062438964844,-34.714385986328125,-113.8182601928711,-9.890121459960938,-10.60490608215332,-14.590679168701172,1457.5169069766998
D4:22:CD:00:05:6B,-58.640140533447266,-39.795188903808594,-62.34294891357422,-0.4916256070137024,0.4067755937576294,-4.782299041748047,1457.5169069766998
D4:22:CD:00:49:AA,-176.14207458496094,-75.2446060180664,102.3316650390625,-0.2599160075187683,-1.4731810092926025,-7.886422157287598,1457.5169069766998
D4:22:CD:00:05:6E,34.11463928222656,36.10084915161133,110.48951721191406,-2.3354945182800293,-2.2429494857788086,-2.226533889770508,1457.5169069766998
D4:22:CD:00:05:5E,-67.73123168945312,-69.67195129394531,-136.78280639648438,-4.902153015136719,1.3960483074188232,-8.201120376586914,1457.5169069766998
D4:22:CD:00:05:5D,151.52285766601562,-56.643184661865234,-112.17723846435547,-8.24049186706543,-8.721839904785156,5.753030776977539,1457.5470311641693
D4:22:CD:00:05:6B,-62.51750946044922,-42.05767059326172,-65.96136474609375,-1.528688907623291,2.010190010070801,-4.236407279968262,1457.5470311641693
D4:22:CD:00:49:AA,-177.60166931152344,-74.30416870117188,103.66484069824219,-0.18637749552726746,0.12685537338256836,-7.568564414978027,1457.5470311641693
D4:22:CD:00:05:6E,54.699039459228516,42.046905517578125,115.77259826660156,-5.276216506958008,-2.6757025718688965,-10.739072799682617,1457.5470311641693
D4:22:CD:00:05:5E,-64.16590881347656,-68.97991943359375,-139.15562438964844,0.23680531978607178,-1.295041561126709,-8.008932113647461,1457.5470311641693
D4:22:CD:00:05:5D,139.4906005859375,-80.95308685302734,-101.00154876708984,2.850029468536377,-8.280723571777344,30.81252670288086,1457.5771956443787
D4:22:CD:00:05:6B,-64.2063980102539,-43.5798225402832,-70.18982696533203,-1.7389538288116455,3.2219552993774414,-7.358238220214844,1457.5771956443787
D4:22:CD:00:49:AA,-177.48226928710938,-74.05721282958984,103.22489929199219,0.8010140657424927,1.7881147861480713,-9.859066009521484,1457.5771956443787
D4:22:CD:00:05:6E,61.33692932128906,46.471923828125,126.20255279541016,-17.290706634521484,-5.9484710693359375,-8.56005859375,1457.5771956443787
D4:22:CD:00:05:5E,-66.79017639160156,-68.46305084228516,-138.89646911621094,-8.918865203857422,-0.11870761215686798,-9.59866714477539,1457.5771956443787
D4:22:CD:00:05:5D,-9.87802791595459,-75.82633972167969,53.238285064697266,17.10112762451172,17.94852066040039,28.237838745117188,1457.6064448356628
D4:22:CD:00:05:6B,-65.1679458618164,-44.79586410522461,-74.18310546875,-0.9701287746429443,3.769050121307373,-9.063060760498047,1457.6064448356628
D4:22:CD:00:49:AA,-179.14962768554688,-74.47065734863281,103.70339965820312,1.7970759868621826,0.18415293097496033,-11.159088134765625,1457.6064448356628
D4:22:CD:00:05:6E,49.33290100097656,48.31591796875,141.4583740234375,-10.533136367797852,-12.670692443847656,-15.248727798461914,1457.6064448356628
D4:22:CD:00:05:5E,-79.35186767578125,-67.88095092773438,-132.61468505859375,-3.85530948638916,-6.377331733703613,-8.247053146362305,1457.6064448356628
D4:22:CD:00:05:5D,-4.980532646179199,-69.48361206054688,48.592899322509766,0.8561922311782837,13.183942794799805,-20.954303741455078,1457.6671497821808
D4:22:CD:00:05:6B,-64.85547637939453,-46.51960754394531,-78.04386138916016,0.9889520406723022,4.521920204162598,-8.32553482055664,1457.6671497821808
D4:22:CD:00:49:AA,-178.85037231445312,-75.10443878173828,102.47001647949219,-0.6096979379653931,-3.830275058746338,-7.288559913635254,1457.6671497821808
D4:22:CD:00:05:6E,36.16316223144531,46.26957702636719,161.1017303466797,-12.36802864074707,-1.7047483921051025,-24.254173278808594,1457.6671497821808
D4:22:CD:00:05:5E,-91.38107299804688,-67.0414047241211,-124.6640396118164,-2.157197952270508,-4.385743141174316,-2.275524139404297,1457.6671497821808
D4:22:CD:00:05:5D,-3.5475268363952637,-70.85953521728516,45.48235321044922,16.726970672607422,-2.107712745666504,-17.024517059326172,1457.697152376175
D4:22:CD:00:05:6B,-62.407779693603516,-49.12784957885742,-82.61793518066406,3.1453614234924316,3.504800319671631,-8.875297546386719,1457.697152376175
D4:22:CD:00:49:AA,-175.53285217285156,-73.374755859375,98.4590835571289,6.274658203125,-3.2741942405700684,-3.493250846862793,1457.697152376175
D4:22:CD:00:05:6E,31.198030471801758,48.82086944580078,178.19564819335938,-20.63861083984375,-0.4305869936943054,-24.04352569580078,1457.697152376175
D4:22:CD:00:05:5E,-101.00154876708984,-64.75907897949219,-117.7664794921875,-6.867368698120117,-6.872430801391602,0.9774456024169922,1457.697152376175
D4:22:CD:00:05:5D,25.61897087097168,-76.55308532714844,24.987794876098633,6.462836265563965,14.695613861083984,2.5063304901123047,1457.7272827625275
D4:22:CD:00:05:6B,-58.72211456298828,-53.44089126586914,-88.8640365600586,1.8406908512115479,0.8508777618408203,-7.395516395568848,1457.7272827625275
D4:22:CD:00:49:AA,-175.08438110351562,-70.46418762207031,96.4391098022461,5.7813215255737305,6.323041915893555,6.635036468505859,1457.7272827625275
D4:22:CD:00:05:6E,32.613304138183594,55.26554870605469,-179.7712860107422,16.744953155517578,-2.501469612121582,-1.0392494201660156,1457.7272827625275
D4:22:CD:00:05:5E,-103.17261505126953,-62.94847869873047,-116.58379364013672,-5.4538116455078125,-3.301645278930664,4.849944114685059,1457.7272827625275
D4:22:CD:00:05:5D,75.92831420898438,-80.66133880615234,-16.31746482849121,4.810216903686523,-10.42462158203125,3.8548965454101562,1457.7569952011108
D4:22:CD:00:05:6B,-55.68794631958008,-61.235897064208984,-96.771728515625,2.567992687225342,-2.964712142944336,-0.5931711196899414,1457.7569952011108
D4:22:CD:00:49:AA,-174.2827606201172,-69.86805725097656,94.97795104980469,0.45171207189559937,2.0590453147888184,7.33271598815918,1457.7569952011108
D4:22:CD:00:05:6E,32.63848876953125,60.278133392333984,170.27374267578125,6.307604789733887,0.8564112186431885,-11.320121765136719,1457.7569952011108
D4:22:CD:00:05:5E,-99.57817840576172,-61.16754913330078,-119.7809066772461,-6.1787109375,-6.558032035827637,4.472418785095215,1457.7569952011108
D4:22:CD:00:05:5D,106.62042999267578,-81.24942779541016,-45.59096145629883,6.857913970947266,4.16140079498291,-4.566667556762695,1457.7871494293213
D4:22:CD:00:05:6B,-62.19607925415039,-73.28717041015625,-102.08029174804688,-3.0584893226623535,-8.315498352050781,18.764034271240234,1457.7871494293213
D4:22:CD:00:49:AA,-171.01663208007812,-68.8533706665039,93.36241912841797,0.2854926586151123,1.136662483215332,9.494882583618164,1457.7871494293213
D4:22:CD:00:05:6E,28.67381477355957,65.23210906982422,145.7128448486328,3.6170196533203125,-8.168622970581055,-9.237632751464844,1457.7871494293213
D4:22:CD:00:05:5E,-94.251220703125,-58.839210510253906,-123.87779235839844,-4.151174545288086,-7.616124153137207,2.6287670135498047,1457.7871494293213
D4:22:CD:00:05:5D,131.06103515625,-82.01611328125,-71.31017303466797,-12.432472229003906,-5.304631233215332,10.347505569458008,1457.8172361850739
D4:22:CD:00:05:6B,-107.67809295654297,-82.96199035644531,-72.29708099365234,7.389817237854004,8.741678237915039,25.36050796508789,1457.8172361850739
D4:22:CD:00:49:AA,-170.59994506835938,-69.71513366699219,95.73461151123047,0.6175354719161987,1.3859081268310547,3.6758899688720703,1457.8172361850739
D4:22:CD:00:05:6E,12.888069152832031,62.70507049560547,111.06041717529297,-0.9882367849349976,-7.158383369445801,-13.423702239990234,1457.8172361850739
D4:22:CD:00:05:5E,-86.70691680908203,-56.001304626464844,-127.09632873535156,-3.086381435394287,-10.105945587158203,-2.5309548377990723,1457.8172361850739
D4:22:CD:00:05:5D,149.29522705078125,-79.81806182861328,-81.6637954711914,0.2424941062927246,3.142246723175049,-1.0683832168579102,1457.8471534252167
D4:22:CD:00:05:6B,-137.32962036132812,-85.06025695800781,-39.256385803222656,12.63309097290039,4.179986000061035,8.785053253173828,1457.8471534252167
D4:22:CD:00:49:AA,-172.041015625,-69.47428131103516,100.37879180908203,0.06404294073581696,-1.7790453433990479,-0.9291200637817383,1457.8471534252167
D4:22:CD:00:05:6E,10.101953506469727,51.853763580322266,90.54618072509766,-2.0882534980773926,-6.717523574829102,-3.5942564010620117,1457.8471534252167
D4:22:CD:00:05:5E,-76.98027801513672,-53.17603302001953,-128.98536682128906,-9.903221130371094,-7.484096527099609,-4.616691589355469,1457.8471534252167
D4:22:CD:00:05:5D,161.9048309326172,-78.37287139892578,-90.03809356689453,-4.1400299072265625,3.164626121520996,2.0923376083374023,1457.8767156600952
D4:22:CD:00:05:6B,-102.84357452392578,-86.31437683105469,-50.43804168701172,-11.771297454833984,-3.3050360679626465,3.250973701477051,1457.8767156600952
D4:22:CD:00:49:AA,-173.36978149414062,-68.54306030273438,105.38245391845703,-4.366313934326172,-1.3462955951690674,-0.2818870544433594,1457.8767156600952
D4:22:CD:00:05:6E,17.546985626220703,37.28989791870117,81.11700439453125,-7.538183212280273,-6.471714973449707,-6.172549247741699,1457.8767156600952
D4:22:CD:00:05:5E,-70.20848846435547,-52.288936614990234,-124.25560760498047,-29.141204833984375,-6.403099060058594,-15.334739685058594,1457.8767156600952
D4:22:CD:00:05:5D,171.6241912841797,-77.25590515136719,-99.28406524658203,-1.619776964187622,0.02811591699719429,0.9638814926147461,1457.9070484638214
D4:22:CD:00:05:6B,-71.23748016357422,-83.83935546875,-67.47905731201172,-4.348172187805176,-7.962616920471191,-0.8931055068969727,1457.9070484638214
D4:22:CD:00:49:AA,-173.21873474121094,-68.23612976074219,110.45458221435547,-4.098605155944824,-0.6684386730194092,-1.444925308227539,1457.9070484638214
D4:22:CD:00:05:6E,27.37652587890625,19.791339874267578,74.44995880126953,0.15168336033821106,-3.0619139671325684,-9.096883773803711,1457.9070484638214
D4:22:CD:00:05:5E,-74.70198822021484,-53.169010162353516,-111.07306671142578,-19.692672729492188,-8.668622970581055,-7.627459526062012,1457.9070484638214
D4:22:CD:00:05:5D,179.79644775390625,-76.27701568603516,-106.37384796142578,1.3274414539337158,0.5559725761413574,0.684504508972168,1457.9671955108643
D4:22:CD:00:05:6B,-68.78507232666016,-81.04143524169922,-69.38329315185547,-2.783057689666748,-7.129086494445801,-4.909685134887695,1457.9671955108643
D4:22:CD:00:49:AA,-174.28433227539062,-68.090576171875,114.02481079101562,1.4625229835510254,1.742523193359375,0.849299430847168,1457.9671955108643
D4:22:CD:00:05:6E,42.394718170166016,1.4880506992340088,66.30207061767578,4.800972938537598,8.031059265136719,-9.858602523803711,1457.9671955108643
D4:22:CD:00:05:5E,-83.91529846191406,-54.16093444824219,-95.22213745117188,-8.714977264404297,-7.779519081115723,-7.209415435791016,1457.9671955108643
D4:22:CD:00:05:5D,-175.186279296875,-75.90282440185547,-110.49250793457031,0.3693493604660034,0.3056231141090393,0.5272808074951172,1457.9973714351654
D4:22:CD:00:05:6B,-75.05813598632812,-79.32652282714844,-73.1475601196289,-8.464771270751953,4.252335548400879,-4.740107536315918,1457.9973714351654
D4:22:CD:00:49:AA,-177.722412109375,-69.28624725341797,116.47076416015625,-0.598252534866333,0.6153606176376343,2.0044965744018555,1457.9973714351654
D4:22:CD:00:05:6E,63.15791320800781,-12.428977012634277,56.370094299316406,4.741158485412598,8.876323699951172,1.9768829345703125,1457.9973714351654
D4:22:CD:00:05:5E,-95.97901153564453,-54.903018951416016,-78.98331451416016,-3.131460189819336,-6.451537132263184,-10.590642929077148,1457.9973714351654
D4:22:CD:00:05:5D,-171.36802673339844,-75.67930603027344,-114.13320922851562,-0.984281063079834,-0.36157912015914917,0.21283626556396484,1458.0275230407715
D4:22:CD:00:05:6B,-69.43134307861328,-79.39868927001953,-83.71504974365234,-5.72028923034668,4.044914245605469,-6.271468162536621,1458.0275230407715
D4:22:CD:00:49:AA,178.80874633789062,-70.27405548095703,120.10804748535156,-5.553831100463867,0.376467764377594,-0.2882242202758789,1458.0275230407715
D4:22:CD:00:05:6E,80.9886703491211,-20.364404678344727,47.190216064453125,-1.931251049041748,2.083340644836426,7.427085876464844,1458.0275230407715
D4:22:CD:00:05:5E,-109.80853271484375,-55.2138786315918,-63.66191101074219,-0.04373536258935928,-2.4079360961914062,-9.691896438598633,1458.0275230407715
D4:22:CD:00:05:5D,-167.65524291992188,-75.12120819091797,-118.08196258544922,-1.1728167533874512,-0.9126113653182983,-0.15082931518554688,1458.0570363998413
D4:22:CD:00:05:6B,-58.1925163269043,-79.30391693115234,-96.45036315917969,-3.8498945236206055,2.240255832672119,-4.823064804077148,1458.0570363998413
D4:22:CD:00:49:AA,175.84251403808594,-71.31331634521484,124.17427825927734,-3.685312271118164,-0.7621067762374878,-2.8236470222473145,1458.0570363998413
D4:22:CD:00:05:6E,88.46088409423828,-23.55624008178711,40.19512176513672,-3.0768518447875977,-3.64255952835083,5.077688217163086,1458.0570363998413
D4:22:CD:00:05:5E,-123.15751647949219,-55.63772964477539,-50.60694885253906,1.183340311050415,-0.7065120935440063,-9.576848983764648,1458.0570363998413
D4:22:CD:00:05:5D,-166.44674682617188,-73.8160629272461,-120.56127166748047,-1.1832985877990723,-1.8487701416015625,-0.6090059280395508,1458.0870480537415
D4:22:CD:00:05:6B,-54.947425842285156,-77.40025329589844,-104.03845977783203,-3.112410068511963,0.031327247619628906,-4.692502021789551,1458.0870480537415
D4:22:CD:00:49:AA,172.20948791503906,-72.08294677734375,128.5198211669922,0.08861026167869568,-0.6151741743087769,-4.6040802001953125,1458.0870480537415
D4:22:CD:00:05:6E,91.39083862304688,-23.55422592163086,37.72616958618164,4.5363311767578125,-5.879071235656738,-1.598048210144043,1458.0870480537415
D4:22:CD:00:05:5E,-136.4286346435547,-56.964569091796875,-39.66349411010742,1.3377923965454102,-1.3085706233978271,-7.60733699798584,1458.0870480537415
D4:22:CD:00:05:5D,-169.18214416503906,-71.29713439941406,-118.8697738647461,1.0808873176574707,-3.1195664405822754,-0.7973289489746094,1458.117266178131
D4:22:CD:00:05:6B,-58.233516693115234,-73.53394317626953,-106.53253173828125,-2.790942668914795,4.769960403442383,-1.1846370697021484,1458.117266178131
D4:22:CD:00:49:AA,166.59214782714844,-72.46327209472656,134.08790588378906,0.37046533823013306,-0.3936545252799988,-5.277647972106934,1458.117266178131
D4:22:CD:00:05:6E,95.39472961425781,-23.736682891845703,40.9207763671875,0.8915426731109619,-2.62178373336792,-2.8679280281066895,1458.117266178131
D4:22:CD:00:05:5E,-150.09368896484375,-59.59855270385742,-30.114215850830078,1.2064332962036133,-2.0842247009277344,-2.7478160858154297,1458.117266178131
D4:22:CD:00:05:5D,-174.15977478027344,-67.48779296875,-113.898193359375,-0.14725077152252197,-3.0202784538269043,1.221221923828125,1458.1472713947296
D4:22:CD:00:05:6B,-61.485084533691406,-67.687255859375,-107.19706726074219,-0.6339799165725708,5.053135871887207,-1.364762306213379,1458.1472713947296
D4:22:CD:00:49:AA,159.90646362304688,-72.38339233398438,139.93955993652344,-1.3982341289520264,-1.0036661624908447,-4.203640937805176,1458.1472713947296
D4:22:CD:00:05:6E,97.61590576171875,-26.59593391418457,47.97040557861328,1.5722930431365967,0.07238288223743439,-0.15789222717285156,1458.1472713947296
D4:22:CD:00:05:5E,-156.79151916503906,-64.96728515625,-22.287700653076172,8.107234954833984,7.60905647277832,1.3759403228759766,1458.1472713947296
D4:22:CD:00:05:5D,-179.48814392089844,-62.669979095458984,-108.01042938232422,-3.4029316902160645,0.525109052658081,-2.284517765045166,1458.1767890453339
D4:22:CD:00:05:6B,-62.257667541503906,-60.12397766113281,-107.75204467773438,-0.04216814041137695,7.252633094787598,1.697127342224121,1458.1767890453339
D4:22:CD:00:49:AA,153.55027770996094,-72.87814331054688,145.36415100097656,-1.6331493854522705,-0.5161206722259521,-4.197607040405273,1458.1767890453339
D4:22:CD:00:05:6E,95.92499542236328,-33.177181243896484,57.90254592895508,1.9133081436157227,2.9236459732055664,3.6793079376220703,1458.1767890453339
D4:22:CD:00:05:5E,-153.3170623779297,-70.09425354003906,-17.790340423583984,-20.940353393554688,1.4154939651489258,16.416339874267578,1458.1767890453339
D4:22:CD:00:05:5D,176.4209442138672,-57.92538833618164,-103.29173278808594,-4.680879592895508,5.614591598510742,-8.819520950317383,1458.2070982456207
D4:22:CD:00:05:6B,-55.797935485839844,-49.96388626098633,-108.4897689819336,-1.5697476863861084,7.134936332702637,10.174081802368164,1458.2070982456207
D4:22:CD:00:49:AA,147.02294921875,-73.68588256835938,151.9500732421875,-3.346320152282715,-0.5325295925140381,-2.874358654022217,1458.2070982456207
D4:22:CD:00:05:6E,88.91302490234375,-43.55961608886719,71.03427124023438,0.20864662528038025,9.98259162902832,7.83497428894043,1458.2070982456207
D4:22:CD:00:05:5E,-153.73609924316406,-69.55754852294922,-16.0159912109375,4.135719299316406,-1.3000307083129883,3.422398567199707,1458.2070982456207
D4:22:CD:00:05:5D,175.77334594726562,-54.39404296875,-98.49266052246094,10.758049011230469,-1.3440515995025635,11.012250900268555,1458.2672543525696
D4:22:CD:00:05:6B,-52.07171630859375,-36.173789978027344,-107.82770538330078,-0.3310880661010742,4.916940689086914,5.2148237228393555,1458.2672543525696
D4:22:CD:00:49:AA,143.79579162597656,-73.89695739746094,157.4556884765625,-2.511547088623047,-0.9315485954284668,0.6212072372436523,1458.2672543525696
D4:22:CD:00:05:6E,80.4333724975586,-56.574649810791016,83.6836166381836,-2.2580628395080566,15.384683609008789,20.739543914794922,1458.2672543525696
D4:22:CD:00:05:5E,-155.52610778808594,-66.5853500366211,-14.795990943908691,6.971431732177734,-1.0601320266723633,17.625869750976562,1458.2672543525696
