Device,EulerX,EulerY,EulerZ,FreeAccX,FreeAccY,FreeAccZ,Timestamp
D4:22:CD:00:05:5D,173.8856658935547,-53.98026657104492,12.779024124145508,-0.9688698053359985,-0.746770977973938,1.5437450408935547,2415.990042448044
D4:22:CD:00:05:6B,-52.21564483642578,-3.255110263824463,-94.45362854003906,3.3199076652526855,9.814638137817383,22.33220672607422,2415.990042448044
D4:22:CD:00:49:AA,143.03680419921875,-69.10076141357422,147.12051391601562,-1.5267565250396729,-2.027435779571533,8.742557525634766,2415.990042448044
D4:22:CD:00:05:6E,108.03530883789062,-18.443204879760742,57.689945220947266,5.744847297668457,9.83245849609375,9.537773132324219,2415.990042448044
D4:22:CD:00:05:5E,-149.74571228027344,-41.73094177246094,-51.18980407714844,1.694617509841919,-0.513991117477417,3.2056941986083984,2415.990042448044
D4:22:CD:00:05:5D,174.6442413330078,-53.09086608886719,13.888486862182617,-0.5428003072738647,-3.9140191078186035,2.0056800842285156,2415.993042230606
D4:22:CD:00:05:6B,-37.4285774230957,13.345182418823242,-83.07717895507812,-4.307168960571289,-1.8186094760894775,18.985198974609375,2415.993042230606
D4:22:CD:00:49:AA,144.3650665283203,-69.56765747070312,148.1271209716797,-4.444001197814941,-0.6440092325210571,5.431182861328125,2415.993042230606
D4:22:CD:00:05:6E,109.97074127197266,-19.57063865661621,67.26213073730469,2.326612949371338,5.0351667404174805,7.685642242431641,2415.993042230606
D4:22:CD:00:05:5E,-148.90277099609375,-41.50150680541992,-52.89947509765625,1.566391944885254,4.201250076293945,-4.0167341232299805,2415.993042230606
D4:22:CD:00:49:AA,145.46629333496094,-70.61048126220703,149.01478576660156,-2.9760122299194336,3.2120189666748047,7.435932159423828,2415.9960494041443
D4:22:CD:00:05:6E,112.74231719970703,-24.184070587158203,77.95553588867188,0.8504866361618042,0.2144182026386261,5.361474990844727,2415.9960494041443
D4:22:CD:00:05:5E,-146.5858612060547,-46.01416015625,-58.215248107910156,1.0985538959503174,5.332996368408203,-7.62855339050293,2415.9960494041443
D4:22:CD:00:05:5D,-111.98468017578125,-72.57814025878906,-163.5208740234375,0.842835545539856,-2.3947534561157227,-0.2797679901123047,2415.99804186821
D4:22:CD:00:05:6B,-70.44542694091797,-42.243770599365234,-73.38703155517578,2.0333633422851562,4.666642189025879,-2.674060344696045,2415.99804186821
D4:22:CD:00:49:AA,147.98789978027344,-72.12295532226562,147.7194061279297,-4.4398393630981445,2.5070199966430664,11.934057235717773,2415.99804186821
D4:22:CD:00:05:5D,-107.46861267089844,-73.85096740722656,-163.75233459472656,2.395897388458252,0.1877465844154358,-1.3617849349975586,2416.0754566192627
D4:22:CD:00:05:6B,-66.11625671386719,-35.51237869262695,-77.00605773925781,3.4289979934692383,2.8472771644592285,-4.146842956542969,2416.0754566192627
D4:22:CD:00:49:AA,149.6558074951172,-69.54924011230469,137.9011993408203,-1.5832738876342773,-0.4018540382385254,-5.283827781677246,2416.0754566192627
D4:22:CD:00:05:6E,69.36982727050781,-76.99267578125,49.740875244140625,8.841747283935547,8.02625846862793,13.180667877197266,2416.0754566192627
D4:22:CD:00:05:5E,-114.57838439941406,-69.3334732055664,-58.23252868652344,-0.05419498682022095,-13.456073760986328,10.954599380493164,2416.0754566192627
D4:22:CD:00:05:5D,-125.14324951171875,-74.35753631591797,-143.8327178955078,-3.6205644607543945,-1.138608694076538,-0.9465179443359375,2416.1049995422363
D4:22:CD:00:05:6B,-59.17536544799805,-24.095436096191406,-82.42900848388672,1.3831865787506104,0.49470317363739014,2.924675941467285,2416.1049995422363
D4:22:CD:00:49:AA,153.3788604736328,-71.30123138427734,133.41407775878906,0.06819334626197815,1.6572825908660889,-0.6905460357666016,2416.1049995422363
D4:22:CD:00:05:6E,-34.239044189453125,-87.00788116455078,156.54928588867188,-1.1282870769500732,5.3312273025512695,7.841518402099609,2416.1049995422363
D4:22:CD:00:05:5E,-147.371337890625,-69.5606918334961,-27.957019805908203,6.776081085205078,-5.781266212463379,17.17049789428711,2416.1049995422363
D4:22:CD:00:05:5D,-148.91448974609375,-73.03558349609375,-118.38671112060547,-4.761770248413086,4.552026748657227,-1.5740776062011719,2416.1349997520447
D4:22:CD:00:05:6B,-55.960662841796875,-12.581191062927246,-84.42168426513672,-2.1332755088806152,-7.112117767333984,15.498619079589844,2416.1349997520447
D4:22:CD:00:49:AA,145.4385223388672,-72.48733520507812,138.412353515625,2.437922954559326,1.337266206741333,1.468724250793457,2416.1349997520447
D4:22:CD:00:05:6E,-113.17916870117188,-86.47969818115234,-121.59831237792969,-7.191298484802246,1.1275269985198975,3.459035873413086,2416.1349997520447
D4:22:CD:00:05:5E,-176.8192138671875,-69.4250717163086,1.3958923816680908,2.646322250366211,-5.224362373352051,20.008846282958984,2416.1349997520447
D4:22:CD:00:05:5D,-164.45651245117188,-68.7588882446289,-101.46521759033203,-3.2855124473571777,4.819440841674805,-1.6788053512573242,2416.165154695511
D4:22:CD:00:05:6B,-53.281883239746094,-2.0665581226348877,-85.67456817626953,2.678837776184082,-12.750001907348633,16.384204864501953,2416.165154695511
D4:22:CD:00:49:AA,138.8833770751953,-69.33123016357422,143.0180206298828,1.5159246921539307,-4.510163307189941,7.589824676513672,2416.165154695511
D4:22:CD:00:05:6E,178.8932647705078,-85.04552459716797,-53.689327239990234,-5.86543083190918,-1.1045105457305908,2.0066146850585938,2416.165154695511
D4:22:CD:00:05:5E,167.4368896484375,-65.74124908447266,16.28366470336914,3.9236717224121094,-2.784681797027588,12.00103759765625,2416.165154695511
D4:22:CD:00:05:5D,-170.69332885742188,-64.35839080810547,-94.20668029785156,0.7644892930984497,4.685520172119141,0.5633211135864258,2416.1951682567596
D4:22:CD:00:05:6B,-43.10508346557617,8.359911918640137,-85.67110443115234,1.8660883903503418,-16.4666748046875,33.24671936035156,2416.1951682567596
D4:22:CD:00:49:AA,138.15235900878906,-67.36609649658203,143.4633331298828,-6.6738739013671875,-4.4069318771362305,10.212936401367188,2416.1951682567596
D4:22:CD:00:05:6E,155.13772583007812,-83.55232238769531,-29.372764587402344,-8.671573638916016,-6.413504600524902,4.30996036529541,2416.1951682567596
D4:22:CD:00:05:5E,156.67922973632812,-63.053977966308594,23.917633056640625,-1.3904650211334229,1.360280990600586,3.19095516204834,2416.1951682567596
D4:22:CD:00:05:5D,-172.5048828125,-61.38933181762695,-91.7020492553711,2.7309556007385254,5.421889305114746,0.47562694549560547,2416.224594116211
D4:22:CD:00:05:6B,-19.620223999023438,17.517759323120117,-82.22756958007812,2.7335824966430664,-15.198324203491211,9.172306060791016,2416.224594116211
D4:22:CD:00:49:AA,142.61082458496094,-67.56354522705078,139.48155212402344,-3.9022345542907715,-3.0076942443847656,6.08304500579834,2416.224594116211
D4:22:CD:00:05:6E,121.07720947265625,-85.49977111816406,8.862006187438965,-6.754580497741699,-6.482386589050293,6.105716705322266,2416.224594116211
D4:22:CD:00:05:5E,145.9852752685547,-62.570831298828125,31.158008575439453,-4.907400131225586,3.5431437492370605,-4.223485946655273,2416.224594116211
D4:22:CD:00:05:5D,-172.5814208984375,-60.29561233520508,-90.86752319335938,-0.8079100847244263,2.9884471893310547,2.058682441711426,2416.2545964717865
D4:22:CD:00:05:6B,-1.472145915031433,20.115461349487305,-72.84004974365234,-5.471589088439941,-3.5162649154663086,9.959817886352539,2416.2545964717865
D4:22:CD:00:49:AA,148.83433532714844,-69.17767333984375,134.52537536621094,-2.624506950378418,0.024509087204933167,10.369941711425781,2416.2545964717865
D4:22:CD:00:05:6E,48.474571228027344,-85.14417266845703,91.08409881591797,-16.01028060913086,-10.053792953491211,-1.923795223236084,2416.2545964717865
D4:22:CD:00:05:5E,134.41552734375,-64.41187286376953,44.90838623046875,-1.186516284942627,10.508792877197266,-9.447418212890625,2416.2545964717865
D4:22:CD:00:05:5D,-172.79415893554688,-61.08829116821289,-89.14604949951172,-1.8954732418060303,2.328233242034912,3.941303253173828,2416.3151524066925
D4:22:CD:00:05:6B,14.186088562011719,14.906418800354004,-66.34645080566406,-19.648239135742188,-0.17154598236083984,3.7049293518066406,2416.3151524066925
D4:22:CD:00:49:AA,157.90916442871094,-71.59539794921875,128.80166625976562,-4.800420761108398,1.5481021404266357,7.876518249511719,2416.3151524066925
D4:22:CD:00:05:6E,26.07250213623047,-81.80821228027344,119.98831176757812,-9.227375030517578,-13.209247589111328,-7.17714786529541,2416.3151524066925
D4:22:CD:00:05:5E,118.52617645263672,-68.38054656982422,67.08448028564453,0.14772149920463562,11.602287292480469,-10.27175521850586,2416.3151524066925
D4:22:CD:00:05:5D,-173.2950897216797,-63.79914474487305,-87.5982666015625,-3.4864678382873535,2.771707534790039,4.161410331726074,2416.345151901245
D4:22:CD:00:05:6B,28.68671989440918,7.399682521820068,-67.41078186035156,-14.479955673217773,0.6575789451599121,-3.1420083045959473,2416.345151901245
D4:22:CD:00:49:AA,172.1507110595703,-73.57495880126953,118.8331069946289,1.2664382457733154,2.192326545715332,7.847080230712891,2416.345151901245
D4:22:CD:00:05:6E,22.539997100830078,-78.13420867919922,130.02706909179688,-2.673828125,-8.596574783325195,-10.521608352661133,2416.345151901245
D4:22:CD:00:05:5E,91.63832092285156,-71.4259262084961,98.99052429199219,-1.1137146949768066,9.390693664550781,-9.416353225708008,2416.345151901245
D4:22:CD:00:05:5D,-173.53651428222656,-68.78877258300781,-86.41410064697266,-5.2644147872924805,0.5995962619781494,6.672277450561523,2416.3751516342163
D4:22:CD:00:05:6B,39.7088623046875,2.6715545654296875,-73.17227172851562,-6.842001914978027,0.09292387962341309,-5.443997383117676,2416.3751516342163
D4:22:CD:00:49:AA,-174.03762817382812,-74.33319854736328,109.06766510009766,1.622361660003662,3.615361213684082,0.5279417037963867,2416.3751516342163
D4:22:CD:00:05:6E,27.160537719726562,-74.62947082519531,133.81846618652344,-1.0610296726226807,-6.127026557922363,-11.10464859008789,2416.3751516342163
D4:22:CD:00:05:5E,56.78388977050781,-69.83403778076172,134.57711791992188,-5.245364189147949,4.964652061462402,-8.883682250976562,2416.3751516342163
D4:22:CD:00:05:5D,-171.7524871826172,-77.1928939819336,-88.98788452148438,-1.1556272506713867,0.3947656750679016,2.6341686248779297,2416.4052131175995
D4:22:CD:00:05:6B,49.413665771484375,2.886402130126953,-81.11522674560547,-2.283926010131836,-0.444749653339386,-8.098175048828125,2416.4052131175995
D4:22:CD:00:49:AA,-165.72804260253906,-74.0293960571289,103.57390594482422,2.0774903297424316,0.4856482744216919,-6.645392417907715,2416.4052131175995
D4:22:CD:00:05:6E,35.64008712768555,-69.87361907958984,132.30718994140625,4.2443952560424805,-9.982852935791016,-10.039661407470703,2416.4052131175995
D4:22:CD:00:05:5E,29.472618103027344,-63.535491943359375,158.83157348632812,-9.43416976928711,-0.13056397438049316,-9.864320755004883,2416.4052131175995
D4:22:CD:00:05:5D,-171.40869140625,-80.5135726928711,-94.47863006591797,3.669297695159912,4.610360145568848,-4.722166061401367,2416.4352209568024
D4:22:CD:00:05:6B,55.708927154541016,8.37024974822998,-90.02701568603516,4.6496782302856445,-2.263786792755127,-5.151040077209473,2416.4352209568024
D4:22:CD:00:49:AA,-163.42852783203125,-73.27346801757812,101.8869857788086,2.2834324836730957,-0.08133591711521149,-11.343145370483398,2416.4352209568024
D4:22:CD:00:05:6E,43.2976188659668,-65.04573059082031,129.3516387939453,2.10299015045166,-5.795909881591797,-12.073637008666992,2416.4352209568024
D4:22:CD:00:05:5E,9.85209846496582,-56.34810256958008,171.86550903320312,-11.50181770324707,-3.04408597946167,-9.89919662475586,2416.4352209568024
D4:22:CD:00:05:5D,-177.53561401367188,-79.99024200439453,-86.94620513916016,2.5881457328796387,3.698957920074463,-4.351614952087402,2416.4652230739594
D4:22:CD:00:05:6B,53.53792190551758,18.441099166870117,-99.31268310546875,8.510211944580078,-8.545026779174805,-5.194785118103027,2416.4652230739594
D4:22:CD:00:49:AA,-162.66773986816406,-73.43682861328125,100.9248046875,-0.8635324239730835,-0.3067358732223511,-10.995819091796875,2416.4652230739594
D4:22:CD:00:05:6E,51.16505813598633,-61.588226318359375,124.29471588134766,1.3705167770385742,-3.2873029708862305,-10.922527313232422,2416.4652230739594
D4:22:CD:00:05:5E,-7.700936794281006,-50.728084564208984,-179.0456085205078,-15.264261245727539,-1.8035736083984375,-8.48414421081543,2416.4652230739594
D4:22:CD:00:05:5D,178.0044403076172,-78.01786041259766,-78.41362762451172,6.493797302246094,-3.0547962188720703,-9.495407104492188,2416.4952461719513
D4:22:CD:00:05:6B,37.86140060424805,32.30934143066406,-110.60261535644531,10.729955673217773,-15.250957489013672,-13.181188583374023,2416.4952461719513
D4:22:CD:00:49:AA,-161.81332397460938,-74.09444427490234,100.35675811767578,-1.5043187141418457,-0.8267639875411987,-8.430856704711914,2416.4952461719513
D4:22:CD:00:05:6E,57.83039093017578,-59.753021240234375,118.22024536132812,-0.2769392132759094,-2.9811654090881348,-9.917484283447266,2416.4952461719513
D4:22:CD:00:05:5E,-24.73590087890625,-49.4818000793457,-172.45059204101562,-19.532184600830078,-15.281106948852539,-21.092334747314453,2416.4952461719513
D4:22:CD:00:05:5D,-177.8074951171875,-77.59365844726562,-77.02035522460938,3.404367446899414,0.061426497995853424,-10.522165298461914,2416.524778842926
D4:22:CD:00:05:6B,4.403077602386475,46.17578125,-131.21066284179688,-0.9330520629882812,-7.58869743347168,-34.03105926513672,2416.524778842926
D4:22:CD:00:49:AA,-161.4749298095703,-74.638671875,100.02854919433594,-0.22507986426353455,-1.2070538997650146,-7.686083793640137,2416.524778842926
D4:22:CD:00:05:6E,58.127315521240234,-59.480934143066406,113.00074768066406,-0.66552734375,-5.811305046081543,-2.8253517150878906,2416.524778842926
D4:22:CD:00:05:5E,-43.76384353637695,-54.006473541259766,-166.3991241455078,-19.771411895751953,-2.186061382293701,-16.426883697509766,2416.524778842926
D4:22:CD:00:05:5D,-178.81036376953125,-76.52920532226562,-77.6925048828125,-14.444877624511719,9.117136001586914,1.877593994140625,2416.5547790527344
D4:22:CD:00:05:6B,-41.13359832763672,46.830169677734375,-162.4767608642578,-21.693443298339844,15.688270568847656,-42.03572082519531,2416.5547790527344
D4:22:CD:00:49:AA,-159.45413208007812,-75.61671447753906,98.36801147460938,-1.1948106288909912,0.7228050231933594,-5.417649269104004,2416.5547790527344
D4:22:CD:00:05:6E,52.87593460083008,-60.947479248046875,112.44254302978516,5.377038955688477,-2.019874095916748,-0.6344966888427734,2416.5547790527344
D4:22:CD:00:05:5E,-52.784576416015625,-58.9361457824707,-158.8142547607422,-4.143710136413574,-14.529787063598633,7.424472808837891,2416.5547790527344
D4:22:CD:00:05:5D,175.24752807617188,-73.96993255615234,-76.7586441040039,7.15177059173584,-10.423810958862305,-0.3975648880004883,2416.615313768387
D4:22:CD:00:05:6B,-58.34191131591797,45.86064147949219,-165.83609008789062,4.423959732055664,-8.103759765625,0.8103275299072266,2416.615313768387
D4:22:CD:00:49:AA,-158.30661010742188,-75.4176025390625,98.45952606201172,-3.3052120208740234,0.13789072632789612,-2.0906801223754883,2416.615313768387
D4:22:CD:00:05:6E,54.73046875,-63.43003463745117,112.48650360107422,-0.9028670787811279,-8.393848419189453,4.740842819213867,2416.615313768387
D4:22:CD:00:05:5E,-40.685089111328125,-61.97840118408203,-161.14785766601562,-3.5272469520568848,-27.425678253173828,-4.167491912841797,2416.615313768387
D4:22:CD:00:05:5D,171.70281982421875,-71.97693634033203,-67.6302490234375,-4.206667900085449,-6.1254682540893555,5.582806587219238,2416.6453211307526
D4:22:CD:00:05:6B,-50.699703216552734,47.802433013916016,-160.3248748779297,-12.695650100708008,13.592180252075195,-0.41265296936035156,2416.6453211307526
D4:22:CD:00:49:AA,-161.95623779296875,-75.3588638305664,100.85057830810547,0.2977907657623291,1.1653575897216797,5.983765602111816,2416.6453211307526
D4:22:CD:00:05:6E,57.676937103271484,-66.52405548095703,108.14112091064453,-3.9229111671447754,-10.21634292602539,6.972085952758789,2416.6453211307526
D4:22:CD:00:05:5E,-33.16252136230469,-64.84525299072266,-166.2728729248047,-4.313013076782227,-2.0963621139526367,10.400510787963867,2416.6453211307526
D4:22:CD:00:05:5D,168.59072875976562,-70.4379653930664,-57.21886444091797,-0.45992422103881836,3.546741485595703,1.063629150390625,2416.675326347351
D4:22:CD:00:05:6B,-34.310211181640625,50.37306594848633,-146.7779083251953,6.429330825805664,-1.6114108562469482,-16.240158081054688,2416.675326347351
D4:22:CD:00:49:AA,-168.10707092285156,-75.50214385986328,103.32957458496094,1.4488720893859863,-0.3779563903808594,6.950904846191406,2416.675326347351
D4:22:CD:00:05:6E,60.022029876708984,-70.07150268554688,97.56887817382812,-4.437151908874512,0.5438277721405029,7.5758209228515625,2416.675326347351
D4:22:CD:00:05:5E,-29.826385498046875,-66.94740295410156,-169.99884033203125,-4.51955509185791,13.191246032714844,8.379720687866211,2416.675326347351
D4:22:CD:00:05:5D,161.6813507080078,-69.79582214355469,-49.92146301269531,2.7580084800720215,0.42012321949005127,6.719369888305664,2416.704996109009
D4:22:CD:00:05:6B,-22.706464767456055,49.88758087158203,-121.90166473388672,-16.955516815185547,0.6917886734008789,-9.290725708007812,2416.704996109009
D4:22:CD:00:49:AA,-173.90650939941406,-76.1713638305664,105.61304473876953,-1.693669080734253,-2.343017578125,4.603899955749512,2416.704996109009
D4:22:CD:00:05:6E,62.492515563964844,-72.57904815673828,85.83329010009766,1.098649501800537,3.781911849975586,5.268277168273926,2416.704996109009
D4:22:CD:00:05:5E,-29.347055435180664,-69.56758880615234,-172.98960876464844,-4.681491851806641,0.7461484670639038,-1.994469165802002,2416.704996109009
D4:22:CD:00:05:5D,153.70799255371094,-69.25444793701172,-44.25901794433594,2.052797317504883,-4.942384719848633,9.156808853149414,2416.734993457794
D4:22:CD:00:05:6B,-9.04600715637207,42.59463119506836,-100.74674987792969,-9.152711868286133,-2.603039264678955,-6.110627174377441,2416.734993457794
D4:22:CD:00:49:AA,-175.67117309570312,-75.72293853759766,105.37269592285156,0.753821611404419,-1.9681260585784912,4.953154563903809,2416.734993457794
D4:22:CD:00:05:6E,66.17277526855469,-73.12596130371094,80.74189758300781,-0.21824058890342712,5.961091995239258,-1.4853582382202148,2416.734993457794
D4:22:CD:00:05:5E,-22.287628173828125,-71.48811340332031,179.9573211669922,-7.043508529663086,-1.919208288192749,-1.2010917663574219,2416.734993457794
D4:22:CD:00:05:5D,143.39508056640625,-69.20886993408203,-39.538658142089844,7.567651748657227,-7.054627418518066,7.433771133422852,2416.7649919986725
D4:22:CD:00:05:6B,-3.445648431777954,31.900461196899414,-87.08040618896484,-1.0653831958770752,5.931575775146484,1.8435392379760742,2416.7649919986725
D4:22:CD:00:49:AA,-172.8662872314453,-74.33639526367188,101.30868530273438,5.2417402267456055,-0.1339617669582367,-0.9162998199462891,2416.7649919986725
D4:22:CD:00:05:6E,68.23450469970703,-73.19414520263672,82.82054901123047,-10.316850662231445,-1.9390637874603271,0.8678913116455078,2416.7649919986725
D4:22:CD:00:05:5E,-15.517791748046875,-72.29600524902344,173.51174926757812,-6.452394485473633,-2.3320446014404297,-1.8945178985595703,2416.7649919986725
D4:22:CD:00:05:5D,137.85018920898438,-66.1041259765625,-43.82157897949219,4.413999557495117,21.825626373291016,5.261440277099609,2416.795006275177
D4:22:CD:00:05:6B,-4.11287784576416,19.135530471801758,-75.8724365234375,-1.6971187591552734,7.4050188064575195,-4.981207847595215,2416.795006275177
D4:22:CD:00:49:AA,-169.44619750976562,-73.85472106933594,96.6915512084961,6.703362464904785,2.1508841514587402,-1.7255487442016602,2416.795006275177
D4:22:CD:00:05:6E,60.195289611816406,-72.79695129394531,90.53401947021484,-4.725586891174316,-5.386528015136719,1.6575279235839844,2416.795006275177
D4:22:CD:00:05:5E,-11.364069938659668,-72.5419921875,169.14112854003906,-6.482126235961914,-1.6371879577636719,-1.826375961303711,2416.795006275177
D4:22:CD:00:05:5D,143.08584594726562,-57.857154846191406,-53.45356750488281,4.3947601318359375,22.301342010498047,8.612123489379883,2416.8255290985107
D4:22:CD:00:05:6B,-6.8874030113220215,5.334043025970459,-63.71788787841797,1.542060136795044,0.7449408769607544,-3.102415084838867,2416.8255290985107
D4:22:CD:00:49:AA,-165.71632385253906,-75.42713165283203,93.10839080810547,0.3806827664375305,3.2224979400634766,1.4919300079345703,2416.8255290985107
D4:22:CD:00:05:6E,52.6899299621582,-70.91130828857422,98.17353820800781,-5.8615922927856445,-5.954858779907227,-0.23656654357910156,2416.8255290985107
D4:22:CD:00:05:5E,-9.04379940032959,-72.6875228881836,166.49732971191406,-5.396044731140137,0.2577848434448242,-1.5798721313476562,2416.8255290985107
D4:22:CD:00:05:5D,148.58657836914062,-47.187625885009766,-64.20391845703125,5.209685325622559,9.184051513671875,0.16259002685546875,2416.855526447296
D4:22:CD:00:05:6B,-11.68685531616211,-6.958716869354248,-51.58980178833008,15.487913131713867,10.30410385131836,-9.221834182739258,2416.855526447296
D4:22:CD:00:49:AA,-161.05992126464844,-76.41634368896484,89.36639404296875,-0.23597872257232666,2.09512996673584,2.0975332260131836,2416.855526447296
D4:22:CD:00:05:6E,48.97907257080078,-68.7303237915039,102.4904556274414,-3.680896282196045,-3.2717294692993164,-3.178687572479248,2416.855526447296
D4:22:CD:00:05:5E,-6.45843505859375,-72.8780288696289,164.23899841308594,-4.664392471313477,-1.0752501487731934,-1.4514074325561523,2416.855526447296
D4:22:CD:00:05:5D,151.98291015625,-36.23466491699219,-73.4239730834961,1.7058038711547852,0.4873356819152832,-7.917576789855957,2416.9150853157043
D4:22:CD:00:05:6B,-31.444917678833008,-17.193735122680664,-40.96819305419922,-1.6325287818908691,-0.6548911333084106,-1.7972402572631836,2416.9150853157043
D4:22:CD:00:49:AA,-155.36231994628906,-77.5724105834961,84.88970947265625,7.90641975402832,1.3305933475494385,0.3249692916870117,2416.9150853157043
D4:22:CD:00:05:6E,48.47777557373047,-66.44634246826172,104.56779479980469,-1.632270097732544,-4.842315673828125,-4.139520645141602,2416.9150853157043
D4:22:CD:00:05:5E,-5.1576738357543945,-73.84300994873047,163.21730041503906,-4.068581581115723,-1.6718926429748535,-2.1462883949279785,2416.9150853157043
D4:22:CD:00:05:5D,156.15089416503906,-26.01827049255371,-80.22901153564453,-0.2123609185218811,-0.6059361696243286,-12.218711853027344,2416.945083618164
D4:22:CD:00:05:6B,-39.5327262878418,-24.701122283935547,-33.18008041381836,-7.68882942199707,-0.7023091316223145,8.917139053344727,2416.945083618164
D4:22:CD:00:49:AA,-152.18887329101562,-78.53330993652344,82.32521057128906,4.510099411010742,2.987839698791504,-3.6144471168518066,2416.945083618164
D4:22:CD:00:05:6E,49.0714111328125,-63.80598831176758,105.33613586425781,-0.8491684198379517,-5.833137512207031,-4.419068336486816,2416.945083618164
D4:22:CD:00:05:5E,-5.51252555847168,-75.82974243164062,164.6021270751953,-3.4210686683654785,-2.195962429046631,-1.9541492462158203,2416.945083618164
D4:22:CD:00:05:5D,161.90338134765625,-17.75521469116211,-85.19615173339844,-1.5288548469543457,-0.40104812383651733,-12.941888809204102,2416.9750833511353
D4:22:CD:00:05:6B,-39.31447219848633,-31.35061264038086,-27.416826248168945,-1.0011260509490967,4.379945755004883,-0.21329307556152344,2416.9750833511353
D4:22:CD:00:49:AA,-150.40296936035156,-79.36363220214844,80.49498748779297,1.081939458847046,1.6311571598052979,-3.426118850708008,2416.9750833511353
D4:22:CD:00:05:6E,48.918216705322266,-61.5341911315918,105.97682189941406,-1.0932888984680176,-3.9505014419555664,-4.204554557800293,2416.9750833511353
D4:22:CD:00:05:5E,-7.411482810974121,-78.61698150634766,167.7558135986328,-4.77968692779541,0.4075700640678406,-2.3783154487609863,2416.9750833511353
D4:22:CD:00:05:5D,167.57472229003906,-12.534783363342285,-89.65908813476562,-3.7229795455932617,-1.397472620010376,-11.63168716430664,2417.0056273937225
D4:22:CD:00:05:6B,-42.80844497680664,-39.2912712097168,-22.81682014465332,1.0344104766845703,1.5848934650421143,-2.187497615814209,2417.0056273937225
D4:22:CD:00:49:AA,-148.42391967773438,-79.52153778076172,79.05359649658203,0.7575502395629883,1.2445101737976074,-3.236006259918213,2417.0056273937225
D4:22:CD:00:05:6E,48.36435317993164,-59.39694595336914,107.66825866699219,0.006126119755208492,-1.7590391635894775,-3.178163528442383,2417.0056273937225
D4:22:CD:00:05:5E,-14.153491973876953,-81.90017700195312,175.52099609375,-5.547407150268555,-0.8597365617752075,-2.0879645347595215,2417.0056273937225
D4:22:CD:00:05:5D,169.6853485107422,-11.049111366271973,-94.3864517211914,-5.531129837036133,-3.3119540214538574,-10.14059066772461,2417.035617828369
D4:22:CD:00:05:6B,-46.22908401489258,-51.1885986328125,-22.15243911743164,2.581242561340332,-1.3660356998443604,5.193014144897461,2417.035617828369
D4:22:CD:00:49:AA,-146.6916961669922,-79.39464569091797,78.34291076660156,0.7708957195281982,0.7379723787307739,-6.897686004638672,2417.035617828369
D4:22:CD:00:05:6E,49.96189498901367,-54.913841247558594,111.36693572998047,6.325429916381836,0.12075667083263397,5.515033721923828,2417.035617828369
D4:22:CD:00:05:5E,-35.61227035522461,-84.81371307373047,-162.59922790527344,-5.612200736999512,-1.0492994785308838,-1.4807300567626953,2417.035617828369
D4:22:CD:00:05:5D,165.92787170410156,-13.532397270202637,-99.0628890991211,-7.015793800354004,-5.2383832931518555,-8.88005256652832,2417.0656254291534
D4:22:CD:00:05:6B,-31.000009536743164,-68.11296081542969,-37.55925750732422,7.4498186111450195,-6.9458465576171875,35.44775390625,2417.0656254291534
D4:22:CD:00:49:AA,-146.401123046875,-79.0869140625,79.30091094970703,1.3786566257476807,1.24406099319458,-4.872157096862793,2417.0656254291534
D4:22:CD:00:05:6E,63.347171783447266,-42.83137893676758,117.81829071044922,-5.282357215881348,8.935342788696289,7.2871551513671875,2417.0656254291534
D4:22:CD:00:05:5E,-77.81283569335938,-85.86298370361328,-120.19112396240234,-6.779947280883789,0.40240031480789185,-0.17533302307128906,2417.0656254291534
D4:22:CD:00:05:5D,160.01556396484375,-19.294307708740234,-101.714111328125,-9.149375915527344,-13.493474960327148,-11.330947875976562,2417.0946390628815
D4:22:CD:00:05:6B,25.803834915161133,-71.41511535644531,-85.79432678222656,-0.1418781280517578,-13.764673233032227,30.004745483398438,2417.0946390628815
D4:22:CD:00:49:AA,-146.4547882080078,-79.38770294189453,79.65101623535156,4.087621688842773,1.4226603507995605,-0.06531333923339844,2417.0946390628815
D4:22:CD:00:05:6E,80.94984436035156,-24.634122848510742,123.54415130615234,-0.16127577424049377,-19.853439331054688,22.835861206054688,2417.0946390628815
D4:22:CD:00:05:5E,-106.22049713134766,-85.21439361572266,-91.89250183105469,-6.777019500732422,-0.5540218353271484,-1.0203742980957031,2417.0946390628815
D4:22:CD:00:05:5D,161.99208068847656,-25.359172821044922,-101.54766082763672,-6.68702507019043,-3.4741315841674805,34.946533203125,2417.1252126693726
D4:22:CD:00:05:6B,1.724660873413086,-69.54080963134766,-65.89037322998047,36.098602294921875,6.918249130249023,-0.5241765975952148,2417.1252126693726
D4:22:CD:00:49:AA,-145.17410278320312,-79.94773864746094,77.59542083740234,5.019922256469727,1.503983974456787,0.08637142181396484,2417.1252126693726
D4:22:CD:00:05:6E,84.02246856689453,-7.143925666809082,126.89154052734375,11.474809646606445,-13.864599227905273,33.07524871826172,2417.1252126693726
D4:22:CD:00:05:5E,-115.74554443359375,-85.00659942626953,-82.69109344482422,-7.57078742980957,1.038156270980835,-0.4342384338378906,2417.1252126693726
D4:22:CD:00:05:5D,168.61019897460938,-23.758953094482422,-95.76882934570312,-11.243871688842773,-21.68130874633789,8.43948745727539,2417.155210018158
D4:22:CD:00:05:6B,-58.366172790527344,-57.594783782958984,-39.07148361206055,4.6367998123168945,-8.859437942504883,7.133745193481445,2417.155210018158
D4:22:CD:00:49:AA,-150.51197814941406,-78.83499908447266,80.53211212158203,4.198897361755371,1.0808937549591064,3.0744247436523438,2417.155210018158
D4:22:CD:00:05:6E,76.32716369628906,10.721846580505371,123.20359802246094,1.6275913715362549,-1.0653295516967773,17.951820373535156,2417.155210018158
D4:22:CD:00:05:5E,-108.69660949707031,-85.6622085571289,-90.46456909179688,-7.869068145751953,0.5128313302993774,-0.4248971939086914,2417.155210018158
D4:22:CD:00:05:5D,169.2281036376953,-17.754732131958008,-88.86358642578125,0.8419375419616699,-16.300662994384766,20.326004028320312,2417.2147521972656
D4:22:CD:00:05:6B,-60.86051559448242,-43.740455627441406,-39.7392692565918,7.148273468017578,-11.97226333618164,20.206443786621094,2417.2147521972656
D4:22:CD:00:49:AA,-161.0537872314453,-76.32220458984375,88.28308868408203,-0.7487263679504395,-2.3150744438171387,10.334909439086914,2417.2147521972656
D4:22:CD:00:05:6E,64.91220092773438,25.10455894470215,115.8018798828125,-12.459491729736328,-4.056853294372559,15.432430267333984,2417.2147521972656
D4:22:CD:00:05:5E,-69.24584197998047,-86.07929229736328,-131.13473510742188,-9.038419723510742,0.3264200687408447,0.17168140411376953,2417.2147521972656
D4:22:CD:00:05:5D,167.69813537597656,-9.436168670654297,-85.78470611572266,-2.5557827949523926,-17.410667419433594,13.441831588745117,2417.244752407074
D4:22:CD:00:05:6B,-47.95201110839844,-33.04365539550781,-42.55256271362305,23.51519012451172,-13.893362045288086,-7.301456451416016,2417.244752407074
D4:22:CD:00:49:AA,-164.92044067382812,-76.45813751220703,90.6627197265625,0.14697137475013733,1.0099825859069824,10.785758972167969,2417.244752407074
D4:22:CD:00:05:6E,49.60838317871094,35.006080627441406,107.0538101196289,-19.35973358154297,-9.609560012817383,-0.6747245788574219,2417.244752407074
D4:22:CD:00:05:5E,-29.709171295166016,-82.61573791503906,-173.01361083984375,-9.300100326538086,1.1934630870819092,1.5119438171386719,2417.244752407074
D4:22:CD:00:05:5D,163.051513671875,-2.0417590141296387,-85.8150405883789,-0.5906275510787964,-10.382892608642578,2.7604598999023438,2417.274753332138
D4:22:CD:00:05:6B,-50.77116012573242,-25.88688850402832,-42.96907043457031,9.91378402709961,-7.840212821960449,-8.020219802856445,2417.274753332138
D4:22:CD:00:49:AA,-170.9360809326172,-76.10208129882812,96.28533172607422,5.1762189865112305,3.8410568237304688,8.487821578979492,2417.274753332138
D4:22:CD:00:05:6E,35.93950271606445,41.8360481262207,97.0669174194336,-11.500207901000977,-9.945487976074219,-12.42262077331543,2417.274753332138
D4:22:CD:00:05:5E,-12.687064170837402,-75.63434600830078,168.75743103027344,-6.217613220214844,-1.550555944442749,17.681365966796875,2417.274753332138
D4:22:CD:00:05:5D,161.36363220214844,1.757121205329895,-87.93692779541016,-4.1357927322387695,-3.2920608520507812,-4.735152244567871,2417.3052945137024
D4:22:CD:00:05:6B,-53.82584762573242,-25.232315063476562,-44.30521774291992,0.7147717475891113,-5.81466007232666,4.248841285705566,2417.3052945137024
D4:22:CD:00:49:AA,179.67327880859375,-75.17183685302734,104.19222259521484,4.479442596435547,3.6421918869018555,7.774240493774414,2417.3052945137024
D4:22:CD:00:05:6E,29.11799430847168,46.725975036621094,86.69329071044922,4.420050621032715,-8.128894805908203,-12.074708938598633,2417.3052945137024
D4:22:CD:00:05:5E,1.9666417837142944,-66.71997833251953,160.8344268798828,-5.523365020751953,1.4632682800292969,-4.167106628417969,2417.3052945137024
D4:22:CD:00:05:5D,161.4636688232422,0.9018151760101318,-90.33477020263672,-4.797595977783203,0.37858933210372925,-8.777814865112305,2417.335293531418
D4:22:CD:00:05:6B,-49.89051818847656,-30.711959838867188,-48.935264587402344,0.8273817300796509,-2.9455666542053223,-2.729067325592041,2417.335293531418
D4:22:CD:00:49:AA,171.0797882080078,-73.66473388671875,110.79463958740234,1.2652692794799805,2.8675718307495117,2.5128889083862305,2417.335293531418
D4:22:CD:00:05:6E,26.738811492919922,52.16141128540039,77.95501708984375,-2.670482635498047,0.4702913761138916,-9.817842483520508,2417.335293531418
D4:22:CD:00:05:5E,5.889432907104492,-65.02826690673828,160.7405242919922,-19.430950164794922,1.8311049938201904,-16.55384063720703,2417.335293531418
D4:22:CD:00:05:5D,162.01513671875,-4.2833333015441895,-91.93416595458984,-5.674612998962402,-0.07471278309822083,-12.158185958862305,2417.365293979645
D4:22:CD:00:05:6B,-49.85938262939453,-40.18277359008789,-55.33460998535156,-1.5542714595794678,-1.9452624320983887,-2.3361973762512207,2417.365293979645
D4:22:CD:00:49:AA,165.1339874267578,-71.16664123535156,115.28134155273438,0.4695822596549988,0.9625674486160278,-3.8857455253601074,2417.365293979645
D4:22:CD:00:05:6E,21.025531768798828,58.068424224853516,72.67256164550781,3.1313881874084473,-1.3022465705871582,-11.236738204956055,2417.365293979645
D4:22:CD:00:05:5E,3.0962350368499756,-69.69866943359375,162.302978515625,-4.082211494445801,-9.83559799194336,-12.173030853271484,2417.365293979645
D4:22:CD:00:05:5D,160.4488983154297,-12.789081573486328,-92.5450210571289,-4.555981636047363,-1.9430732727050781,-15.446290969848633,2417.395306825638
D4:22:CD:00:05:6B,-48.47734451293945,-51.1882438659668,-64.01517486572266,-7.145644187927246,2.8070530891418457,-1.7039604187011719,2417.395306825638
D4:22:CD:00:49:AA,163.48851013183594,-68.55101013183594,116.61658477783203,-0.37439048290252686,-1.507446050643921,-6.45595645904541,2417.395306825638
D4:22:CD:00:05:6E,20.495281219482422,64.70976257324219,75.17259979248047,1.3617396354675293,-3.2530312538146973,-12.431560516357422,2417.395306825638
D4:22:CD:00:05:5E,-2.8851728439331055,-71.54997253417969,164.9563446044922,5.183445930480957,-4.489986419677734,-11.737443923950195,2417.395306825638
D4:22:CD:00:05:5D,157.0913543701172,-23.337020874023438,-92.51727294921875,-2.9774656295776367,-2.7061996459960938,-14.895769119262695,2417.424835205078
D4:22:CD:00:05:6B,-43.16477966308594,-61.72612762451172,-74.7175064086914,-2.6417012214660645,2.649831771850586,-6.325179100036621,2417.424835205078
D4:22:CD:00:49:AA,165.2058563232422,-67.45220184326172,116.71553039550781,-1.8924484252929688,-1.9697835445404053,-8.444334030151367,2417.424835205078
D4:22:CD:00:05:6E,32.124603271484375,70.78488159179688,92.72958374023438,-1.0203216075897217,-2.4998154640197754,-15.059133529663086,2417.424835205078
D4:22:CD:00:05:5E,-6.4293646812438965,-71.29363250732422,165.6003875732422,-17.096134185791016,8.202873229980469,-9.536748886108398,2417.424835205078
D4:22:CD:00:05:5D,154.28030395507812,-35.41055679321289,-91.6144790649414,0.37345850467681885,-2.993250846862793,-14.030082702636719,2417.454836368561
D4:22:CD:00:05:6B,-41.783241271972656,-69.94135284423828,-84.55609893798828,-5.019291877746582,6.255132675170898,-2.989701747894287,2417.454836368561
D4:22:CD:00:49:AA,165.52516174316406,-68.40033721923828,117.66435241699219,1.5218610763549805,0.3068429231643677,-7.693126678466797,2417.454836368561
D4:22:CD:00:05:6E,62.34526443481445,71.3102798461914,131.44212341308594,-8.982036590576172,-2.636847496032715,-22.007102966308594,2417.454836368561
D4:22:CD:00:05:5E,-7.4524006843566895,-71.54930877685547,165.82508850097656,4.204059600830078,3.1379432678222656,-1.4288301467895508,2417.454836368561
D4:22:CD:00:05:5D,151.83599853515625,-49.41984176635742,-89.3694076538086,-0.3639791011810303,-2.7318625450134277,-9.195430755615234,2417.515384197235
D4:22:CD:00:05:6B,-32.51713943481445,-75.733154296875,-96.45929718017578,-2.638683795928955,5.6689348220825195,-5.157526969909668,2417.515384197235
D4:22:CD:00:49:AA,163.189453125,-70.5391616821289,119.47785186767578,2.297111988067627,2.506227970123291,-7.777585983276367,2417.515384197235
D4:22:CD:00:05:6E,73.58509826660156,64.91390991210938,158.0519561767578,-14.023805618286133,-0.08683745563030243,-18.274635314941406,2417.515384197235
D4:22:CD:00:05:5E,-9.938434600830078,-72.25955200195312,167.42027282714844,-2.344318389892578,-1.2971477508544922,1.1641387939453125,2417.515384197235
D4:22:CD:00:05:5D,146.2806854248047,-65.03827667236328,-83.33514404296875,0.7057720422744751,-1.5906257629394531,-1.3666486740112305,2417.545385837555
D4:22:CD:00:05:6B,-21.90009117126465,-79.27873992919922,-108.66067504882812,-1.1142385005950928,5.358232498168945,-5.007469177246094,2417.545385837555
D4:22:CD:00:49:AA,159.81600952148438,-71.7244873046875,120.79816436767578,1.575376033782959,0.9056859016418457,-7.950159072875977,2417.545385837555
D4:22:CD:00:05:6E,69.21475982666016,64.9886245727539,155.3324737548828,9.025993347167969,-0.05641008913516998,-12.378885269165039,2417.545385837555
D4:22:CD:00:05:5E,-20.102365493774414,-73.68594360351562,172.92404174804688,-5.002834320068359,-3.5454955101013184,3.9122419357299805,2417.545385837555
D4:22:CD:00:05:5D,116.97581481933594,-80.45632934570312,-51.604244232177734,5.816917419433594,1.787266731262207,9.266939163208008,2417.5753858089447
D4:22:CD:00:05:6B,-10.994795799255371,-81.2079086303711,-120.8907699584961,-0.03711342811584473,4.984925270080566,-5.230508804321289,2417.5753858089447
D4:22:CD:00:49:AA,155.1139373779297,-72.38873291015625,122.83137512207031,1.7975223064422607,-1.346024990081787,-3.4206643104553223,2417.5753858089447
D4:22:CD:00:05:6E,54.38864517211914,66.62532043457031,131.10903930664062,-5.6608076095581055,2.2930655479431152,-8.002017974853516,2417.5753858089447
D4:22:CD:00:05:5E,-25.88777732849121,-73.5912857055664,176.5403289794922,-6.514988899230957,0.7130024433135986,4.09067440032959,2417.5753858089447
D4:22:CD:00:05:5D,25.085052490234375,-76.76850891113281,47.336631774902344,11.841033935546875,22.22834014892578,27.806217193603516,2417.60493016243
D4:22:CD:00:05:6B,0.32024991512298584,-82.14862823486328,-133.1883544921875,0.8193440437316895,4.087698936462402,-3.887371063232422,2417.60493016243
D4:22:CD:00:49:AA,153.20465087890625,-73.17420959472656,124.74544525146484,-2.3230605125427246,-2.017463207244873,-0.2798299789428711,2417.60493016243
D4:22:CD:00:05:6E,32.03626251220703,62.1803092956543,99.1756591796875,-2.2688674926757812,-2.445789337158203,-15.029434204101562,2417.60493016243
D4:22:CD:00:05:5E,-22.292997360229492,-70.90138244628906,173.9066162109375,-7.581938743591309,-1.907914161682129,6.956258773803711,2417.60493016243
D4:22:CD:00:05:5D,14.70038890838623,-69.05882263183594,59.617408752441406,-9.200002670288086,32.50384521484375,-25.02271270751953,2417.6349301338196
D4:22:CD:00:05:6B,9.446399688720703,-82.90113067626953,-144.95774841308594,0.9465359449386597,2.6055855751037598,-2.128823757171631,2417.6349301338196
D4:22:CD:00:49:AA,157.54383850097656,-74.73900604248047,124.12384033203125,2.0938668251037598,-0.36897897720336914,-0.5189018249511719,2417.6349301338196
D4:22:CD:00:05:6E,23.301450729370117,50.92303466796875,76.90769958496094,-9.986915588378906,5.031966209411621,-14.073400497436523,2417.6349301338196
D4:22:CD:00:05:5E,-17.89797592163086,-66.80988311767578,172.9818115234375,-4.0737104415893555,-2.5758228302001953,-2.4675841331481934,2417.6349301338196
D4:22:CD:00:05:5D,17.091827392578125,-73.61481475830078,51.41641616821289,22.047481536865234,16.92870330810547,-10.701324462890625,2417.6649317741394
D4:22:CD:00:05:6B,18.12818145751953,-84.97360229492188,-158.95530700683594,0.15494239330291748,3.914339542388916,3.305962562561035,2417.6649317741394
D4:22:CD:00:49:AA,167.94456481933594,-74.55716705322266,116.26707458496094,13.639724731445312,3.4940600395202637,10.805709838867188,2417.6649317741394
D4:22:CD:00:05:6E,20.54977798461914,37.959354400634766,66.36349487304688,-3.3152761459350586,-0.008617345243692398,-13.951082229614258,2417.6649317741394
D4:22:CD:00:05:5E,-20.756908416748047,-65.3721694946289,-179.7388916015625,-2.9186816215515137,-7.028036117553711,0.47978878021240234,2417.6649317741394
D4:22:CD:00:05:5D,85.9391860961914,-80.78629302978516,-10.069847106933594,18.95077896118164,10.220632553100586,16.165515899658203,2417.6949360370636
D4:22:CD:00:05:6B,57.88859939575195,-86.95445251464844,159.92727661132812,-0.3397035598754883,7.676682472229004,7.067594528198242,2417.6949360370636
D4:22:CD:00:49:AA,171.0929412841797,-74.51432037353516,112.56378173828125,6.746268272399902,0.737811803817749,2.377985954284668,2417.6949360370636
D4:22:CD:00:05:6E,22.9948673248291,26.15005874633789,60.22970962524414,0.25239819288253784,0.1381811499595642,-3.6046833992004395,2417.6949360370636
D4:22:CD:00:05:5E,-25.07414436340332,-67.15184020996094,-165.90219116210938,-22.849079132080078,-0.4297642111778259,2.5536327362060547,2417.6949360370636
D4:22:CD:00:05:5D,134.91798400878906,-76.41715240478516,-53.18539810180664,-10.497072219848633,-26.89779281616211,5.91135311126709,2417.7254095077515
D4:22:CD:00:05:6B,112.51000213623047,-86.69151306152344,112.4522476196289,0.023039937019348145,3.7084341049194336,9.020740509033203,2417.7254095077515
D4:22:CD:00:49:AA,174.80014038085938,-73.30172729492188,110.96670532226562,-5.763916969299316,-5.432268142700195,2.0502796173095703,2417.7254095077515
D4:22:CD:00:05:6E,26.70448112487793,17.82541275024414,56.6678581237793,5.949612617492676,-4.416440963745117,2.0466175079345703,2417.7254095077515
D4:22:CD:00:05:5E,-56.38044357299805,-73.07891082763672,-131.2777099609375,-36.53422546386719,-8.323646545410156,1.0445480346679688,2417.7254095077515
D4:22:CD:00:05:5D,144.43994140625,-77.44862365722656,-64.20079803466797,10.918777465820312,-5.323367118835449,1.4039955139160156,2417.755415916443
D4:22:CD:00:05:6B,177.88780212402344,-87.1220703125,55.83124542236328,1.662675380706787,0.5019475221633911,6.828010559082031,2417.755415916443
D4:22:CD:00:49:AA,-179.31356811523438,-71.79155731201172,109.40119171142578,-5.138221740722656,-5.304670333862305,-2.0767006874084473,2417.755415916443
D4:22:CD:00:05:6E,34.646724700927734,13.489144325256348,54.81496047973633,10.769535064697266,-13.060714721679688,3.870791435241699,2417.755415916443
D4:22:CD:00:05:5E,-108.65156555175781,-72.00985717773438,-79.37071990966797,-12.380157470703125,-6.455645561218262,0.4331207275390625,2417.755415916443
D4:22:CD:00:05:5D,154.78436279296875,-77.10093688964844,-70.80825805664062,-12.206851959228516,-4.183696746826172,12.825494766235352,2417.814966440201
D4:22:CD:00:05:6B,-104.9775390625,-83.78038787841797,-10.883402824401855,-1.6223118305206299,2.5879549980163574,3.3249692916870117,2417.814966440201
D4:22:CD:00:49:AA,-173.11773681640625,-70.7919921875,108.56745910644531,-0.07868169248104095,1.706275224685669,-5.3489227294921875,2417.814966440201
D4:22:CD:00:05:6E,50.809600830078125,11.418487548828125,54.064998626708984,-6.451624870300293,-8.334793090820312,2.710874557495117,2417.814966440201
D4:22:CD:00:05:5E,-130.70948791503906,-65.30691528320312,-50.76905059814453,-2.3011951446533203,-4.599780082702637,-8.444011688232422,2417.814966440201
D4:22:CD:00:05:5D,164.82345581054688,-74.55045318603516,-75.5696029663086,-2.46867036819458,1.6827492713928223,-0.9820156097412109,2417.844965696335
D4:22:CD:00:05:6B,-73.8082046508789,-76.35481262207031,-27.513290405273438,1.2624831199645996,-5.793008804321289,1.5812492370605469,2417.844965696335
D4:22:CD:00:49:AA,-174.7288818359375,-69.8233413696289,110.88407897949219,4.667954444885254,9.446096420288086,-3.3900504112243652,2417.844965696335
D4:22:CD:00:05:6E,64.56037902832031,9.302290916442871,52.256004333496094,-11.49753189086914,-7.041955947875977,6.251424789428711,2417.844965696335
D4:22:CD:00:05:5E,-140.71385192871094,-57.69761276245117,-35.64388656616211,0.18202999234199524,-0.44245368242263794,-13.42474365234375,2417.844965696335
D4:22:CD:00:05:5D,167.50303649902344,-71.70710754394531,-77.62185668945312,-0.6652094125747681,-0.39885413646698,0.5561161041259766,2417.874970436096
D4:22:CD:00:05:6B,-61.563392639160156,-68.47383117675781,-29.99591064453125,1.1561810970306396,-4.6054229736328125,0.08640193939208984,2417.874970436096
D4:22:CD:00:49:AA,-179.19210815429688,-69.1325912475586,112.12207794189453,-2.425662040710449,-0.7573260068893433,1.7112483978271484,2417.874970436096
D4:22:CD:00:05:6E,70.65394592285156,6.7883620262146,47.98423385620117,-5.681530952453613,-8.733266830444336,6.4315032958984375,2417.874970436096
D4:22:CD:00:05:5E,-147.83287048339844,-50.722938537597656,-26.373788833618164,0.053488798439502716,1.8176658153533936,-15.651851654052734,2417.874970436096
D4:22:CD:00:05:5D,169.5965576171875,-68.84632873535156,-78.8234634399414,0.37604379653930664,1.4939279556274414,0.7057685852050781,2417.9055156707764
D4:22:CD:00:05:6B,-56.630393981933594,-62.87556838989258,-31.319913864135742,1.6159899234771729,-6.07503604888916,-1.682647705078125,2417.9055156707764
D4:22:CD:00:49:AA,179.6363067626953,-68.23429870605469,112.5884017944336,-7.789778709411621,0.6603193283081055,5.227839469909668,2417.9055156707764
D4:22:CD:00:05:6E,77.95953369140625,2.987736463546753,44.27170181274414,-1.0460963249206543,-9.496416091918945,-6.104159355163574,2417.9055156707764
D4:22:CD:00:05:5E,-155.37074279785156,-45.9442253112793,-19.693613052368164,-0.061577990651130676,1.6049220561981201,-14.461669921875,2417.9055156707764
D4:22:CD:00:05:5D,171.75155639648438,-66.64256286621094,-79.40918731689453,0.6426808834075928,1.3729307651519775,1.0693292617797852,2417.935516834259
D4:22:CD:00:05:6B,-55.513511657714844,-59.979881286621094,-33.6635627746582,0.9511313438415527,-4.239851951599121,-0.18964862823486328,2417.935516834259
D4:22:CD:00:49:AA,179.1339569091797,-68.62487030029297,113.78590393066406,-4.645376205444336,1.4488344192504883,5.433980941772461,2417.935516834259
D4:22:CD:00:05:6E,89.33277130126953,-3.3909242153167725,41.13371658325195,-5.612761497497559,2.321155071258545,9.007303237915039,2417.935516834259
D4:22:CD:00:05:5E,-163.79835510253906,-44.76634979248047,-14.12147045135498,-0.42148494720458984,2.8001084327697754,-10.1834716796875,2417.935516834259
D4:22:CD:00:05:5D,173.1460723876953,-65.40888977050781,-79.18653106689453,-0.06996782124042511,1.0910964012145996,1.3753271102905273,2417.9655117988586
D4:22:CD:00:05:6B,-57.121028900146484,-59.278194427490234,-36.307289123535156,-0.46694546937942505,-1.1489319801330566,2.2348031997680664,2417.9655117988586
D4:22:CD:00:49:AA,178.8245086669922,-69.67705535888672,114.68561553955078,-2.9065723419189453,3.1819586753845215,4.2199554443359375,2417.9655117988586
D4:22:CD:00:05:6E,93.62657165527344,-11.665512084960938,36.6041259765625,3.201507568359375,-1.180053472518921,-0.08903217315673828,2417.9655117988586
D4:22:CD:00:05:5E,-169.7482147216797,-48.30469512939453,-8.293734550476074,3.313739776611328,2.967479705810547,-7.056537628173828,2417.9655117988586
D4:22:CD:00:05:5D,174.09033203125,-64.95159912109375,-78.98938751220703,-1.0765013694763184,0.6512670516967773,0.986699104309082,2417.9955303668976
D4:22:CD:00:05:6B,-58.91510009765625,-59.83991622924805,-38.892765045166016,-2.8132381439208984,0.27982771396636963,2.9690771102905273,2417.9955303668976
D4:22:CD:00:49:AA,176.29518127441406,-70.72427368164062,116.91700744628906,-2.387248992919922,2.8301730155944824,3.103973388671875,2417.9955303668976
D4:22:CD:00:05:6E,103.39266967773438,-21.327852249145508,34.155025482177734,5.982972145080566,3.8498806953430176,4.592041969299316,2417.9955303668976
D4:22:CD:00:05:5E,-171.87152099609375,-56.983360290527344,-1.6107131242752075,6.907355308532715,0.962504506111145,-2.582439422607422,2417.9955303668976
D4:22:CD:00:05:5D,175.0542755126953,-65.53761291503906,-80.30799865722656,-0.8188128471374512,0.08016827702522278,0.5861272811889648,2418.025049686432
D4:22:CD:00:05:6B,-59.77423858642578,-60.84769058227539,-42.2884635925293,-2.3385391235351562,1.847529649734497,1.6482915878295898,2418.025049686432
D4:22:CD:00:49:AA,172.78179931640625,-71.56988525390625,119.8022689819336,-1.6662540435791016,0.7860280275344849,0.07193946838378906,2418.025049686432
D4:22:CD:00:05:6E,109.82415771484375,-31.859479904174805,33.68959426879883,0.8279943466186523,-0.7615596055984497,5.592058181762695,2418.025049686432
D4:22:CD:00:05:5E,-177.5731658935547,-67.90353393554688,7.5943193435668945,8.9774169921875,-0.7239770889282227,2.514277458190918,2418.025049686432
D4:22:CD:00:05:5D,175.67259216308594,-67.15084838867188,-82.50164794921875,-0.7256718873977661,0.2058274745941162,0.355804443359375,2418.0550496578217
D4:22:CD:00:05:6B,-60.94184494018555,-61.52372741699219,-46.560245513916016,-3.2591137886047363,2.4920568466186523,-0.5407438278198242,2418.0550496578217
D4:22:CD:00:49:AA,169.51507568359375,-71.5670166015625,122.32122039794922,-1.6403021812438965,1.1810250282287598,-3.2042016983032227,2418.0550496578217
D4:22:CD:00:05:6E,108.4173355102539,-46.26298904418945,32.89803695678711,3.3857922554016113,3.6001229286193848,3.4436864852905273,2418.0550496578217
D4:22:CD:00:05:5E,155.4839324951172,-77.16120910644531,33.59763717651367,-4.137102127075195,-3.0990419387817383,7.349252700805664,2418.0550496578217
D4:22:CD:00:05:5D,175.8069610595703,-68.43035125732422,-83.56058502197266,1.786071538925171,-0.08819451928138733,0.03042316436767578,2418.114609003067
D4:22:CD:00:05:6B,-59.99188232421875,-61.767921447753906,-52.71882247924805,-0.5527975559234619,2.8261265754699707,-4.335841178894043,2418.114609003067
D4:22:CD:00:49:AA,165.41085815429688,-71.17294311523438,125.82096862792969,-1.4644770622253418,0.33314234018325806,-3.3117098808288574,2418.114609003067
D4:22:CD:00:05:6E,98.99481964111328,-61.451820373535156,31.952560424804688,3.277400493621826,0.32125425338745117,14.423748016357422,2418.114609003067
D4:22:CD:00:05:5E,122.262451171875,-77.83180236816406,65.53429412841797,-13.936910629272461,8.93301010131836,21.39175033569336,2418.114609003067
