Device,EulerX,EulerY,EulerZ,FreeAccX,FreeAccY,FreeAccZ,Timestamp
D4:22:CD:00:05:5D,175.76287841796875,-68.98719024658203,-82.82352447509766,1.8994078636169434,-0.8203880786895752,-0.9199495315551758,2420.0810050964355
D4:22:CD:00:05:6B,-56.321781158447266,-61.01674270629883,-63.64194107055664,-0.48993396759033203,7.03460693359375,-3.049806594848633,2420.0810050964355
D4:22:CD:00:49:AA,160.14361572265625,-70.56066131591797,130.42181396484375,-0.7524656057357788,0.5239894390106201,-3.665569305419922,2420.0810050964355
D4:22:CD:00:05:6E,85.48092651367188,-68.70671844482422,31.479177474975586,1.5777146816253662,2.8906712532043457,1.137120246887207,2420.0810050964355
D4:22:CD:00:05:5E,117.59730529785156,-78.6637191772461,70.06301879882812,-0.6330777406692505,5.431699752807617,0.45542430877685547,2420.0810050964355
D4:22:CD:00:05:5D,175.12841796875,-68.28645324707031,-80.24663543701172,0.5046712160110474,-3.0107598304748535,-1.185999870300293,2420.0850031375885
D4:22:CD:00:05:6B,-50.13036346435547,-58.8166389465332,-75.39984130859375,-1.4301667213439941,2.631862163543701,-7.005173683166504,2420.0850031375885
D4:22:CD:00:49:AA,154.79478454589844,-69.75982666015625,134.9670867919922,1.1752526760101318,-0.5318372249603271,-5.123169898986816,2420.0850031375885
D4:22:CD:00:05:6E,89.83745574951172,-67.74512481689453,24.270164489746094,18.224071502685547,-2.5101075172424316,0.4007129669189453,2420.0850031375885
D4:22:CD:00:05:5E,139.54400634765625,-77.6429672241211,44.177127838134766,-3.607180118560791,1.231963872909546,8.443252563476562,2420.0850031375885
D4:22:CD:00:05:5D,174.15023803710938,-66.11933135986328,-77.04271697998047,1.0492615699768066,-1.9612460136413574,-2.643939971923828,2420.088020324707
D4:22:CD:00:05:6B,-46.639339447021484,-55.0059928894043,-84.24880981445312,-0.9636503458023071,4.35075569152832,-4.5737457275390625,2420.088020324707
D4:22:CD:00:49:AA,148.13404846191406,-69.3183822631836,140.49240112304688,3.0194530487060547,0.28765106201171875,-3.542994499206543,2420.088020324707
D4:22:CD:00:05:6E,97.25493621826172,-65.91243743896484,26.40401840209961,4.673405647277832,4.766707420349121,8.247438430786133,2420.088020324707
D4:22:CD:00:05:5E,171.67807006835938,-71.17130279541016,8.888054847717285,2.2252845764160156,2.615988254547119,24.49591827392578,2420.088020324707
D4:22:CD:00:05:6B,-47.8393669128418,-48.8046875,-89.77277374267578,-1.4154324531555176,8.701286315917969,-3.607776165008545,2420.0910770893097
D4:22:CD:00:49:AA,142.41761779785156,-70.02506256103516,145.30194091796875,-1.200549602508545,-1.627549648284912,1.4679174423217773,2420.0910770893097
D4:22:CD:00:05:5E,-167.35317993164062,-59.983978271484375,-5.256708145141602,5.499869346618652,-7.90611457824707,28.949203491210938,2420.0910770893097
D4:22:CD:00:05:5D,-162.5071258544922,-76.99329376220703,-132.98284912109375,-1.5920393466949463,-1.9237439632415771,0.0807962417602539,2420.0921268463135
D4:22:CD:00:05:6B,-141.83258056640625,-60.34685134887695,-54.25938034057617,0.33020222187042236,-0.7577662467956543,-0.1281261444091797,2420.0921268463135
D4:22:CD:00:49:AA,176.60946655273438,-73.03227996826172,120.94584655761719,-4.806917190551758,1.8987417221069336,-2.6468729972839355,2420.0921268463135
D4:22:CD:00:05:6E,129.9534149169922,-18.75373649597168,-17.72642707824707,-0.06346158683300018,-13.672103881835938,21.640750885009766,2420.0921268463135
D4:22:CD:00:05:5D,-162.7630157470703,-78.15841674804688,-131.0025177001953,-0.3074031472206116,-4.164458274841309,-1.2486257553100586,2420.139660835266
D4:22:CD:00:05:6B,-139.49412536621094,-60.67417526245117,-63.50824737548828,-1.0677502155303955,-0.5817654132843018,-3.563119411468506,2420.139660835266
D4:22:CD:00:49:AA,-168.35362243652344,-77.51947021484375,106.45379638671875,-3.777407169342041,2.0979480743408203,-2.4188570976257324,2420.139660835266
D4:22:CD:00:05:6E,117.37261962890625,-28.82610321044922,-16.29972267150879,-0.9692013263702393,-10.068586349487305,19.015457153320312,2420.139660835266
D4:22:CD:00:05:5E,133.76019287109375,-35.234588623046875,-69.91417694091797,-2.874258041381836,-5.345417022705078,-9.822380065917969,2420.139660835266
D4:22:CD:00:05:5D,-163.82164001464844,-78.67804718017578,-125.51133728027344,3.4452128410339355,-5.747312545776367,-2.4875826835632324,2420.1706528663635
D4:22:CD:00:05:6B,-140.7615509033203,-60.349525451660156,-73.02179718017578,3.005746841430664,5.151653289794922,-3.553220272064209,2420.1706528663635
D4:22:CD:00:49:AA,-129.15223693847656,-81.8087387084961,67.71732330322266,1.3186626434326172,0.48764950037002563,-2.905733108520508,2420.1706528663635
D4:22:CD:00:05:6E,89.5277328491211,-43.5883903503418,-4.884407997131348,3.1472854614257812,-2.2490200996398926,5.098348617553711,2420.1706528663635
D4:22:CD:00:05:5E,121.85901641845703,-40.331024169921875,-63.96055603027344,1.7586352825164795,-8.556648254394531,-11.170263290405273,2420.1706528663635
D4:22:CD:00:05:5D,-164.5327606201172,-77.64308166503906,-119.55753326416016,6.553004264831543,-3.4065966606140137,-3.1534762382507324,2420.1996743679047
D4:22:CD:00:05:6B,-133.8938751220703,-59.38288879394531,-84.74861145019531,2.926514148712158,2.5949487686157227,-6.060576438903809,2420.1996743679047
D4:22:CD:00:49:AA,-117.61105346679688,-83.38333892822266,54.57761764526367,2.3246560096740723,-2.113058090209961,-3.035456657409668,2420.1996743679047
D4:22:CD:00:05:6E,67.77999114990234,-55.70558166503906,11.300666809082031,3.404873847961426,2.732377529144287,8.138158798217773,2420.1996743679047
D4:22:CD:00:05:5E,115.2122573852539,-48.56888198852539,-58.318302154541016,-3.615629196166992,-11.50650405883789,-5.769235610961914,2420.1996743679047
D4:22:CD:00:05:5D,-167.27294921875,-74.99915313720703,-110.65003204345703,2.382765293121338,-0.5276761054992676,-1.4221277236938477,2420.245202064514
D4:22:CD:00:05:6B,-125.97644805908203,-57.79478073120117,-97.13499450683594,1.1334972381591797,0.5688780546188354,-8.348682403564453,2420.245202064514
D4:22:CD:00:49:AA,-124.13169860839844,-84.87478637695312,58.513221740722656,0.7613635063171387,-1.2269694805145264,-4.745058059692383,2420.245202064514
D4:22:CD:00:05:6E,45.916500091552734,-64.25234985351562,27.845943450927734,-1.806328535079956,0.5429602861404419,5.507808685302734,2420.245202064514
D4:22:CD:00:05:5E,96.57579040527344,-56.4609489440918,-42.69348907470703,32.699195861816406,14.280460357666016,-4.5229997634887695,2420.245202064514
D4:22:CD:00:05:5D,-174.82139587402344,-71.0655746459961,-101.50171661376953,2.427790641784668,-2.2092862129211426,2.2293825149536133,2420.2752015590668
D4:22:CD:00:05:6B,-119.9097671508789,-55.55839538574219,-108.52944946289062,4.795949935913086,2.30324125289917,-6.3613128662109375,2420.2752015590668
D4:22:CD:00:49:AA,-142.71463012695312,-86.02674865722656,74.24429321289062,0.9809743165969849,-0.6159325838088989,-6.866545677185059,2420.2752015590668
D4:22:CD:00:05:6E,24.900230407714844,-67.36140441894531,37.045127868652344,-5.8395795822143555,-3.3751230239868164,-2.0718941688537598,2420.2752015590668
D4:22:CD:00:05:5E,111.99703979492188,-67.17962646484375,-58.23676681518555,-6.476543426513672,-6.987003326416016,1.150960922241211,2420.2752015590668
D4:22:CD:00:05:5D,179.104248046875,-65.82225036621094,-93.37342834472656,-6.13015079498291,-1.995490550994873,6.187837600708008,2420.3057436943054
D4:22:CD:00:05:6B,-114.61540985107422,-52.24660873413086,-117.82894897460938,8.285865783691406,1.3831062316894531,-4.792575836181641,2420.3057436943054
D4:22:CD:00:49:AA,-158.61769104003906,-87.73194885253906,88.70542907714844,-1.9171912670135498,-1.6532113552093506,-2.211726665496826,2420.3057436943054
D4:22:CD:00:05:6E,12.175300598144531,-65.36406707763672,38.56584930419922,14.824113845825195,-5.385499000549316,2.4348154067993164,2420.3057436943054
D4:22:CD:00:05:5E,123.8294448852539,-71.08222961425781,-80.60025024414062,5.7749834060668945,-18.067344665527344,0.18464088439941406,2420.3057436943054
D4:22:CD:00:05:5D,173.14414978027344,-60.07561111450195,-85.10578918457031,-6.878237724304199,1.0729076862335205,-2.6619415283203125,2420.334751367569
D4:22:CD:00:05:6B,-109.7105484008789,-46.074066162109375,-125.45914459228516,23.456222534179688,-1.8074607849121094,4.912626266479492,2420.334751367569
D4:22:CD:00:49:AA,-31.442476272583008,-88.80581665039062,-38.44525909423828,-1.1117749214172363,-3.669832229614258,-0.44719696044921875,2420.334751367569
D4:22:CD:00:05:6E,11.9939546585083,-62.48746109008789,43.35209274291992,10.921148300170898,1.48850679397583,2.8671188354492188,2420.334751367569
D4:22:CD:00:05:5E,144.36151123046875,-74.3846435546875,-104.45175170898438,-1.0311429500579834,-12.55171012878418,13.671260833740234,2420.334751367569
D4:22:CD:00:05:5D,171.8004913330078,-54.85206985473633,-77.68248748779297,-2.6785531044006348,9.328283309936523,-6.925561904907227,2420.364751815796
D4:22:CD:00:05:6B,-96.37136840820312,-36.19852066040039,-133.06259155273438,21.21481704711914,-9.979547500610352,8.073949813842773,2420.364751815796
D4:22:CD:00:49:AA,-5.282625675201416,-86.70069122314453,-63.45256042480469,4.290091514587402,1.2497642040252686,-4.378274917602539,2420.364751815796
D4:22:CD:00:05:6E,4.769920825958252,-61.70060348510742,49.7363166809082,7.725935935974121,5.813839912414551,6.237890243530273,2420.364751815796
D4:22:CD:00:05:5E,173.808837890625,-73.85868835449219,-130.25074768066406,-10.005456924438477,7.579133987426758,12.689996719360352,2420.364751815796
D4:22:CD:00:05:5D,173.3649444580078,-51.53824996948242,-73.4720230102539,10.133180618286133,3.6134748458862305,5.0747270584106445,2420.4102935791016
D4:22:CD:00:05:6B,-89.96295928955078,-19.354841232299805,-138.6759033203125,19.55872344970703,-10.507396697998047,24.357826232910156,2420.4102935791016
D4:22:CD:00:49:AA,12.644498825073242,-85.47783660888672,-80.22804260253906,-1.212554931640625,-2.4948010444641113,4.764126777648926,2420.4102935791016
D4:22:CD:00:05:6E,-4.750621318817139,-62.338748931884766,56.46291732788086,13.006425857543945,4.183587074279785,7.77735710144043,2420.4102935791016
D4:22:CD:00:05:5E,-171.8885040283203,-70.57403564453125,-138.708740234375,-14.581808090209961,1.3366405963897705,23.27478790283203,2420.4102935791016
D4:22:CD:00:05:5D,175.3030242919922,-50.83282470703125,-73.41106414794922,-0.3712024688720703,3.5619664192199707,0.7741775512695312,2420.440293073654
D4:22:CD:00:05:6B,-77.91822814941406,-0.2107391357421875,-141.20565795898438,2.390916347503662,-13.63829231262207,16.028839111328125,2420.440293073654
D4:22:CD:00:49:AA,17.19519805908203,-86.693115234375,-82.85347747802734,4.453271865844727,-7.132594108581543,6.4410858154296875,2420.440293073654
D4:22:CD:00:05:6E,-11.817483901977539,-62.152366638183594,66.26657104492188,4.480249404907227,14.045431137084961,6.921051025390625,2420.440293073654
D4:22:CD:00:05:5E,-163.69532775878906,-67.35718536376953,-141.33889770507812,-4.373551368713379,13.126876831054688,15.714208602905273,2420.440293073654
D4:22:CD:00:05:5D,177.23776245117188,-51.65971755981445,-73.41464233398438,-0.3779333233833313,0.1331111192703247,2.9234533309936523,2420.470293521881
D4:22:CD:00:05:6B,-62.45553207397461,16.364013671875,-142.44863891601562,-8.095922470092773,-15.218719482421875,6.819480895996094,2420.470293521881
D4:22:CD:00:49:AA,112.1593246459961,-89.51949310302734,-176.2814483642578,7.580691337585449,-2.8372607231140137,9.892913818359375,2420.470293521881
D4:22:CD:00:05:6E,-22.292682647705078,-60.32263946533203,80.46383666992188,-5.4421234130859375,19.46240997314453,5.641082763671875,2420.470293521881
D4:22:CD:00:05:5E,-169.57723999023438,-63.37448501586914,-138.3097686767578,-0.6135966777801514,0.4954066276550293,6.336051940917969,2420.470293521881
D4:22:CD:00:05:5D,179.21200561523438,-53.853885650634766,-73.98834228515625,-3.186812400817871,0.14424720406532288,3.5465822219848633,2420.50030708313
D4:22:CD:00:05:6B,-50.68283462524414,29.04867172241211,-141.97608947753906,-6.020999908447266,-11.552017211914062,5.296667098999023,2420.50030708313
D4:22:CD:00:49:AA,157.56446838378906,-87.66602325439453,138.2658233642578,0.031642280519008636,-2.1844592094421387,9.661493301391602,2420.50030708313
D4:22:CD:00:05:6E,-34.23627471923828,-56.97123718261719,98.5244369506836,-11.362646102905273,16.11846923828125,0.3514556884765625,2420.50030708313
D4:22:CD:00:05:5E,-173.29620361328125,-63.421775817871094,-134.93055725097656,7.851797103881836,1.5382695198059082,-0.7903223037719727,2420.50030708313
D4:22:CD:00:05:5D,-178.33450317382812,-57.2037353515625,-75.73303985595703,-5.657366752624512,-1.8475871086120605,5.53997802734375,2420.54482626915
D4:22:CD:00:05:6B,-42.70521926879883,38.45302963256836,-140.63632202148438,-7.588467597961426,-3.6241564750671387,8.376001358032227,2420.54482626915
D4:22:CD:00:49:AA,162.3516845703125,-86.96565246582031,135.2642059326172,-4.228475570678711,-3.1801867485046387,8.921014785766602,2420.54482626915
D4:22:CD:00:05:6E,-42.53709411621094,-52.8287239074707,114.84501647949219,-15.281599044799805,12.614654541015625,-0.09442806243896484,2420.54482626915
D4:22:CD:00:05:5E,-172.41213989257812,-67.4274673461914,-130.64903259277344,13.455562591552734,-0.3773609399795532,-4.166542053222656,2420.54482626915
D4:22:CD:00:05:5D,-176.1348876953125,-61.78023147583008,-78.6981430053711,-8.357563018798828,-5.348576545715332,6.221904754638672,2420.5748262405396
D4:22:CD:00:05:6B,-35.199623107910156,45.806724548339844,-138.64456176757812,-7.209952354431152,-1.2328932285308838,4.612940788269043,2420.5748262405396
D4:22:CD:00:49:AA,165.935546875,-86.85203552246094,135.24072265625,-2.216444969177246,-1.8543295860290527,7.216522216796875,2420.5748262405396
D4:22:CD:00:05:6E,-44.860897064208984,-50.86616897583008,126.2119140625,-16.122657775878906,5.033474922180176,-1.5140295028686523,2420.5748262405396
D4:22:CD:00:05:5E,-171.1089324951172,-72.9579849243164,-127.44134521484375,10.99526596069336,-1.536217451095581,-8.077930450439453,2420.5748262405396
D4:22:CD:00:05:5D,-176.26051330566406,-68.58102416992188,-81.84073638916016,-6.473483085632324,-6.627199172973633,0.4244050979614258,2420.6053619384766
D4:22:CD:00:05:6B,-26.15076446533203,52.170494079589844,-135.59979248046875,-10.061769485473633,0.32731056213378906,0.31421375274658203,2420.6053619384766
D4:22:CD:00:49:AA,176.53890991210938,-86.27143859863281,128.89712524414062,0.7944356203079224,-0.01348833553493023,3.35764217376709,2420.6053619384766
D4:22:CD:00:05:6E,-38.98874282836914,-49.99068832397461,131.23641967773438,-11.721607208251953,0.07034623622894287,-6.998357772827148,2420.6053619384766
D4:22:CD:00:05:5E,-167.88919067382812,-79.17790985107422,-128.4450225830078,7.922009468078613,-5.632835388183594,-9.544927597045898,2420.6053619384766
D4:22:CD:00:05:5D,179.48934936523438,-72.70587921142578,-75.21527099609375,3.844392776489258,3.372253894805908,-5.238847732543945,2420.635370016098
D4:22:CD:00:05:6B,-15.913442611694336,57.78700637817383,-133.2964630126953,-3.776480197906494,2.2875046730041504,-5.847082138061523,2420.635370016098
D4:22:CD:00:49:AA,-175.37582397460938,-85.44503784179688,123.99891662597656,4.012677192687988,1.5724880695343018,-1.797072410583496,2420.635370016098
D4:22:CD:00:05:6E,-28.039291381835938,-49.353885650634766,131.17337036132812,-4.81944465637207,-2.7559547424316406,-11.120624542236328,2420.635370016098
D4:22:CD:00:05:5E,-137.41883850097656,-86.27201843261719,-158.13888549804688,5.184769630432129,-8.153963088989258,-10.00457763671875,2420.635370016098
D4:22:CD:00:05:5D,164.19418334960938,-76.3191909790039,-61.344783782958984,-5.672547340393066,-2.912041664123535,-3.714137554168701,2420.665370464325
D4:22:CD:00:05:6B,-6.95514440536499,62.92313766479492,-135.51316833496094,-5.188693046569824,0.08020806312561035,-9.413238525390625,2420.665370464325
D4:22:CD:00:49:AA,-171.55792236328125,-85.5968246459961,120.93720245361328,4.202441215515137,2.7288732528686523,-6.940716743469238,2420.665370464325
D4:22:CD:00:05:6E,-14.05911922454834,-48.20918655395508,127.88715362548828,-3.2775440216064453,-2.8834171295166016,-11.99294662475586,2420.665370464325
D4:22:CD:00:05:5E,-31.196975708007812,-82.6759262084961,95.16757202148438,1.382861614227295,-3.2637786865234375,-12.14311408996582,2420.665370464325
D4:22:CD:00:05:5D,139.18788146972656,-79.99443054199219,-40.868743896484375,19.148956298828125,-0.5756884813308716,-8.394216537475586,2420.709909915924
D4:22:CD:00:05:6B,-4.491873741149902,68.43155670166016,-152.290283203125,0.7113347053527832,-1.3532021045684814,-10.107229232788086,2420.709909915924
D4:22:CD:00:49:AA,-162.42308044433594,-86.41570281982422,111.1186294555664,-0.5741770267486572,2.1368680000305176,-9.560836791992188,2420.709909915924
D4:22:CD:00:05:6E,-1.035368800163269,-46.008052825927734,123.6213150024414,-5.01661491394043,-3.562671184539795,-11.258930206298828,2420.709909915924
D4:22:CD:00:05:5E,-18.819002151489258,-73.77836608886719,79.73269653320312,-1.841268539428711,2.7153868675231934,-11.849729537963867,2420.709909915924
D4:22:CD:00:05:5D,131.58351135253906,-80.79940032958984,-25.355138778686523,7.625415802001953,14.662359237670898,-5.045638084411621,2420.7399094104767
D4:22:CD:00:05:6B,-19.595504760742188,69.12576293945312,173.38076782226562,10.959117889404297,-8.915245056152344,-9.194677352905273,2420.7399094104767
D4:22:CD:00:49:AA,-126.94815063476562,-87.32350158691406,76.87592315673828,-2.849209785461426,-1.2609889507293701,-9.753864288330078,2420.7399094104767
D4:22:CD:00:05:6E,8.857694625854492,-43.12429428100586,119.37401580810547,-4.877459526062012,-3.248077869415283,-8.522741317749023,2420.7399094104767
D4:22:CD:00:05:5E,-18.73135757446289,-64.66915130615234,72.33888244628906,-1.4283223152160645,12.608489990234375,-9.093629837036133,2420.7399094104767
D4:22:CD:00:05:5D,135.80172729492188,-79.19170379638672,-24.536569595336914,2.7170639038085938,5.8285322189331055,-7.0030517578125,2420.7699134349823
D4:22:CD:00:05:6B,-42.557037353515625,59.937294006347656,149.2740936279297,3.2151308059692383,-6.1128435134887695,-18.350955963134766,2420.7699134349823
D4:22:CD:00:49:AA,-79.76615905761719,-86.53270721435547,33.01332473754883,-0.03908015042543411,-1.0421013832092285,-8.78441047668457,2420.7699134349823
D4:22:CD:00:05:6E,15.565376281738281,-40.627967834472656,115.9099349975586,-5.124368667602539,-3.814943313598633,-6.210841178894043,2420.7699134349823
D4:22:CD:00:05:5E,-26.70887565612793,-56.5316047668457,67.65496826171875,7.830501556396484,20.679119110107422,-8.295581817626953,2420.7699134349823
D4:22:CD:00:05:5D,140.32568359375,-77.59211730957031,-29.461692810058594,4.109964370727539,0.578676700592041,-1.6968488693237305,2420.7999291419983
D4:22:CD:00:05:6B,-62.266326904296875,45.415138244628906,137.4542694091797,-12.385175704956055,15.406091690063477,-23.858291625976562,2420.7999291419983
D4:22:CD:00:49:AA,-64.38040161132812,-85.4568862915039,19.61252212524414,3.051126003265381,-0.40046095848083496,-5.073239326477051,2420.7999291419983
D4:22:CD:00:05:6E,18.480009078979492,-39.12317657470703,113.53948211669922,-7.322572708129883,-1.011838436126709,-3.244422435760498,2420.7999291419983
D4:22:CD:00:05:5E,-38.92136764526367,-52.5462646484375,66.86468505859375,7.311327934265137,23.596233367919922,-19.55364990234375,2420.7999291419983
D4:22:CD:00:05:5D,143.40850830078125,-75.7064208984375,-30.594730377197266,-0.5618610382080078,-2.4527645111083984,3.101181983947754,2420.845552921295
D4:22:CD:00:05:6B,-72.62055969238281,29.11252784729004,131.27391052246094,-9.002782821655273,25.46595001220703,-15.379692077636719,2420.845552921295
D4:22:CD:00:49:AA,-46.99687194824219,-84.81424713134766,3.799926280975342,-2.2652578353881836,-2.497739791870117,0.35784435272216797,2420.845552921295
D4:22:CD:00:05:6E,18.66182518005371,-38.80299377441406,112.38807678222656,-6.590337753295898,-0.3973847031593323,-3.0271754264831543,2420.845552921295
D4:22:CD:00:05:5E,-45.2437858581543,-55.360572814941406,66.84461975097656,14.3282470703125,19.66146469116211,-17.075729370117188,2420.845552921295
D4:22:CD:00:05:5D,143.3258819580078,-74.18000793457031,-29.071826934814453,-0.6106748580932617,-2.2969179153442383,5.337656021118164,2420.875552892685
D4:22:CD:00:05:6B,-72.92210388183594,26.69166374206543,130.473388671875,4.459440231323242,-10.305442810058594,-9.608985900878906,2420.875552892685
D4:22:CD:00:49:AA,-33.91513442993164,-83.39681243896484,-10.098196983337402,-1.5289721488952637,-1.5883173942565918,-0.5229644775390625,2420.875552892685
D4:22:CD:00:05:6E,17.606658935546875,-39.874855041503906,112.4404525756836,-6.845584869384766,0.29344654083251953,-1.8035917282104492,2420.875552892685
D4:22:CD:00:05:5E,-49.76739501953125,-62.207881927490234,70.35736083984375,7.94594669342041,12.087944030761719,5.2040510177612305,2420.875552892685
D4:22:CD:00:05:5D,140.4134063720703,-72.99274444580078,-25.03756332397461,0.21779167652130127,0.3481431007385254,3.7884531021118164,2420.9051003456116
D4:22:CD:00:05:6B,-72.05645751953125,35.316097259521484,137.21347045898438,-7.681000709533691,12.274147033691406,6.804628372192383,2420.9051003456116
D4:22:CD:00:49:AA,-28.974035263061523,-83.21556854248047,-15.815579414367676,-0.7778317928314209,-2.4080376625061035,0.7680673599243164,2420.9051003456116
D4:22:CD:00:05:6E,15.213493347167969,-42.39388656616211,113.15309143066406,-9.346395492553711,3.508389472961426,1.7355241775512695,2420.9051003456116
D4:22:CD:00:05:5E,-41.614723205566406,-65.96597290039062,69.36398315429688,-17.15365219116211,3.172610282897949,3.8889312744140625,2420.9051003456116
D4:22:CD:00:05:5D,133.54168701171875,-72.48733520507812,-20.596155166625977,-2.027866840362549,-1.268183946609497,4.6563520431518555,2420.935099840164
D4:22:CD:00:05:6B,-55.852169036865234,44.56425094604492,152.18984985351562,-3.9462456703186035,12.175956726074219,-17.712562561035156,2420.935099840164
D4:22:CD:00:49:AA,-19.280120849609375,-83.40138244628906,-26.731945037841797,-3.0377516746520996,-3.864072322845459,5.197229385375977,2420.935099840164
D4:22:CD:00:05:6E,11.270256996154785,-45.72254943847656,112.4825210571289,-9.264022827148438,7.431295394897461,5.688566207885742,2420.935099840164
D4:22:CD:00:05:5E,-34.59939956665039,-68.44757843017578,64.77188873291016,12.262121200561523,-6.79765510559082,15.86699104309082,2420.935099840164
D4:22:CD:00:05:5D,124.96067810058594,-71.87061309814453,-15.244994163513184,2.5926337242126465,-0.8725913763046265,2.5217323303222656,2420.965099811554
D4:22:CD:00:05:6B,-39.76021957397461,48.44645690917969,174.14111328125,-3.507007598876953,4.166925430297852,-5.648836135864258,2420.965099811554
D4:22:CD:00:49:AA,-8.420600891113281,-83.90995788574219,-40.64992904663086,1.3401477336883545,-0.29083847999572754,0.39440250396728516,2420.965099811554
D4:22:CD:00:05:6E,8.559957504272461,-49.4400634765625,108.82454681396484,-4.905957221984863,9.10677719116211,1.8162384033203125,2420.965099811554
D4:22:CD:00:05:5E,-40.26681137084961,-71.99555969238281,66.4647216796875,1.6719045639038086,2.0639586448669434,5.112903594970703,2420.965099811554
D4:22:CD:00:05:5D,113.09058380126953,-71.84082794189453,-8.813997268676758,3.423215866088867,-0.5294914245605469,-0.18573856353759766,2420.9951224327087
D4:22:CD:00:05:6B,-26.37323760986328,45.42155838012695,-166.05032348632812,3.410801410675049,3.1701626777648926,-4.846745491027832,2420.9951224327087
D4:22:CD:00:49:AA,1.988643765449524,-85.34326934814453,-54.37941360473633,4.38435173034668,-1.0961658954620361,1.9982185363769531,2420.9951224327087
D4:22:CD:00:05:6E,5.607309818267822,-53.84889602661133,104.34759521484375,-2.970890998840332,8.526876449584961,1.9168939590454102,2420.9951224327087
D4:22:CD:00:05:5E,-27.261171340942383,-73.11283111572266,54.27070999145508,1.780029058456421,2.90708065032959,-4.173469543457031,2420.9951224327087
D4:22:CD:00:05:5D,106.91783142089844,-70.2663345336914,-11.76941967010498,5.02910041809082,11.352169036865234,0.5563440322875977,2421.0396502017975
D4:22:CD:00:05:6B,-19.006858825683594,37.38639831542969,-150.56268310546875,2.516791820526123,6.367615699768066,-5.527758598327637,2421.0396502017975
D4:22:CD:00:49:AA,2.811378240585327,-88.0788803100586,-60.12668991088867,7.7117509841918945,-3.273796558380127,4.944025993347168,2421.0396502017975
D4:22:CD:00:05:6E,2.425952911376953,-57.27641677856445,99.96803283691406,-1.0235559940338135,3.892603874206543,-1.242354393005371,2421.0396502017975
D4:22:CD:00:05:5E,-15.666555404663086,-73.14876556396484,44.81978988647461,-0.27479439973831177,9.986095428466797,0.47655487060546875,2421.0396502017975
D4:22:CD:00:05:5D,112.73546600341797,-66.9038314819336,-28.06871223449707,9.776683807373047,23.648365020751953,6.57969856262207,2421.06964969635
D4:22:CD:00:05:6B,-16.492717742919922,25.426555633544922,-138.63815307617188,7.548815727233887,-5.678093910217285,-3.933600425720215,2421.06964969635
D4:22:CD:00:49:AA,-178.36402893066406,-89.4952621459961,117.20328521728516,5.5759477615356445,1.2032344341278076,-2.7055907249450684,2421.06964969635
D4:22:CD:00:05:6E,1.3996299505233765,-59.2839469909668,96.47409057617188,-0.13436809182167053,5.180170059204102,-5.765320777893066,2421.06964969635
D4:22:CD:00:05:5E,-13.77077865600586,-73.76013946533203,40.73236083984375,2.0619726181030273,3.247347831726074,-1.4176607131958008,2421.06964969635
D4:22:CD:00:05:5D,125.77883911132812,-60.167457580566406,-49.12763214111328,10.97528076171875,12.28803825378418,5.682390213012695,2421.099664926529
D4:22:CD:00:05:6B,-30.448074340820312,12.799474716186523,-129.07135009765625,19.227069854736328,-8.485698699951172,-20.078479766845703,2421.099664926529
D4:22:CD:00:49:AA,-178.95445251464844,-87.57925415039062,113.46165466308594,5.031180381774902,0.1059643030166626,-2.3199357986450195,2421.099664926529
D4:22:CD:00:05:6E,1.520703911781311,-59.89749526977539,95.53904724121094,-1.7683160305023193,6.424567222595215,-3.8042140007019043,2421.099664926529
D4:22:CD:00:05:5E,-9.978431701660156,-74.31678009033203,35.997581481933594,2.822239398956299,1.9840693473815918,0.44263744354248047,2421.099664926529
D4:22:CD:00:05:5D,136.26109313964844,-51.39273452758789,-66.61604309082031,8.254234313964844,2.918611526489258,-0.07861137390136719,2421.146204471588
D4:22:CD:00:05:6B,-51.522003173828125,2.101198196411133,-122.3852310180664,-6.474053382873535,-5.3988542556762695,17.371204376220703,2421.146204471588
D4:22:CD:00:49:AA,-172.39236450195312,-85.69456481933594,103.97047424316406,-2.705768585205078,0.3341885209083557,1.3258171081542969,2421.146204471588
D4:22:CD:00:05:6E,1.7165039777755737,-59.28607177734375,96.5133056640625,-2.760915756225586,7.426237106323242,-4.1656341552734375,2421.146204471588
D4:22:CD:00:05:5E,-5.973821640014648,-74.67688751220703,32.94987869262695,0.8437505960464478,2.503678321838379,-1.2745904922485352,2421.146204471588
D4:22:CD:00:05:5D,145.01205444335938,-42.0539436340332,-79.78074645996094,4.444279670715332,-3.8396430015563965,-7.277797698974609,2421.1751980781555
D4:22:CD:00:05:6B,-55.02149963378906,-5.990805149078369,-118.72098541259766,6.386501312255859,-3.508842945098877,7.921968460083008,2421.1751980781555
D4:22:CD:00:49:AA,-173.23495483398438,-84.80484008789062,103.91356658935547,-1.525172233581543,1.7077059745788574,-0.39858150482177734,2421.1751980781555
D4:22:CD:00:05:6E,4.096358299255371,-58.7733154296875,97.43354797363281,-2.812753200531006,5.210926055908203,-3.966892719268799,2421.1751980781555
D4:22:CD:00:05:5E,-5.195712566375732,-75.81631469726562,34.32585906982422,-0.3989386558532715,2.5398716926574707,-1.754807472229004,2421.1751980781555
D4:22:CD:00:05:5D,153.41102600097656,-33.59089660644531,-89.30744934082031,0.5745410919189453,-3.275618076324463,-12.967166900634766,2421.2047414779663
D4:22:CD:00:05:6B,-61.117122650146484,-11.867385864257812,-114.84162902832031,3.4744272232055664,-1.3877170085906982,2.1825199127197266,2421.2047414779663
D4:22:CD:00:49:AA,-173.98410034179688,-83.93910217285156,104.37940216064453,3.206852436065674,0.8326025009155273,-1.248697280883789,2421.2047414779663
D4:22:CD:00:05:6E,9.398635864257812,-58.931922912597656,96.96334838867188,-2.698617935180664,1.9224276542663574,-3.627187728881836,2421.2047414779663
D4:22:CD:00:05:5E,-9.188179016113281,-78.61045837402344,40.55299758911133,-4.3522186279296875,8.373830795288086,-3.9417920112609863,2421.2047414779663
D4:22:CD:00:05:5D,161.11663818359375,-27.243247985839844,-97.61990356445312,-1.9418919086456299,-1.4228713512420654,-12.040742874145508,2421.2347407341003
D4:22:CD:00:05:6B,-69.85950469970703,-17.550424575805664,-110.0063247680664,0.013335317373275757,-0.655121922492981,-0.2957925796508789,2421.2347407341003
D4:22:CD:00:49:AA,-174.89637756347656,-83.2162094116211,104.99714660644531,2.208425998687744,-0.3127216100692749,-3.558842658996582,2421.2347407341003
D4:22:CD:00:05:6E,18.887983322143555,-58.52139663696289,92.47100830078125,-11.967378616333008,-4.189081192016602,-1.5190906524658203,2421.2347407341003
D4:22:CD:00:05:5E,-19.490249633789062,-82.06729125976562,51.40091323852539,2.7597012519836426,3.4378533363342285,-1.2375202178955078,2421.2347407341003
D4:22:CD:00:05:5D,163.9622039794922,-24.027969360351562,-105.98777770996094,-4.015078544616699,-2.611825466156006,-11.015897750854492,2421.264749288559
D4:22:CD:00:05:6B,-75.02812957763672,-25.826068878173828,-104.4859848022461,-1.3100452423095703,-2.5190176963806152,-1.335662841796875,2421.264749288559
D4:22:CD:00:49:AA,-178.71182250976562,-82.99459075927734,108.23533630371094,0.33760935068130493,0.8041408061981201,-7.558545112609863,2421.264749288559
D4:22:CD:00:05:6E,28.11640167236328,-55.16634750366211,81.70600128173828,-11.636898040771484,-3.1691246032714844,2.914565086364746,2421.264749288559
D4:22:CD:00:05:5E,-45.31623458862305,-85.14873504638672,77.93122100830078,1.049224853515625,4.128605842590332,-2.044966220855713,2421.264749288559
D4:22:CD:00:05:5D,161.29486083984375,-23.700475692749023,-113.97806549072266,-5.4793291091918945,-2.9765090942382812,-10.20623779296875,2421.3092942237854
D4:22:CD:00:05:6B,-71.34374237060547,-38.867801666259766,-99.30743408203125,-2.1815834045410156,-12.508745193481445,12.481048583984375,2421.3092942237854
D4:22:CD:00:49:AA,-177.95242309570312,-82.79865264892578,106.07147216796875,2.2383008003234863,1.4136886596679688,-5.108000755310059,2421.3092942237854
D4:22:CD:00:05:6E,36.608848571777344,-48.35710525512695,67.19044494628906,-11.207525253295898,5.626148223876953,2.2146835327148438,2421.3092942237854
D4:22:CD:00:05:5E,-110.13628387451172,-85.13296508789062,141.86395263671875,1.4289581775665283,6.288622856140137,-2.1443920135498047,2421.3092942237854
D4:22:CD:00:05:5D,157.30966186523438,-26.359251022338867,-120.53424835205078,-3.254931926727295,-7.921037673950195,0.4567289352416992,2421.3402936458588
D4:22:CD:00:05:6B,-48.9668083190918,-52.66985321044922,-103.10948944091797,-8.38375473022461,-26.35128402709961,23.772750854492188,2421.3402936458588
D4:22:CD:00:49:AA,-168.47561645507812,-83.57755279541016,95.40763854980469,3.2445201873779297,4.051050186157227,0.9789180755615234,2421.3402936458588
D4:22:CD:00:05:6E,37.57636642456055,-39.4250602722168,52.63982009887695,-13.255672454833984,-0.4990454316139221,11.182003021240234,2421.3402936458588
D4:22:CD:00:05:5E,-139.45849609375,-80.2662124633789,169.40191650390625,3.2451577186584473,3.981572151184082,-0.37898826599121094,2421.3402936458588
D4:22:CD:00:05:5D,156.50511169433594,-27.018709182739258,-123.07815551757812,-21.072845458984375,-15.20180892944336,18.32645034790039,2421.37029337883
D4:22:CD:00:05:6B,-26.397083282470703,-54.63768005371094,-109.9585189819336,-5.23253059387207,-28.886306762695312,-4.675995826721191,2421.37029337883
D4:22:CD:00:49:AA,-152.96701049804688,-85.83463287353516,79.21224212646484,-0.5618565082550049,0.8126499652862549,1.037775993347168,2421.37029337883
D4:22:CD:00:05:6E,31.92854881286621,-26.814329147338867,41.740318298339844,-13.105398178100586,4.603294372558594,17.243083953857422,2421.37029337883
D4:22:CD:00:05:5E,-146.82357788085938,-76.63455963134766,175.84170532226562,4.205760955810547,3.747929096221924,1.2107934951782227,2421.37029337883
D4:22:CD:00:05:5D,158.15696716308594,-25.498920440673828,-118.57958221435547,-16.801776885986328,-12.024246215820312,19.263843536376953,2421.400307416916
D4:22:CD:00:05:6B,-33.2650032043457,-49.90688705444336,-103.53118133544922,1.229506492614746,-29.26101303100586,2.5202999114990234,2421.400307416916
D4:22:CD:00:49:AA,-134.9981689453125,-86.29414367675781,61.35543441772461,-2.314462661743164,-1.117403268814087,0.9997825622558594,2421.400307416916
D4:22:CD:00:05:6E,22.06374168395996,-12.399699211120605,31.676265716552734,-8.989248275756836,8.943704605102539,12.262027740478516,2421.400307416916
D4:22:CD:00:05:5E,-150.2294921875,-75.75495147705078,178.7646484375,4.342251777648926,2.8205127716064453,1.5409221649169922,2421.400307416916
D4:22:CD:00:05:5D,162.16085815429688,-20.65658187866211,-111.61724853515625,-7.681291580200195,-14.384586334228516,12.20888900756836,2421.4448347091675
D4:22:CD:00:05:6B,-53.09334182739258,-42.815670013427734,-98.16865539550781,-6.770676612854004,-11.39523696899414,13.347585678100586,2421.4448347091675
D4:22:CD:00:49:AA,-129.2786407470703,-85.41858673095703,56.26709747314453,6.322073936462402,-0.2969099283218384,10.46563720703125,2421.4448347091675
D4:22:CD:00:05:6E,11.778103828430176,-0.2169068306684494,20.688072204589844,-9.610954284667969,10.056949615478516,9.326663970947266,2421.4448347091675
D4:22:CD:00:05:5E,-153.82456970214844,-77.06135559082031,-178.1253662109375,3.8438291549682617,3.598541259765625,0.8389663696289062,2421.4448347091675
D4:22:CD:00:05:5D,166.48236083984375,-15.300921440124512,-106.72087860107422,-6.019601821899414,-10.854934692382812,10.235233306884766,2421.474835395813
D4:22:CD:00:05:6B,-56.95317459106445,-39.74037170410156,-101.90815734863281,-4.333006858825684,-7.216292381286621,8.783456802368164,2421.474835395813
D4:22:CD:00:49:AA,-138.57005310058594,-84.5220718383789,64.39346313476562,1.3188579082489014,-0.005759481340646744,8.513652801513672,2421.474835395813
D4:22:CD:00:05:6E,-2.93072247505188,7.970632076263428,9.964323997497559,-8.57890510559082,14.323402404785156,4.614819526672363,2421.474835395813
D4:22:CD:00:05:5E,-157.12147521972656,-80.07274627685547,-175.47329711914062,3.495114326477051,5.445610046386719,0.2917976379394531,2421.474835395813
D4:22:CD:00:05:5D,164.80870056152344,-11.730121612548828,-104.70689392089844,-6.224705696105957,-4.803412437438965,0.6070337295532227,2421.5053837299347
D4:22:CD:00:05:6B,-55.5657958984375,-42.018245697021484,-108.73847198486328,-2.405303478240967,-6.424973487854004,-2.6217689514160156,2421.5053837299347
D4:22:CD:00:49:AA,-147.6775360107422,-83.46697235107422,73.42084503173828,-1.8976080417633057,0.6649312973022461,8.53740119934082,2421.5053837299347
D4:22:CD:00:05:6E,-19.020872116088867,12.577743530273438,1.238419532775879,-6.564265251159668,10.85200309753418,-0.6986522674560547,2421.5053837299347
D4:22:CD:00:05:5E,-155.54397583007812,-84.88534545898438,-178.18927001953125,4.094995498657227,5.644489288330078,1.609710693359375,2421.5053837299347
D4:22:CD:00:05:5D,163.5645751953125,-11.148345947265625,-103.71483612060547,-3.4559268951416016,-2.2344908714294434,-8.263687133789062,2421.5353837013245
D4:22:CD:00:05:6B,-62.745540618896484,-47.39863967895508,-114.37461853027344,-1.92630934715271,3.0883936882019043,2.354574203491211,2421.5353837013245
D4:22:CD:00:49:AA,-157.24765014648438,-82.12602996826172,84.06884765625,3.483041763305664,1.2602694034576416,7.636028289794922,2421.5353837013245
D4:22:CD:00:05:6E,-27.014652252197266,16.136594772338867,-4.025549411773682,-6.286738395690918,3.9709229469299316,-4.468491554260254,2421.5353837013245
D4:22:CD:00:05:5E,-8.594648361206055,-87.17686462402344,33.65061950683594,4.717624664306641,4.221433639526367,6.762277603149414,2421.5353837013245
D4:22:CD:00:05:5D,164.78863525390625,-14.303760528564453,-102.73991394042969,-5.6801252365112305,0.8590933084487915,-13.285079956054688,2421.5653853416443
D4:22:CD:00:05:6B,-67.77996826171875,-54.213871002197266,-119.50133514404297,4.518054962158203,10.055234909057617,-1.5927057266235352,2421.5653853416443
D4:22:CD:00:49:AA,-166.30029296875,-80.21290588378906,92.98403930664062,5.239099502563477,3.506035327911377,3.313166618347168,2421.5653853416443
D4:22:CD:00:05:6E,-26.426794052124023,21.18951416015625,-4.305183410644531,-2.6374716758728027,-2.8339390754699707,-2.7363080978393555,2421.5653853416443
D4:22:CD:00:05:5E,12.681138038635254,-75.78679656982422,17.378753662109375,6.623132705688477,-4.791008949279785,3.580765724182129,2421.5653853416443
D4:22:CD:00:05:5D,165.3260498046875,-20.80462074279785,-101.56845092773438,-7.222731590270996,-0.7298486232757568,-13.780679702758789,2421.6099252700806
D4:22:CD:00:05:6B,-69.94486236572266,-59.483154296875,-123.232666015625,4.764995574951172,8.528223037719727,-6.215829849243164,2421.6099252700806
D4:22:CD:00:49:AA,-174.32125854492188,-77.84242248535156,99.21664428710938,2.7767744064331055,1.767906665802002,0.016389846801757812,2421.6099252700806
D4:22:CD:00:05:6E,-25.094099044799805,27.872251510620117,-0.40229371190071106,-1.2731280326843262,1.440572738647461,-9.258672714233398,2421.6099252700806
D4:22:CD:00:05:5E,15.72854995727539,-71.58136749267578,17.155139923095703,6.942970275878906,1.8917474746704102,-8.42786979675293,2421.6099252700806
D4:22:CD:00:05:5D,162.18467712402344,-29.970050811767578,-99.63052368164062,-6.457090377807617,-2.9229798316955566,-12.519512176513672,2421.640917301178
D4:22:CD:00:05:6B,-72.20654296875,-62.56620788574219,-125.25263977050781,4.1498308181762695,6.482138633728027,-6.541888236999512,2421.640917301178
D4:22:CD:00:49:AA,-179.46731567382812,-74.83165740966797,101.54438018798828,2.2814693450927734,0.882529616355896,-2.810248851776123,2421.640917301178
D4:22:CD:00:05:6E,-20.931743621826172,35.325218200683594,7.982938289642334,-0.01909973844885826,-1.680420160293579,-15.374277114868164,2421.640917301178
D4:22:CD:00:05:5E,8.157916069030762,-74.05672454833984,23.18075942993164,10.9210205078125,5.703152656555176,-12.821409225463867,2421.640917301178
D4:22:CD:00:05:5D,156.56106567382812,-41.116641998291016,-96.07609558105469,-1.6633472442626953,-3.3207359313964844,-10.269048690795898,2421.6699256896973
D4:22:CD:00:05:6B,-75.8570556640625,-63.69718551635742,-125.7708740234375,4.0521392822265625,3.6718225479125977,-6.12148380279541,2421.6699256896973
D4:22:CD:00:49:AA,-179.88673400878906,-73.06370544433594,100.86469268798828,-0.2854647636413574,-1.7440152168273926,-6.362030029296875,2421.6699256896973
D4:22:CD:00:05:6E,-12.817733764648438,42.39268112182617,22.35402488708496,6.192165374755859,6.89986515045166,-19.86923599243164,2421.6699256896973
D4:22:CD:00:05:5E,-14.424581527709961,-79.1185073852539,40.947628021240234,-6.521190643310547,1.8640496730804443,-6.103337287902832,2421.6699256896973
D4:22:CD:00:05:5D,151.27984619140625,-53.68751907348633,-91.01506805419922,2.3162598609924316,-1.807356595993042,-5.0376996994018555,2421.7000176906586
D4:22:CD:00:05:6B,-77.62544250488281,-63.8027458190918,-126.63736724853516,3.591297149658203,1.0554943084716797,-4.982579231262207,2421.7000176906586
D4:22:CD:00:49:AA,-178.38900756835938,-73.69144439697266,99.8619613647461,-2.8535752296447754,-1.371964931488037,-9.938783645629883,2421.7000176906586
D4:22:CD:00:05:6E,0.40191206336021423,47.59124755859375,39.7075309753418,9.016473770141602,14.1136474609375,-25.520286560058594,2421.7000176906586
D4:22:CD:00:05:5E,-33.97963333129883,-80.65660095214844,50.987979888916016,-15.579307556152344,8.339750289916992,-7.536250114440918,2421.7000176906586
D4:22:CD:00:05:5D,143.0768280029297,-67.68013000488281,-83.45604705810547,3.5419445037841797,-3.1273155212402344,1.9434680938720703,2421.744550704956
D4:22:CD:00:05:6B,-78.02538299560547,-63.30957794189453,-128.88072204589844,2.455721378326416,-1.3967719078063965,-4.951633453369141,2421.744550704956
D4:22:CD:00:49:AA,-178.76185607910156,-74.6436538696289,98.95343780517578,1.1230854988098145,1.797666311264038,-9.532880783081055,2421.744550704956
D4:22:CD:00:05:6E,11.640795707702637,50.29326629638672,48.40526580810547,-8.754749298095703,8.816299438476562,-14.202171325683594,2421.744550704956
D4:22:CD:00:05:5E,-37.417877197265625,-81.36298370361328,51.49876403808594,-0.32282376289367676,6.598244667053223,-4.882488250732422,2421.744550704956
D4:22:CD:00:05:5D,115.52863311767578,-81.89790344238281,-55.23533248901367,5.241329193115234,5.0783538818359375,18.032634735107422,2421.7755510807037
D4:22:CD:00:05:6B,-79.9393310546875,-62.4368782043457,-131.25636291503906,0.9522429704666138,-2.1409764289855957,-3.9173007011413574,2421.7755510807037
D4:22:CD:00:49:AA,178.84727478027344,-75.5499496459961,98.91787719726562,2.3238725662231445,3.2645645141601562,-7.259343147277832,2421.7755510807037
D4:22:CD:00:05:6E,3.166386604309082,49.309234619140625,39.777976989746094,-6.052959442138672,0.8265202045440674,-9.758689880371094,2421.7755510807037
D4:22:CD:00:05:5E,-43.17724609375,-82.27279663085938,57.52849197387695,-0.21699753403663635,3.94490385055542,-2.490023136138916,2421.7755510807037
D4:22:CD:00:05:5D,30.088212966918945,-81.57624816894531,33.709232330322266,8.538318634033203,16.060462951660156,6.702892303466797,2421.8050920963287
D4:22:CD:00:05:6B,-85.42521667480469,-61.786006927490234,-130.97430419921875,1.1842832565307617,-2.8447933197021484,-1.3041801452636719,2421.8050920963287
D4:22:CD:00:49:AA,178.2801971435547,-75.69505310058594,97.04669189453125,1.4181182384490967,-0.4263261556625366,-3.452273368835449,2421.8050920963287
D4:22:CD:00:05:6E,-12.366571426391602,46.394500732421875,26.194290161132812,-1.1437044143676758,6.521280288696289,-16.417217254638672,2421.8050920963287
D4:22:CD:00:05:5E,-66.85025024414062,-82.66516876220703,79.45681762695312,-0.5850107669830322,2.43674898147583,1.1243457794189453,2421.8050920963287
D4:22:CD:00:05:5D,19.306949615478516,-78.11741638183594,44.71455764770508,10.028984069824219,26.782352447509766,-16.452789306640625,2421.8350954055786
D4:22:CD:00:05:6B,-91.58007049560547,-62.043800354003906,-126.79016876220703,2.64068603515625,-3.9810791015625,1.7878961563110352,2421.8350954055786
D4:22:CD:00:49:AA,-176.96414184570312,-74.63665771484375,91.89801788330078,1.970811128616333,-2.9402079582214355,2.2394514083862305,2421.8350954055786
D4:22:CD:00:05:6E,-30.37600326538086,39.511741638183594,11.353455543518066,9.015300750732422,1.0247774124145508,-12.988981246948242,2421.8350954055786
D4:22:CD:00:05:5E,-84.49132537841797,-81.80567169189453,95.71031188964844,0.48764175176620483,4.56390380859375,3.526548385620117,2421.8350954055786
D4:22:CD:00:05:5D,37.926265716552734,-82.42536926269531,23.456283569335938,11.69569206237793,5.153375625610352,3.1297054290771484,2421.865092754364
D4:22:CD:00:05:6B,-96.28430938720703,-63.07244110107422,-119.05549621582031,3.5233330726623535,-6.421526908874512,6.966510772705078,2421.865092754364
D4:22:CD:00:49:AA,-172.3038330078125,-74.61418914794922,88.88653564453125,4.243259429931641,-1.8827216625213623,-0.7835350036621094,2421.865092754364
D4:22:CD:00:05:6E,-38.343990325927734,29.35062026977539,-1.7649668455123901,7.368854522705078,1.696674108505249,-10.619709014892578,2421.865092754364
D4:22:CD:00:05:5E,-86.42977905273438,-80.47443389892578,97.39451599121094,2.129887104034424,6.476076126098633,3.986093521118164,2421.865092754364
D4:22:CD:00:05:5D,96.18757629394531,-84.89378356933594,-35.85615158081055,0.5846097469329834,-12.124177932739258,8.143457412719727,2421.9096415042877
D4:22:CD:00:05:6B,-94.57725524902344,-63.08053207397461,-114.66127014160156,6.014741897583008,-11.083141326904297,11.378414154052734,2421.9096415042877
D4:22:CD:00:49:AA,-169.62167358398438,-73.86578369140625,86.7165756225586,6.8088884353637695,1.4430980682373047,2.875424385070801,2421.9096415042877
D4:22:CD:00:05:6E,-36.87275695800781,17.845111846923828,-12.589042663574219,4.930828094482422,2.3157620429992676,-9.133852005004883,2421.9096415042877
D4:22:CD:00:05:5E,-76.78572082519531,-78.821533203125,88.70320129394531,1.490316390991211,3.7242236137390137,4.722530364990234,2421.9096415042877
D4:22:CD:00:05:5D,133.29959106445312,-84.93689727783203,-75.65445709228516,-1.9157204627990723,-18.020065307617188,2.9939823150634766,2421.9396419525146
D4:22:CD:00:05:6B,-89.84199523925781,-61.34113693237305,-114.0239486694336,-0.17570018768310547,-10.023994445800781,4.772679328918457,2421.9396419525146
D4:22:CD:00:49:AA,-169.3496856689453,-73.01704406738281,84.97703552246094,4.332016944885254,0.7792682647705078,7.149057388305664,2421.9396419525146
D4:22:CD:00:05:6E,-30.23318099975586,8.42452621459961,-22.22917366027832,-0.21400314569473267,-0.38323599100112915,-4.455902099609375,2421.9396419525146
D4:22:CD:00:05:5E,-57.87012481689453,-76.63272857666016,74.04285430908203,0.14363166689872742,1.1333274841308594,4.277295112609863,2421.9396419525146
D4:22:CD:00:05:5D,155.04779052734375,-83.21112060546875,-93.38675689697266,-2.9271507263183594,6.583573341369629,1.3877286911010742,2421.9699375629425
D4:22:CD:00:05:6B,-88.88764953613281,-57.96181869506836,-111.39443969726562,-3.066612720489502,-7.561990737915039,1.088470458984375,2421.9699375629425
D4:22:CD:00:49:AA,-168.83836364746094,-72.25647735595703,84.23785400390625,0.01514948345720768,0.006443655118346214,4.1208038330078125,2421.9699375629425
D4:22:CD:00:05:6E,-19.75468635559082,2.0827174186706543,-30.45252799987793,-9.026351928710938,1.4717388153076172,-5.57086181640625,2421.9699375629425
D4:22:CD:00:05:5E,-51.95671081542969,-73.68803405761719,74.01575469970703,-3.007077693939209,6.101189613342285,0.6169319152832031,2421.9699375629425
D4:22:CD:00:05:5D,168.41000366210938,-81.92994689941406,-103.2423095703125,-3.5917811393737793,0.5597470998764038,2.821181297302246,2422.000029563904
D4:22:CD:00:05:6B,-88.15737915039062,-53.93172073364258,-107.95521545410156,-1.4704244136810303,-2.8095273971557617,1.820683479309082,2422.000029563904
D4:22:CD:00:49:AA,-166.2607879638672,-71.68643188476562,83.87153625488281,-1.9459631443023682,-1.2369349002838135,0.6402664184570312,2422.000029563904
D4:22:CD:00:05:6E,-5.902898788452148,-1.8616774082183838,-36.204341888427734,-17.531352996826172,-2.6001548767089844,-1.9594340324401855,2422.000029563904
D4:22:CD:00:05:5E,-52.65903854370117,-71.33291625976562,83.94384765625,16.806900024414062,12.445592880249023,2.1963443756103516,2422.000029563904
D4:22:CD:00:05:5D,178.16676330566406,-80.58390808105469,-112.87518310546875,-2.262895107269287,-0.23424983024597168,0.015249252319335938,2422.045563697815
D4:22:CD:00:05:6B,-83.94456481933594,-50.629112243652344,-104.99938201904297,-3.043004035949707,-2.5862584114074707,-1.6390199661254883,2422.045563697815
D4:22:CD:00:49:AA,-163.12879943847656,-70.70004272460938,84.90814208984375,-2.609976291656494,-2.1461920738220215,-2.033230781555176,2422.045563697815
D4:22:CD:00:05:6E,15.714507102966309,-2.962258815765381,-38.02608108520508,-19.85395050048828,-7.838190078735352,-4.141599655151367,2422.045563697815
D4:22:CD:00:05:5E,-66.36141204833984,-71.27766418457031,106.92469024658203,10.347085952758789,27.76443862915039,-2.385244846343994,2422.045563697815
D4:22:CD:00:05:5D,-174.17214965820312,-78.8484115600586,-120.97744750976562,-1.9027605056762695,0.12910309433937073,0.5277509689331055,2422.0755636692047
D4:22:CD:00:05:6B,-82.0257797241211,-49.01950454711914,-101.93627166748047,-2.8966989517211914,-2.7183098793029785,-4.35523796081543,2422.0755636692047
D4:22:CD:00:49:AA,-160.23956298828125,-69.23291778564453,87.68209075927734,-4.31397819519043,0.10102851688861847,-3.3725857734680176,2422.0755636692047
D4:22:CD:00:05:6E,40.37667465209961,-4.251704216003418,-34.49930953979492,-8.056257247924805,7.323439598083496,-9.888031005859375,2422.0755636692047
D4:22:CD:00:05:5E,-93.01979064941406,-70.24632263183594,137.63385009765625,4.050142288208008,16.002155303955078,-6.094117164611816,2422.0755636692047
D4:22:CD:00:05:5D,-168.47225952148438,-77.48596954345703,-127.86111450195312,1.4348509311676025,1.1752996444702148,0.9092168807983398,2422.105105638504
D4:22:CD:00:05:6B,-84.66963195800781,-50.012638092041016,-99.13028717041016,-2.3825864791870117,0.6293823719024658,-1.0854511260986328,2422.105105638504
D4:22:CD:00:49:AA,-162.30581665039062,-68.72383117675781,93.04900360107422,-0.1979837417602539,4.795872688293457,-2.0159335136413574,2422.105105638504
D4:22:CD:00:05:6E,54.27231979370117,-10.210041046142578,-29.659181594848633,-2.0355772972106934,18.81610870361328,4.5423431396484375,2422.105105638504
D4:22:CD:00:05:5E,-116.09309387207031,-67.42913055419922,164.11631774902344,0.5884089469909668,9.029327392578125,-11.557233810424805,2422.105105638504
D4:22:CD:00:05:5D,-164.08560180664062,-76.90396118164062,-133.3702392578125,0.9152085781097412,1.2063353061676025,1.1108903884887695,2422.135104894638
D4:22:CD:00:05:6B,-86.80904388427734,-52.40610122680664,-97.21859741210938,-1.0615487098693848,1.5416605472564697,1.8640565872192383,2422.135104894638
D4:22:CD:00:49:AA,-164.4160614013672,-67.92675018310547,95.29428100585938,1.1927781105041504,1.663405179977417,5.199702262878418,2422.135104894638
D4:22:CD:00:05:6E,57.74758529663086,-20.91898536682129,-27.850732803344727,-5.929593086242676,2.9200973510742188,2.160360336303711,2422.135104894638
D4:22:CD:00:05:5E,-134.60772705078125,-63.314666748046875,-175.6316375732422,-0.08397023379802704,2.747130870819092,-12.427030563354492,2422.135104894638
D4:22:CD:00:05:5D,-159.61782836914062,-76.95188903808594,-138.45494079589844,-0.7766256332397461,0.4489215016365051,0.6097545623779297,2422.1652224063873
D4:22:CD:00:05:6B,-87.6635971069336,-54.05839538574219,-97.03131103515625,-0.7446764707565308,-0.7883646488189697,-1.4750661849975586,2422.1652224063873
D4:22:CD:00:49:AA,-165.12294006347656,-67.36009216308594,95.7784423828125,-1.2190909385681152,1.4363441467285156,3.8903579711914062,2422.1652224063873
D4:22:CD:00:05:6E,70.7818374633789,-32.3498420715332,-28.231647491455078,-2.10109281539917,-3.278561592102051,2.128403663635254,2422.1652224063873
D4:22:CD:00:05:5E,-147.88604736328125,-59.316715240478516,-161.86463928222656,0.28346091508865356,-1.4172592163085938,-12.500446319580078,2422.1652224063873
D4:22:CD:00:05:5D,-155.22434997558594,-76.85930633544922,-143.37472534179688,-1.9511973857879639,-0.9242608547210693,-0.20911788940429688,2422.195698261261
D4:22:CD:00:05:6B,-92.66622161865234,-53.23277282714844,-98.25899505615234,-1.2143828868865967,0.7133069038391113,-2.6847081184387207,2422.195698261261
D4:22:CD:00:49:AA,-167.04315185546875,-67.037353515625,97.30406188964844,-3.0523781776428223,1.99483060836792,-0.8192996978759766,2422.195698261261
D4:22:CD:00:05:6E,90.67037200927734,-43.19404220581055,-30.062572479248047,-2.194899559020996,9.547834396362305,9.98150634765625,2422.195698261261
D4:22:CD:00:05:5E,-157.63919067382812,-57.29732894897461,-152.4130401611328,0.8531423807144165,-2.3689684867858887,-10.242818832397461,2422.195698261261
D4:22:CD:00:05:5D,-153.3939208984375,-76.0771484375,-145.7331085205078,-0.7820935249328613,-2.3326406478881836,-0.8497152328491211,2422.2404980659485
D4:22:CD:00:05:6B,-104.76882934570312,-49.144046783447266,-102.33021545410156,-4.819108963012695,2.327946186065674,-6.517549514770508,2422.2404980659485
D4:22:CD:00:49:AA,-169.82177734375,-67.06485748291016,99.17353820800781,-3.0426130294799805,1.8546550273895264,-0.6929397583007812,2422.2404980659485
D4:22:CD:00:05:6E,95.6448745727539,-55.27070617675781,-33.90178680419922,-6.892581939697266,3.2822275161743164,6.854490280151367,2422.2404980659485
D4:22:CD:00:05:5E,-165.1542510986328,-57.69722366333008,-145.32359313964844,-1.9874191284179688,-4.790457725524902,-5.5673112869262695,2422.2404980659485
D4:22:CD:00:05:5D,-156.310546875,-74.54680633544922,-142.94126892089844,1.2627205848693848,-3.7063660621643066,-1.1350221633911133,2422.2704985141754
D4:22:CD:00:05:6B,-117.27828216552734,-42.14043426513672,-110.25543212890625,3.4395546913146973,9.795768737792969,-1.757070541381836,2422.2704985141754
D4:22:CD:00:49:AA,-174.52688598632812,-67.86119079589844,102.49217987060547,-1.6126701831817627,0.9373297691345215,-3.7324371337890625,2422.2704985141754
D4:22:CD:00:05:6E,89.69120025634766,-68.53700256347656,-37.25092697143555,0.24540558457374573,-7.095730781555176,1.4659595489501953,2422.2704985141754
D4:22:CD:00:05:5E,-169.8695526123047,-60.73499298095703,-140.08511352539062,-2.1660327911376953,-7.807544708251953,-2.784825325012207,2422.2704985141754
D4:22:CD:00:05:5D,-163.19891357421875,-71.97181701660156,-134.31312561035156,-0.11481547355651855,-4.371267318725586,-2.085402488708496,2422.3005118370056
D4:22:CD:00:05:6B,-119.41073608398438,-34.49456024169922,-119.96752166748047,8.05042839050293,1.066164255142212,-5.100262641906738,2422.3005118370056
D4:22:CD:00:49:AA,178.9844512939453,-68.43763732910156,107.88162231445312,-0.7387279272079468,-0.45881497859954834,-5.6428985595703125,2422.3005118370056
D4:22:CD:00:05:6E,89.34708404541016,-82.16386413574219,-43.23106002807617,0.6178371906280518,-10.410381317138672,7.8883819580078125,2422.3005118370056
D4:22:CD:00:05:5E,-171.94984436035156,-65.8356704711914,-134.64404296875,29.087448120117188,19.179851531982422,17.117427825927734,2422.3005118370056
D4:22:CD:00:05:5D,-170.85467529296875,-68.1518325805664,-120.93260955810547,-0.03786398470401764,-2.0317182540893555,-1.0905513763427734,2422.3450446128845
D4:22:CD:00:05:6B,-119.551025390625,-27.029964447021484,-130.50924682617188,6.5980939865112305,0.3236422538757324,-5.115170478820801,2422.3450446128845
D4:22:CD:00:49:AA,170.24014282226562,-68.90293884277344,116.18948364257812,-0.21212798357009888,-0.6062256097793579,-4.727077484130859,2422.3450446128845
D4:22:CD:00:05:6E,-137.51025390625,-86.12641906738281,-177.45053100585938,-6.517766952514648,-6.719541549682617,5.369546890258789,2422.3450446128845
D4:22:CD:00:05:5E,-177.3131561279297,-66.08832550048828,-133.5244903564453,-4.273678779602051,-6.549131393432617,-3.066254138946533,2422.3450446128845
D4:22:CD:00:05:5D,-175.82522583007812,-63.00497817993164,-109.33683013916016,1.9305903911590576,-0.22868862748146057,-0.7350873947143555,2422.37504529953
D4:22:CD:00:05:6B,-118.0501480102539,-18.8094482421875,-141.69961547851562,6.929045677185059,-2.0691614151000977,1.842966079711914,2422.37504529953
D4:22:CD:00:49:AA,160.05857849121094,-70.14195251464844,126.1364517211914,0.9120755195617676,-0.2767742872238159,-4.690369606018066,2422.37504529953
D4:22:CD:00:05:6E,-122.12553405761719,-78.83023834228516,161.23606872558594,-1.4189624786376953,-0.10190893709659576,0.9122476577758789,2422.37504529953
D4:22:CD:00:05:5E,179.81455993652344,-69.27613830566406,-132.33816528320312,-8.923486709594727,-13.452035903930664,9.989198684692383,2422.37504529953
D4:22:CD:00:05:5D,-178.00338745117188,-57.8724479675293,-103.4200439453125,5.492895126342773,-1.4171404838562012,-0.18057632446289062,2422.404589176178
D4:22:CD:00:05:6B,-113.28282928466797,-9.861038208007812,-152.0755615234375,8.298933029174805,-10.583120346069336,8.258293151855469,2422.404589176178
D4:22:CD:00:49:AA,148.31712341308594,-71.51482391357422,137.3103485107422,-1.1806561946868896,0.47354382276535034,-4.406517028808594,2422.404589176178
D4:22:CD:00:05:6E,-116.603759765625,-72.51101684570312,148.5691680908203,5.439388275146484,-2.6434192657470703,7.529170989990234,2422.404589176178
D4:22:CD:00:05:5E,-179.06614685058594,-70.64796447753906,-132.3714141845703,-0.3706631660461426,-3.7799291610717773,19.75000762939453,2422.404589176178
D4:22:CD:00:05:5D,-178.10243225097656,-54.468284606933594,-101.24414825439453,-1.5821707248687744,2.2680578231811523,1.9266653060913086,2422.434673309326
D4:22:CD:00:05:6B,-106.11168670654297,-0.9560812711715698,-158.88548278808594,13.928976058959961,-12.577781677246094,14.662590026855469,2422.434673309326
D4:22:CD:00:49:AA,135.53860473632812,-71.63578033447266,149.4277801513672,-1.0822279453277588,2.7798256874084473,0.3697948455810547,2422.434673309326
D4:22:CD:00:05:6E,-104.70085906982422,-66.63492584228516,140.8177032470703,8.098421096801758,6.395637512207031,13.916065216064453,2422.434673309326
D4:22:CD:00:05:5E,-173.1514129638672,-65.01091003417969,-138.30325317382812,-7.212209701538086,-2.7502150535583496,19.690082550048828,2422.434673309326
D4:22:CD:00:05:5D,-177.43154907226562,-53.04768371582031,-99.75149536132812,-0.17045411467552185,2.0065383911132812,2.736948013305664,2422.465674161911
D4:22:CD:00:05:6B,-99.61198425292969,9.841329574584961,-160.41864013671875,11.175905227661133,-12.242290496826172,12.25745964050293,2422.465674161911
D4:22:CD:00:49:AA,133.2472381591797,-70.32398223876953,151.1593475341797,0.812274694442749,0.007996398955583572,6.482902526855469,2422.465674161911
D4:22:CD:00:05:6E,-90.93289947509766,-61.897865295410156,139.64808654785156,-2.589287281036377,15.402610778808594,18.380783081054688,2422.465674161911
D4:22:CD:00:05:5E,-164.01251220703125,-56.41239547729492,-144.2122344970703,-12.604185104370117,1.2064836025238037,24.166645050048828,2422.465674161911
