Device,EulerX,EulerY,EulerZ,FreeAccX,FreeAccY,FreeAccZ,Timestamp
D4:22:CD:00:05:5D,168.41964721679688,-51.54788589477539,-101.2378158569336,4.002835273742676,-0.5208662748336792,1.9688940048217773,2320.0810470581055
D4:22:CD:00:05:6B,-62.39847183227539,-33.29446029663086,-127.66072082519531,5.54556941986084,5.989264488220215,10.0362548828125,2320.0810470581055
D4:22:CD:00:49:AA,150.73619079589844,-73.2659912109375,139.0522918701172,-0.24062645435333252,-1.7109172344207764,8.206537246704102,2320.0810470581055
D4:22:CD:00:05:6E,38.95329284667969,-61.94422912597656,38.46653747558594,-1.1516070365905762,13.526107788085938,17.017364501953125,2320.0810470581055
D4:22:CD:00:05:5E,-165.24481201171875,-50.2818603515625,-9.623224258422852,1.2763631343841553,2.29481840133667,3.6106204986572266,2320.0810470581055
D4:22:CD:00:05:5D,169.61685180664062,-50.296573638916016,-100.16553497314453,-1.0408656597137451,1.764655590057373,1.6089019775390625,2320.0840475559235
D4:22:CD:00:05:6B,-65.66170501708984,-22.287036895751953,-121.63861846923828,13.175670623779297,-2.1563820838928223,18.797130584716797,2320.0840475559235
D4:22:CD:00:49:AA,150.61390686035156,-72.18954467773438,140.07875061035156,1.7217042446136475,-0.07736989855766296,9.619211196899414,2320.0840475559235
D4:22:CD:00:05:6E,45.64072799682617,-54.76980972290039,50.612728118896484,-7.145946502685547,15.8260498046875,3.178394317626953,2320.0840475559235
D4:22:CD:00:05:5E,-162.43161010742188,-52.672088623046875,-12.917983055114746,-1.4247772693634033,3.655210494995117,-2.5841922760009766,2320.0840475559235
D4:22:CD:00:05:5D,170.79348754882812,-50.116477966308594,-99.61366271972656,-2.2027430534362793,2.1522483825683594,2.477078437805176,2320.087564945221
D4:22:CD:00:05:6B,-59.99446487426758,-10.870624542236328,-115.78569793701172,10.035783767700195,-10.37493896484375,23.40753173828125,2320.087564945221
D4:22:CD:00:49:AA,147.94395446777344,-72.4503402709961,142.64283752441406,-4.360213279724121,0.7994258403778076,7.260416030883789,2320.087564945221
D4:22:CD:00:05:6E,47.03260040283203,-51.959896087646484,62.33475112915039,-6.661847114562988,3.6813197135925293,1.2899913787841797,2320.087564945221
D4:22:CD:00:05:5E,-157.66207885742188,-58.58134460449219,-18.541683197021484,-1.5518474578857422,6.475595474243164,-8.049165725708008,2320.087564945221
D4:22:CD:00:05:5D,171.52914428710938,-51.30185317993164,-99.55175018310547,-0.6532753705978394,1.9856975078582764,2.699026107788086,2320.0905809402466
D4:22:CD:00:05:6B,-51.67878723144531,-0.018047070130705833,-112.04869842529297,1.6401355266571045,-9.967559814453125,12.972345352172852,2320.0905809402466
D4:22:CD:00:49:AA,146.7905731201172,-73.29205322265625,144.3380889892578,-8.542116165161133,1.4098186492919922,9.220176696777344,2320.0905809402466
D4:22:CD:00:05:6E,48.689598083496094,-51.515262603759766,77.38460540771484,-8.275442123413086,2.9459080696105957,-4.081857681274414,2320.0905809402466
D4:22:CD:00:05:5E,-149.6763916015625,-65.47472381591797,-28.98513412475586,-0.2876797914505005,4.173887252807617,-9.201713562011719,2320.0905809402466
D4:22:CD:00:05:5D,-137.56300354003906,-79.83949279785156,-143.0914764404297,-1.6799731254577637,1.5621650218963623,-2.1584463119506836,2320.0935809612274
D4:22:CD:00:05:6B,-74.78559875488281,-41.72188949584961,-79.54712677001953,5.204570770263672,-1.2897279262542725,-4.511762619018555,2320.0935809612274
D4:22:CD:00:49:AA,-94.17350769042969,-71.56909942626953,15.42558479309082,-0.7963972091674805,0.5355942249298096,2.4020471572875977,2320.0935809612274
D4:22:CD:00:05:5D,-167.17178344726562,-75.685302734375,-112.64004516601562,1.1832990646362305,4.5974578857421875,0.000644683837890625,2320.1355805397034
D4:22:CD:00:05:6B,-77.79046630859375,-41.63872528076172,-89.46060943603516,2.410001754760742,-0.34306108951568604,4.536264419555664,2320.1355805397034
D4:22:CD:00:49:AA,-77.55714416503906,-71.6932373046875,-0.6868605017662048,8.280254364013672,1.0687191486358643,-1.1676788330078125,2320.1355805397034
D4:22:CD:00:05:6E,-28.74335479736328,-65.92888641357422,172.873046875,-7.492266654968262,-1.9182796478271484,6.9033203125,2320.1355805397034
D4:22:CD:00:05:5E,25.652597427368164,-78.08251953125,-172.43556213378906,-14.818134307861328,6.097420692443848,26.785900115966797,2320.1355805397034
D4:22:CD:00:05:5D,-175.96693420410156,-69.22941589355469,-102.53234100341797,1.5548217296600342,3.0055103302001953,0.20634841918945312,2320.1657350063324
D4:22:CD:00:05:6B,-76.02496337890625,-37.3692512512207,-95.95061492919922,4.4811906814575195,2.933309555053711,30.368453979492188,2320.1657350063324
D4:22:CD:00:49:AA,-58.81303787231445,-80.14815521240234,-18.94188690185547,2.7009119987487793,-4.513008117675781,5.4164628982543945,2320.1657350063324
D4:22:CD:00:05:6E,7.4930291175842285,-74.21244049072266,135.63319396972656,5.810729026794434,9.740732192993164,11.187652587890625,2320.1657350063324
D4:22:CD:00:05:5E,-81.20653533935547,-84.77119445800781,-63.43901443481445,0.8023000955581665,-2.5529637336730957,24.022415161132812,2320.1657350063324
D4:22:CD:00:05:5D,-179.14300537109375,-63.948509216308594,-96.56381225585938,-0.550047755241394,5.02609920501709,1.6630229949951172,2320.196276664734
D4:22:CD:00:05:6B,-71.89833068847656,-27.001834869384766,-98.01724243164062,-2.3691024780273438,0.512710452079773,32.40602111816406,2320.196276664734
D4:22:CD:00:49:AA,-70.19477081298828,-85.56526947021484,-5.373480319976807,-0.6271286010742188,-6.419486045837402,9.63224983215332,2320.196276664734
D4:22:CD:00:05:6E,-5.341887474060059,-77.25423431396484,155.67202758789062,2.7076234817504883,7.636857032775879,11.508668899536133,2320.196276664734
D4:22:CD:00:05:5E,-143.6761932373047,-79.4535903930664,4.32466983795166,2.6086769104003906,-8.072221755981445,15.028968811035156,2320.196276664734
D4:22:CD:00:05:5D,179.1399688720703,-60.71521759033203,-92.1390380859375,-2.8698501586914062,3.9295220375061035,1.9865226745605469,2320.2258265018463
D4:22:CD:00:05:6B,-68.56688690185547,-13.301739692687988,-94.98099517822266,-0.7450375556945801,-5.508851051330566,30.607803344726562,2320.2258265018463
D4:22:CD:00:49:AA,-114.79524993896484,-85.88143920898438,42.07639694213867,3.1681013107299805,-0.48332709074020386,10.284708023071289,2320.2258265018463
D4:22:CD:00:05:6E,-15.356958389282227,-76.58246612548828,176.9046173095703,-12.015830993652344,-6.759156227111816,9.586250305175781,2320.2258265018463
D4:22:CD:00:05:5E,170.13345336914062,-73.27025604248047,51.689674377441406,-0.9876387119293213,-2.312417507171631,11.698892593383789,2320.2258265018463
D4:22:CD:00:05:5D,178.28909301757812,-59.2320556640625,-89.835205078125,-3.69564151763916,2.895141124725342,2.0117483139038086,2320.255825996399
D4:22:CD:00:05:6B,-62.478492736816406,0.847083568572998,-89.73245239257812,-2.0011754035949707,-12.542364120483398,16.163738250732422,2320.255825996399
D4:22:CD:00:49:AA,-125.33140563964844,-85.21463775634766,54.704837799072266,3.662327289581299,3.7816834449768066,7.201122283935547,2320.255825996399
D4:22:CD:00:05:6E,17.598464965820312,-79.1206283569336,151.42674255371094,-5.987638473510742,-5.173609733581543,12.822393417358398,2320.255825996399
D4:22:CD:00:05:5E,158.4498748779297,-67.67764282226562,66.11585235595703,-6.121132850646973,3.64973783493042,2.938727378845215,2320.255825996399
D4:22:CD:00:05:5D,177.99708557128906,-59.586578369140625,-88.8708724975586,-2.561380386352539,2.791874408721924,2.3270740509033203,2320.2858397960663
D4:22:CD:00:05:6B,-50.28733825683594,11.965662956237793,-87.00941467285156,-3.255836009979248,-18.90921401977539,12.467681884765625,2320.2858397960663
D4:22:CD:00:49:AA,-120.55078125,-85.12777709960938,51.258182525634766,-0.9282453060150146,2.744260787963867,5.967830657958984,2320.2858397960663
D4:22:CD:00:05:6E,47.182945251464844,-75.54820251464844,134.32315063476562,-2.4650702476501465,1.8527686595916748,2.7781124114990234,2320.2858397960663
D4:22:CD:00:05:5E,156.33905029296875,-66.33096313476562,69.69647979736328,-5.065616607666016,5.5395050048828125,-5.082122802734375,2320.2858397960663
D4:22:CD:00:05:5D,177.7377471923828,-61.761146545410156,-88.86347198486328,-2.847660541534424,2.7074460983276367,4.2484025955200195,2320.3163669109344
D4:22:CD:00:05:6B,-30.509981155395508,21.152894973754883,-90.0640869140625,-10.656623840332031,-7.5419206619262695,-11.404901504516602,2320.3163669109344
D4:22:CD:00:49:AA,-110.46015930175781,-84.98155975341797,42.53614807128906,-3.3399925231933594,-0.8595675230026245,-0.4741783142089844,2320.3163669109344
D4:22:CD:00:05:6E,45.968421936035156,-73.81790161132812,153.6202392578125,-9.10590934753418,-10.922283172607422,-14.647903442382812,2320.3163669109344
D4:22:CD:00:05:5E,154.6028594970703,-68.5229721069336,69.7476806640625,-2.6282758712768555,4.794363021850586,-9.011014938354492,2320.3163669109344
D4:22:CD:00:05:5D,175.61695861816406,-65.13584899902344,-86.98817443847656,0.930004358291626,-3.531212329864502,9.343496322631836,2320.376376390457
D4:22:CD:00:05:6B,-17.422826766967773,29.743694305419922,-95.27266693115234,-6.701027870178223,2.6846065521240234,-15.037662506103516,2320.376376390457
D4:22:CD:00:49:AA,-109.32113647460938,-83.98954010009766,44.27184295654297,-1.329430103302002,-2.112257480621338,-6.784685134887695,2320.376376390457
D4:22:CD:00:05:6E,31.650192260742188,-73.70594024658203,177.62835693359375,-2.605454921722412,-15.915229797363281,-11.560413360595703,2320.376376390457
D4:22:CD:00:05:5E,150.31246948242188,-74.31246185302734,70.37140655517578,-2.2868199348449707,6.5862884521484375,-11.906244277954102,2320.376376390457
D4:22:CD:00:05:5D,167.8985595703125,-70.09281158447266,-85.91624450683594,-2.265681266784668,-1.9961764812469482,-0.28383827209472656,2320.4059178829193
D4:22:CD:00:05:6B,-13.664670944213867,37.60568618774414,-101.7724838256836,-6.3370466232299805,-1.7677128314971924,-11.146665573120117,2320.4059178829193
D4:22:CD:00:49:AA,-111.98218536376953,-82.6055908203125,48.67964553833008,3.884861946105957,-0.4985430836677551,-7.798935890197754,2320.4059178829193
D4:22:CD:00:05:6E,16.37434196472168,-73.41273498535156,-162.5042266845703,1.1420893669128418,-7.652287483215332,-8.284997940063477,2320.4059178829193
D4:22:CD:00:05:5E,139.33792114257812,-83.08389282226562,78.30279541015625,-2.160435199737549,5.1122846603393555,-13.717714309692383,2320.4059178829193
D4:22:CD:00:05:5D,161.96463012695312,-69.82325744628906,-83.83112335205078,3.8447346687316895,-3.016784191131592,-6.523594856262207,2320.4359180927277
D4:22:CD:00:05:6B,-12.70332145690918,44.733680725097656,-112.24112701416016,-9.221185684204102,-0.7794022560119629,-13.033649444580078,2320.4359180927277
D4:22:CD:00:49:AA,-110.71275329589844,-82.14154815673828,47.63934326171875,1.6689984798431396,2.0435256958007812,-8.957582473754883,2320.4359180927277
D4:22:CD:00:05:6E,9.626351356506348,-72.22701263427734,-148.58230590820312,5.803916931152344,-5.337040901184082,-4.829562187194824,2320.4359180927277
D4:22:CD:00:05:5E,10.681934356689453,-85.80357360839844,-156.0024871826172,-1.8948287963867188,0.6276606321334839,-12.19735336303711,2320.4359180927277
D4:22:CD:00:05:5D,161.97142028808594,-71.09424591064453,-83.25497436523438,7.915546417236328,-10.727998733520508,-14.652997970581055,2320.4659175872803
D4:22:CD:00:05:6B,-13.874872207641602,49.72224044799805,-129.2929229736328,-6.619405746459961,0.6727809906005859,-16.215084075927734,2320.4659175872803
D4:22:CD:00:49:AA,-104.29949951171875,-82.69381713867188,41.918495178222656,-1.9664556980133057,1.0844168663024902,-8.281881332397461,2320.4659175872803
D4:22:CD:00:05:6E,17.466955184936523,-69.94977569580078,-146.24920654296875,9.551801681518555,-6.939798355102539,-4.935538291931152,2320.4659175872803
D4:22:CD:00:05:5E,-11.660075187683105,-75.9621353149414,-137.34515380859375,-4.136541366577148,-3.502298355102539,-9.140302658081055,2320.4659175872803
D4:22:CD:00:05:5D,162.6448516845703,-75.00387573242188,-84.32633972167969,-7.546514511108398,16.00348663330078,0.7171564102172852,2320.496463537216
D4:22:CD:00:05:6B,-19.888063430786133,50.85905075073242,-151.5652618408203,-4.831851005554199,0.20234251022338867,-20.22735595703125,2320.496463537216
D4:22:CD:00:49:AA,-100.25220489501953,-83.32662200927734,38.83122253417969,0.04915396124124527,1.5537827014923096,-6.5191240310668945,2320.496463537216
D4:22:CD:00:05:6E,32.328372955322266,-66.56891632080078,-152.09970092773438,10.512800216674805,-7.7192277908325195,-6.230088233947754,2320.496463537216
D4:22:CD:00:05:5E,-18.133352279663086,-67.25127410888672,-137.68702697753906,-9.62124252319336,-14.579280853271484,-6.895757675170898,2320.496463537216
D4:22:CD:00:05:5D,160.8367156982422,-74.04676818847656,-83.64764404296875,-4.35684871673584,6.726474761962891,-1.3187990188598633,2320.5264632701874
D4:22:CD:00:05:6B,-30.149641036987305,47.025856018066406,-171.28330993652344,-1.831552267074585,-0.48487091064453125,-21.734638214111328,2320.5264632701874
D4:22:CD:00:49:AA,-104.07640075683594,-83.90963745117188,42.9741096496582,1.2717540264129639,1.734635591506958,-0.3580284118652344,2320.5264632701874
D4:22:CD:00:05:6E,37.52626037597656,-63.23804473876953,-155.9221649169922,4.40489387512207,-2.774083137512207,-5.512006759643555,2320.5264632701874
D4:22:CD:00:05:5E,-30.278400421142578,-62.77260208129883,-138.06854248046875,-18.177799224853516,-17.888103485107422,-5.818728446960449,2320.5264632701874
D4:22:CD:00:05:5D,160.61624145507812,-72.30431365966797,-79.92376708984375,0.8022900819778442,1.446593999862671,0.16975116729736328,2320.5557198524475
D4:22:CD:00:05:6B,-43.28949737548828,41.17179870605469,-179.97840881347656,1.0981624126434326,3.087348461151123,-15.576929092407227,2320.5557198524475
D4:22:CD:00:49:AA,-113.89370727539062,-84.97987365722656,51.03053665161133,1.2018697261810303,1.2355785369873047,2.7377090454101562,2320.5557198524475
D4:22:CD:00:05:6E,38.084510803222656,-60.77259826660156,-156.2589569091797,2.1821975708007812,-3.0708999633789062,-4.867537498474121,2320.5557198524475
D4:22:CD:00:05:5E,-43.295108795166016,-64.06046295166016,-134.03045654296875,-38.296714782714844,-9.339508056640625,-20.448184967041016,2320.5557198524475
D4:22:CD:00:05:5D,159.03805541992188,-70.79422760009766,-75.1574935913086,3.768001079559326,1.326991081237793,0.018378257751464844,2320.5858414173126
D4:22:CD:00:05:6B,-55.35989761352539,39.43848419189453,-178.46324157714844,2.5063843727111816,1.633448839187622,-3.495180606842041,2320.5858414173126
D4:22:CD:00:49:AA,-122.14459228515625,-86.32875061035156,55.26107406616211,-2.2972617149353027,-2.295835494995117,1.4553680419921875,2320.5858414173126
D4:22:CD:00:05:6E,38.5302848815918,-59.99824142456055,-154.2932891845703,2.028931140899658,-3.4689440727233887,-3.8144755363464355,2320.5858414173126
D4:22:CD:00:05:5E,-55.536231994628906,-70.00929260253906,-123.88821411132812,2.5789451599121094,-11.267532348632812,-1.0094661712646484,2320.5858414173126
D4:22:CD:00:05:5D,155.60694885253906,-70.15215301513672,-69.64744567871094,0.7404844760894775,-1.8468680381774902,3.9671449661254883,2320.616375684738
D4:22:CD:00:05:6B,-51.31776809692383,38.14834213256836,-176.14376831054688,0.5429370403289795,5.4885149002075195,-1.838193655014038,2320.616375684738
D4:22:CD:00:49:AA,-125.67882537841797,-87.4548568725586,55.38130569458008,-5.139155387878418,-3.356686592102051,4.526979446411133,2320.616375684738
D4:22:CD:00:05:6E,38.37217330932617,-61.474727630615234,-149.79049682617188,4.764250755310059,-3.8500428199768066,-3.4883084297180176,2320.616375684738
D4:22:CD:00:05:5E,-49.81560516357422,-73.90217590332031,-124.0749740600586,8.209653854370117,-17.828575134277344,4.489297866821289,2320.616375684738
D4:22:CD:00:05:5D,150.96005249023438,-69.34412384033203,-63.216583251953125,-2.201488494873047,-3.2035369873046875,5.051790237426758,2320.6763899326324
D4:22:CD:00:05:6B,-42.82556915283203,35.29032516479492,-173.95077514648438,5.555505752563477,-2.9244799613952637,-10.608379364013672,2320.6763899326324
D4:22:CD:00:49:AA,-131.06687927246094,-87.6825180053711,57.693180084228516,-1.1070740222930908,-3.1502327919006348,3.4570846557617188,2320.6763899326324
D4:22:CD:00:05:6E,34.856285095214844,-65.99420928955078,-142.8740692138672,7.504208564758301,-4.212490081787109,0.10646247863769531,2320.6763899326324
D4:22:CD:00:05:5E,-67.49333190917969,-76.61385345458984,-111.26493072509766,-5.342896461486816,5.812135696411133,13.138189315795898,2320.6763899326324
D4:22:CD:00:05:5D,144.9871368408203,-68.32575225830078,-57.437320709228516,-0.40694957971572876,0.013123339042067528,2.766037940979004,2320.70592546463
D4:22:CD:00:05:6B,-43.17397689819336,34.8045539855957,-167.13394165039062,-3.9472999572753906,4.569072723388672,0.37946033477783203,2320.70592546463
D4:22:CD:00:49:AA,-132.78176879882812,-87.05976104736328,54.764652252197266,4.838014602661133,-4.189970970153809,1.5237665176391602,2320.70592546463
D4:22:CD:00:05:6E,20.20160675048828,-72.29978942871094,-130.56735229492188,7.6220903396606445,-6.532024383544922,5.133360862731934,2320.70592546463
D4:22:CD:00:05:5E,-84.27958679199219,-78.42849731445312,-98.23085021972656,-3.3941359519958496,1.713484764099121,-0.6460933685302734,2320.70592546463
D4:22:CD:00:05:5D,136.45445251464844,-67.96085357666016,-53.18893814086914,5.735604286193848,-2.0038070678710938,3.927382469177246,2320.735917568207
D4:22:CD:00:05:6B,-37.58499526977539,35.77611541748047,-154.57455444335938,-12.131492614746094,4.648187637329102,-4.255501747131348,2320.735917568207
D4:22:CD:00:49:AA,-131.23635864257812,-86.25895690917969,48.91353988647461,6.4757080078125,0.000666068634018302,-0.9971256256103516,2320.735917568207
D4:22:CD:00:05:6E,3.3104028701782227,-75.95384979248047,-117.45846557617188,7.946963310241699,-3.604839324951172,7.704534530639648,2320.735917568207
D4:22:CD:00:05:5E,-89.11531829833984,-80.69467163085938,-93.14823913574219,-4.494559288024902,-4.626400947570801,0.48009395599365234,2320.735917568207
D4:22:CD:00:05:5D,131.2638702392578,-66.8916015625,-55.55413055419922,9.042032241821289,0.08586148917675018,2.704559326171875,2320.7659254074097
D4:22:CD:00:05:6B,-29.461673736572266,34.78559875488281,-136.16647338867188,-13.49036979675293,2.03816556930542,-2.5355753898620605,2320.7659254074097
D4:22:CD:00:49:AA,-142.14002990722656,-86.10428619384766,56.9556770324707,6.260870933532715,1.2384607791900635,-1.1158561706542969,2320.7659254074097
D4:22:CD:00:05:6E,-7.0615386962890625,-77.43457794189453,-114.75047302246094,2.443793773651123,-8.110916137695312,1.7301654815673828,2320.7659254074097
D4:22:CD:00:05:5E,-93.91059112548828,-82.20147705078125,-89.08706665039062,-3.965752124786377,-5.235653877258301,-1.4566450119018555,2320.7659254074097
D4:22:CD:00:05:5D,132.36753845214844,-64.87664794921875,-66.55525970458984,12.628385543823242,11.665634155273438,5.527275085449219,2320.7957429885864
D4:22:CD:00:05:6B,-20.98533821105957,29.628664016723633,-117.68071746826172,-10.178611755371094,3.5549235343933105,0.154205322265625,2320.7957429885864
D4:22:CD:00:49:AA,-156.5754852294922,-84.57508850097656,69.2708511352539,-2.1467738151550293,-1.0924253463745117,1.9942493438720703,2320.7957429885864
D4:22:CD:00:05:6E,-10.88073444366455,-79.27178192138672,-120.16139221191406,-5.143375396728516,-6.27486515045166,1.6420793533325195,2320.7957429885864
D4:22:CD:00:05:5E,-95.91999816894531,-83.05550384521484,-89.17475128173828,-4.316928863525391,-1.5315098762512207,0.6029558181762695,2320.7957429885864
D4:22:CD:00:05:5D,141.5394287109375,-59.509395599365234,-81.68075561523438,12.314437866210938,7.304810523986816,4.768243789672852,2320.8258199691772
D4:22:CD:00:05:6B,-10.087789535522461,22.045209884643555,-101.54936981201172,-7.0621337890625,1.4210951328277588,-2.5144262313842773,2320.8258199691772
D4:22:CD:00:49:AA,-159.28866577148438,-83.69441223144531,72.23603057861328,-0.24933651089668274,2.3774375915527344,2.476747512817383,2320.8258199691772
D4:22:CD:00:05:6E,-4.5651164054870605,-80.27942657470703,-129.4551239013672,-5.590764045715332,-3.1377806663513184,1.6173601150512695,2320.8258199691772
D4:22:CD:00:05:5E,-86.44963836669922,-84.0647964477539,-99.30915069580078,-3.4417881965637207,-1.0602576732635498,0.4615650177001953,2320.8258199691772
D4:22:CD:00:05:5D,149.08628845214844,-52.219181060791016,-95.70188903808594,4.481727600097656,2.838634967803955,2.0408763885498047,2320.856820344925
D4:22:CD:00:05:6B,1.8184788227081299,13.417835235595703,-86.17508697509766,3.5281758308410645,-4.982150077819824,-7.359889984130859,2320.856820344925
D4:22:CD:00:49:AA,-163.5020294189453,-82.89273071289062,76.8721694946289,5.596429824829102,0.29049259424209595,0.8250188827514648,2320.856820344925
D4:22:CD:00:05:6E,5.753289699554443,-79.9603271484375,-137.3555450439453,-2.764580249786377,-7.382514953613281,-0.9336128234863281,2320.856820344925
D4:22:CD:00:05:5E,-64.91837310791016,-85.00432586669922,-120.77042388916016,-3.1999282836914062,-1.9156861305236816,-0.045495033264160156,2320.856820344925
D4:22:CD:00:05:5D,153.52862548828125,-44.15622329711914,-106.27735900878906,-0.917506217956543,-0.04563955217599869,-3.9035754203796387,2320.885833501816
D4:22:CD:00:05:6B,3.5228612422943115,5.136319637298584,-71.55522918701172,21.629302978515625,2.8952951431274414,-3.632852077484131,2320.885833501816
D4:22:CD:00:49:AA,-167.2945556640625,-82.58087158203125,81.21681213378906,2.8519630432128906,-0.3737354278564453,0.2688913345336914,2320.885833501816
D4:22:CD:00:05:6E,13.172362327575684,-80.0508041381836,-142.400146484375,-0.6004022359848022,-8.154205322265625,-4.367526054382324,2320.885833501816
D4:22:CD:00:05:5E,-18.25806999206543,-83.70303344726562,-164.96022033691406,-1.3330047130584717,-1.8144972324371338,-0.17748260498046875,2320.885833501816
D4:22:CD:00:05:5D,157.12628173828125,-36.79364776611328,-114.04823303222656,-4.986522674560547,1.2119393348693848,-7.414422988891602,2320.9163689613342
D4:22:CD:00:05:6B,-17.903541564941406,-2.446091890335083,-59.66291809082031,7.3590545654296875,8.788610458374023,-13.651081085205078,2320.9163689613342
D4:22:CD:00:49:AA,-168.51939392089844,-82.91262817382812,83.33940124511719,-0.7325406074523926,1.2640268802642822,-1.5051965713500977,2320.9163689613342
D4:22:CD:00:05:6E,13.121807098388672,-81.11331939697266,-144.32235717773438,2.8255443572998047,-5.172555923461914,-4.904759407043457,2320.9163689613342
D4:22:CD:00:05:5E,4.921741485595703,-80.59717559814453,177.0784149169922,-4.301368713378906,-1.7477035522460938,-3.693131446838379,2320.9163689613342
D4:22:CD:00:05:5D,158.13526916503906,-31.251497268676758,-120.0946273803711,-5.186553001403809,1.3384814262390137,-8.621217727661133,2320.9753806591034
D4:22:CD:00:05:6B,-35.18266677856445,-8.809407234191895,-51.33498001098633,-9.146987915039062,-8.47852897644043,9.941839218139648,2320.9753806591034
D4:22:CD:00:49:AA,-167.10211181640625,-83.05245971679688,82.68864440917969,1.6081602573394775,0.8807812929153442,-3.5344443321228027,2320.9753806591034
D4:22:CD:00:05:6E,9.472432136535645,-81.17643737792969,-143.13990783691406,3.0969557762145996,2.161942481994629,-2.528170585632324,2320.9753806591034
D4:22:CD:00:05:5E,9.499703407287598,-80.47822570800781,174.98410034179688,-1.9136066436767578,-0.015814971178770065,-1.518545150756836,2320.9753806591034
D4:22:CD:00:05:5D,157.94557189941406,-27.66651153564453,-124.83908081054688,-4.662971496582031,-0.33067262172698975,-8.562524795532227,2321.0059912204742
D4:22:CD:00:05:6B,-35.43827819824219,-14.572754859924316,-46.452064514160156,6.0424299240112305,6.2553815841674805,-4.661588668823242,2321.0059912204742
D4:22:CD:00:49:AA,-165.57046508789062,-82.35055541992188,81.99329376220703,3.758479595184326,-0.8537170886993408,-4.97899055480957,2321.0059912204742
D4:22:CD:00:05:6E,14.255552291870117,-79.66722869873047,-145.2832794189453,2.240621566772461,-2.3158998489379883,-3.3151726722717285,2321.0059912204742
D4:22:CD:00:05:5E,10.212807655334473,-82.1771011352539,177.29869079589844,-0.05357964336872101,-5.821612358093262,-2.767653465270996,2321.0059912204742
D4:22:CD:00:05:5D,158.49290466308594,-26.1663875579834,-128.38067626953125,-4.202707290649414,-0.6344237327575684,-9.149015426635742,2321.035991191864
D4:22:CD:00:05:6B,-41.76676559448242,-22.659456253051758,-43.49570083618164,9.172067642211914,6.048636436462402,-13.044364929199219,2321.035991191864
D4:22:CD:00:49:AA,-167.45648193359375,-81.45275115966797,83.99817657470703,3.5221738815307617,-0.7236979007720947,-5.251635551452637,2321.035991191864
D4:22:CD:00:05:6E,22.69379425048828,-77.73164367675781,-150.47032165527344,2.1309752464294434,-4.584714889526367,-4.68857479095459,2321.035991191864
D4:22:CD:00:05:5E,-2.9532129764556885,-85.8287124633789,-168.4373779296875,-1.322451114654541,-2.6644086837768555,-2.220447063446045,2321.035991191864
D4:22:CD:00:05:5D,159.5703582763672,-27.317598342895508,-130.9805908203125,-8.207540512084961,-1.8723704814910889,-10.225143432617188,2321.0659906864166
D4:22:CD:00:05:6B,-56.835906982421875,-34.60161590576172,-41.757972717285156,6.416637420654297,-4.653585433959961,-7.965690612792969,2321.0659906864166
D4:22:CD:00:49:AA,-170.9178466796875,-80.75528717041016,86.7448959350586,1.0772602558135986,-0.5760605335235596,-6.326442718505859,2321.0659906864166
D4:22:CD:00:05:6E,31.054630279541016,-75.89134216308594,-157.70068359375,2.4680709838867188,-3.8124632835388184,-5.428277015686035,2321.0659906864166
D4:22:CD:00:05:5E,-110.40077209472656,-85.91284942626953,-64.23334503173828,-3.9890823364257812,-3.2908949851989746,-2.6381912231445312,2321.0659906864166
D4:22:CD:00:05:5D,159.07630920410156,-31.55982208251953,-131.76681518554688,-11.420921325683594,-2.8282723426818848,-7.4540815353393555,2321.096538543701
D4:22:CD:00:05:6B,-65.9618911743164,-51.22958755493164,-42.967411041259766,5.143317222595215,-5.394740104675293,21.175411224365234,2321.096538543701
D4:22:CD:00:49:AA,-173.9879913330078,-79.45989990234375,88.0937271118164,2.150266647338867,0.6038504838943481,-6.093232154846191,2321.096538543701
D4:22:CD:00:05:6E,39.772056579589844,-74.21342468261719,-166.00267028808594,0.6096128225326538,-3.5566773414611816,-6.6114654541015625,2321.096538543701
D4:22:CD:00:05:5E,-133.15499877929688,-80.47984313964844,-44.82524108886719,-4.68785285949707,-4.6252288818359375,-2.041933536529541,2321.096538543701
D4:22:CD:00:05:5D,159.91343688964844,-32.404537200927734,-129.9158477783203,2.9621195793151855,11.07748794555664,40.25304412841797,2321.12553858757
D4:22:CD:00:05:6B,-36.73537063598633,-68.67997741699219,-64.3350601196289,9.974245071411133,-7.503787994384766,33.893821716308594,2321.12553858757
D4:22:CD:00:49:AA,-176.49398803710938,-77.83607482910156,88.37319946289062,1.203784465789795,-0.10766641795635223,0.7925071716308594,2321.12553858757
D4:22:CD:00:05:6E,48.4001579284668,-73.1958999633789,-174.24949645996094,0.04606286436319351,-3.7484679222106934,-6.7795000076293945,2321.12553858757
D4:22:CD:00:05:5E,-139.8234100341797,-75.51280212402344,-41.313873291015625,-4.304617881774902,-2.496145725250244,0.3721294403076172,2321.12553858757
D4:22:CD:00:05:5D,165.15357971191406,-29.57874298095703,-125.86833953857422,-16.500370025634766,6.519905090332031,13.67680549621582,2321.155539035797
D4:22:CD:00:05:6B,-17.484283447265625,-71.93545532226562,-83.68202209472656,8.56074333190918,-2.68931245803833,8.681812286376953,2321.155539035797
D4:22:CD:00:49:AA,-176.941650390625,-76.2313003540039,87.77590942382812,-5.77178955078125,-1.160456895828247,5.207846641540527,2321.155539035797
D4:22:CD:00:05:6E,54.428707122802734,-71.80342864990234,-179.09661865234375,5.0985918045043945,-2.1903634071350098,-0.18107128143310547,2321.155539035797
D4:22:CD:00:05:5E,-145.70559692382812,-71.19109344482422,-37.54256057739258,-2.92587947845459,0.07008089125156403,1.6270551681518555,2321.155539035797
D4:22:CD:00:05:5D,163.42750549316406,-22.817859649658203,-121.64630889892578,-3.796456813812256,-13.466724395751953,10.534418106079102,2321.186553955078
D4:22:CD:00:05:6B,-44.54310607910156,-65.96629333496094,-67.82498168945312,9.720928192138672,-10.856597900390625,3.35909366607666,2321.186553955078
D4:22:CD:00:49:AA,-176.0565948486328,-74.57162475585938,87.75312042236328,1.5079586505889893,-1.921525478363037,6.052094459533691,2321.186553955078
D4:22:CD:00:05:6E,62.4818000793457,-66.93500518798828,178.0895538330078,10.8177490234375,-17.749752044677734,9.036985397338867,2321.186553955078
D4:22:CD:00:05:5E,-150.3268280029297,-69.36348724365234,-33.32829284667969,-3.3418354988098145,-1.9932289123535156,1.4476909637451172,2321.186553955078
D4:22:CD:00:05:5D,161.53228759765625,-14.649269104003906,-119.97412872314453,-10.351831436157227,-11.375850677490234,19.197410583496094,2321.2160823345184
D4:22:CD:00:05:6B,-59.068603515625,-54.19977569580078,-58.60697937011719,-8.133689880371094,-7.800634384155273,23.104488372802734,2321.2160823345184
D4:22:CD:00:49:AA,-176.0643310546875,-73.18836212158203,88.65021514892578,7.454530715942383,2.0798707008361816,10.134471893310547,2321.2160823345184
D4:22:CD:00:05:6E,70.20748138427734,-56.97438049316406,172.39727783203125,19.393707275390625,-11.90123176574707,21.701271057128906,2321.2160823345184
D4:22:CD:00:05:5E,-153.0531463623047,-69.69988250732422,-30.30772590637207,-4.427530288696289,-3.477287769317627,0.27943897247314453,2321.2160823345184
D4:22:CD:00:05:5D,157.70465087890625,-5.039220333099365,-120.38679504394531,-7.799872398376465,-12.892827987670898,11.379405975341797,2321.2760961055756
D4:22:CD:00:05:6B,-52.85361099243164,-44.64411163330078,-58.23940658569336,5.877119064331055,-13.529863357543945,5.336092948913574,2321.2760961055756
D4:22:CD:00:49:AA,-178.0999298095703,-73.35352325439453,90.43567657470703,2.601193904876709,3.734922409057617,9.676004409790039,2321.2760961055756
D4:22:CD:00:05:6E,71.44854736328125,-42.607948303222656,168.0493621826172,15.029680252075195,-7.260165214538574,21.544368743896484,2321.2760961055756
D4:22:CD:00:05:5E,-153.1024932861328,-71.3302001953125,-30.50784683227539,-4.707103729248047,-3.187760829925537,0.12506580352783203,2321.2760961055756
D4:22:CD:00:05:5D,155.9970245361328,3.686539649963379,-121.76713562011719,-7.434253692626953,-7.218562126159668,1.3339366912841797,2321.305631160736
D4:22:CD:00:05:6B,-50.94546890258789,-39.32539367675781,-60.71601104736328,5.991620063781738,-10.616371154785156,-4.92631721496582,2321.305631160736
D4:22:CD:00:49:AA,178.72824096679688,-73.5368881225586,93.27616882324219,4.491375923156738,2.1579623222351074,9.520914077758789,2321.305631160736
D4:22:CD:00:05:6E,65.25872802734375,-27.232080459594727,163.41481018066406,5.4818010330200195,-3.0127034187316895,19.712364196777344,2321.305631160736
D4:22:CD:00:05:5E,-150.36465454101562,-74.4338607788086,-34.09549331665039,-5.250533103942871,-3.9563961029052734,1.0976448059082031,2321.305631160736
D4:22:CD:00:05:5D,155.3926239013672,8.729408264160156,-123.65528869628906,-4.225044250488281,-0.037533633410930634,-7.514888763427734,2321.3356313705444
D4:22:CD:00:05:6B,-60.51743698120117,-37.54474639892578,-62.685455322265625,-4.869081497192383,-6.0045928955078125,0.7197637557983398,2321.3356313705444
D4:22:CD:00:49:AA,173.19740295410156,-73.73979187011719,97.44566345214844,9.313089370727539,2.701244354248047,10.997373580932617,2321.3356313705444
D4:22:CD:00:05:6E,54.60517120361328,-14.55105209350586,158.34454345703125,-4.087127685546875,0.262492835521698,10.473154067993164,2321.3356313705444
D4:22:CD:00:05:5E,-139.84100341796875,-78.9632797241211,-47.18217086791992,-7.298636436462402,-5.475625038146973,2.077251434326172,2321.3356313705444
D4:22:CD:00:05:5D,155.89047241210938,8.152137756347656,-125.32141876220703,-3.0306663513183594,4.572839736938477,-15.980632781982422,2321.365631341934
D4:22:CD:00:05:6B,-65.82133483886719,-40.95564651489258,-64.8629150390625,-1.8607988357543945,-0.4708050489425659,3.9458303451538086,2321.365631341934
D4:22:CD:00:49:AA,165.1125030517578,-73.92100524902344,102.6131362915039,2.0106515884399414,2.047302722930908,4.045733451843262,2321.365631341934
D4:22:CD:00:05:6E,42.888973236083984,-6.403976917266846,154.37841796875,-1.8150312900543213,0.24122092127799988,3.9715967178344727,2321.365631341934
D4:22:CD:00:05:5E,-93.48699188232422,-83.08573913574219,-95.47377014160156,-1.401716709136963,-13.494161605834961,11.929420471191406,2321.365631341934
D4:22:CD:00:05:5D,156.39048767089844,1.3267427682876587,-126.46499633789062,-5.909279823303223,3.1828579902648926,-22.483234405517578,2321.3961741924286
D4:22:CD:00:05:6B,-66.16375732421875,-47.035400390625,-66.84770202636719,1.0488700866699219,-1.4357898235321045,-1.223134994506836,2321.3961741924286
D4:22:CD:00:49:AA,155.82403564453125,-73.66139221191406,108.34651184082031,0.05930259823799133,-0.6057542562484741,-6.8864288330078125,2321.3961741924286
D4:22:CD:00:05:6E,33.6704216003418,-1.5896204710006714,151.87278747558594,0.23756453394889832,-2.995728015899658,0.4810209274291992,2321.3961741924286
D4:22:CD:00:05:5E,-23.917802810668945,-79.26344299316406,-157.18226623535156,-7.55759334564209,0.08778652548789978,-1.2247581481933594,2321.3961741924286
D4:22:CD:00:05:5D,156.34095764160156,-11.142566680908203,-126.78439331054688,-6.906656265258789,-4.00734806060791,-24.120399475097656,2321.426174879074
D4:22:CD:00:05:6B,-68.88091278076172,-53.073673248291016,-67.37020874023438,-0.7551561594009399,-1.917353868484497,-6.047865867614746,2321.426174879074
D4:22:CD:00:49:AA,149.7979278564453,-72.45635986328125,111.64379119873047,-2.0421972274780273,-1.5477232933044434,-7.385893821716309,2321.426174879074
D4:22:CD:00:05:6E,30.11931037902832,2.5850064754486084,150.57101440429688,-0.2909003496170044,-4.620879173278809,-2.1426334381103516,2321.426174879074
D4:22:CD:00:05:5E,-8.009199142456055,-77.95728302001953,-167.2910919189453,-14.201950073242188,-14.076192855834961,-15.935836791992188,2321.426174879074
D4:22:CD:00:05:5D,157.00384521484375,-27.513044357299805,-126.51022338867188,-8.700653076171875,-6.313429832458496,-14.919412612915039,2321.4561746120453
D4:22:CD:00:05:6B,-75.54795837402344,-58.685035705566406,-64.66159057617188,-1.7543425559997559,2.0308518409729004,-5.88128662109375,2321.4561746120453
D4:22:CD:00:49:AA,147.10302734375,-72.450927734375,113.63179779052734,-4.174871444702148,1.2197926044464111,-7.886373519897461,2321.4561746120453
D4:22:CD:00:05:6E,29.95046615600586,7.751247882843018,150.67245483398438,-0.8718940019607544,-4.7177934646606445,-5.958616256713867,2321.4561746120453
D4:22:CD:00:05:5E,-13.559537887573242,-81.38329315185547,-169.83303833007812,1.3740565776824951,-2.535025119781494,-10.662864685058594,2321.4561746120453
D4:22:CD:00:05:5D,155.10220336914062,-46.90743637084961,-125.62022399902344,-8.289220809936523,-5.189663887023926,-2.5470657348632812,2321.4861884117126
D4:22:CD:00:05:6B,-83.5983657836914,-63.37586975097656,-59.57265853881836,0.7806999683380127,5.228762626647949,-6.504085540771484,2321.4861884117126
D4:22:CD:00:49:AA,144.0966339111328,-72.83477783203125,114.90697479248047,1.664825439453125,1.188746690750122,-11.45850944519043,2321.4861884117126
D4:22:CD:00:05:6E,32.732322692871094,13.84175968170166,152.40162658691406,-1.6715383529663086,-3.537558078765869,-8.814399719238281,2321.4861884117126
D4:22:CD:00:05:5E,-15.340632438659668,-82.64198303222656,-173.16896057128906,5.600249290466309,14.227798461914062,-2.0325164794921875,2321.4861884117126
D4:22:CD:00:05:5D,151.39158630371094,-68.34881591796875,-122.0731430053711,-2.5507073402404785,-7.173578262329102,15.802742004394531,2321.515722513199
D4:22:CD:00:05:6B,-91.23929595947266,-67.39801788330078,-53.39009094238281,0.5886220932006836,5.3455352783203125,-8.179346084594727,2321.515722513199
D4:22:CD:00:49:AA,141.28756713867188,-72.8338623046875,115.2523422241211,4.750104904174805,-0.42417317628860474,-11.501819610595703,2321.515722513199
D4:22:CD:00:05:6E,34.28194046020508,19.973539352416992,156.6472625732422,-4.54377555847168,-4.714811325073242,-10.159719467163086,2321.515722513199
D4:22:CD:00:05:5E,-9.926193237304688,-82.04496002197266,-172.56060791015625,-3.372096538543701,7.282771110534668,0.34885311126708984,2321.515722513199
D4:22:CD:00:05:5D,75.96476745605469,-87.38626098632812,-43.19867706298828,13.24875259399414,2.841305732727051,29.488773345947266,2321.575738430023
D4:22:CD:00:05:6B,-96.67828369140625,-70.55780029296875,-47.92866516113281,1.6416935920715332,5.8280534744262695,-6.220789909362793,2321.575738430023
D4:22:CD:00:49:AA,138.2027130126953,-72.10452270507812,116.21348571777344,-0.5107187032699585,-2.0087532997131348,-5.938244819641113,2321.575738430023
D4:22:CD:00:05:6E,31.275651931762695,25.00563621520996,164.886474609375,-5.022032737731934,-2.6287550926208496,-12.554220199584961,2321.575738430023
D4:22:CD:00:05:5E,-40.71875762939453,-84.1807861328125,-145.50375366210938,1.609346866607666,-0.3275613784790039,0.6947231292724609,2321.575738430023
D4:22:CD:00:05:5D,-2.8714938163757324,-73.21916198730469,39.866790771484375,14.418397903442383,28.019786834716797,-1.617086410522461,2321.606270313263
D4:22:CD:00:05:6B,-95.99987030029297,-72.8769302368164,-46.6624755859375,3.610377788543701,10.636024475097656,-3.3129944801330566,2321.606270313263
D4:22:CD:00:49:AA,139.24307250976562,-71.59722900390625,114.57770538330078,-3.6280384063720703,-2.9865198135375977,-3.074066162109375,2321.606270313263
D4:22:CD:00:05:6E,31.163888931274414,28.86794090270996,177.37120056152344,-12.879386901855469,-7.692638397216797,-17.36821746826172,2321.606270313263
D4:22:CD:00:05:5E,-98.42025756835938,-83.20399475097656,-94.45063781738281,-2.054126262664795,-7.051996231079102,-1.6207971572875977,2321.606270313263
D4:22:CD:00:05:5D,-11.177935600280762,-70.45244598388672,38.29090881347656,18.033458709716797,9.810111999511719,-9.686731338500977,2321.6362705230713
D4:22:CD:00:05:6B,-94.0264892578125,-73.21532440185547,-49.47035598754883,6.411107063293457,2.511445999145508,-1.3408432006835938,2321.6362705230713
D4:22:CD:00:49:AA,147.72422790527344,-70.43115997314453,106.09298706054688,1.6092641353607178,-1.1030278205871582,4.733531951904297,2321.6362705230713
D4:22:CD:00:05:6E,31.286563873291016,32.34906768798828,-170.77667236328125,-17.239871978759766,-8.732551574707031,-20.689380645751953,2321.6362705230713
D4:22:CD:00:05:5E,-120.87725067138672,-79.83277130126953,-75.01153564453125,-4.279811859130859,-7.588558197021484,0.33553123474121094,2321.6362705230713
D4:22:CD:00:05:5D,-12.795002937316895,-73.64341735839844,35.67628479003906,7.566964149475098,-6.428584098815918,-2.69989013671875,2321.6665449142456
D4:22:CD:00:05:6B,-94.25425720214844,-72.33311462402344,-52.925758361816406,3.0804452896118164,6.079128265380859,2.7473297119140625,2321.6665449142456
D4:22:CD:00:49:AA,152.73309326171875,-70.49281311035156,102.34523010253906,0.8932527303695679,2.1196346282958984,4.071921348571777,2321.6665449142456
D4:22:CD:00:05:6E,45.391414642333984,39.18330383300781,-169.6438751220703,16.827617645263672,7.40328311920166,-14.67481803894043,2321.6665449142456
D4:22:CD:00:05:5E,-123.21106719970703,-77.70455169677734,-71.78307342529297,-4.569059371948242,1.4162745475769043,2.859675407409668,2321.6665449142456
D4:22:CD:00:05:5D,9.671103477478027,-79.06643676757812,21.00179100036621,10.331583023071289,3.5112757682800293,-0.2106637954711914,2321.6960661411285
D4:22:CD:00:05:6B,-91.16387176513672,-71.76089477539062,-54.096744537353516,4.051617622375488,2.2027010917663574,5.363533020019531,2321.6960661411285
D4:22:CD:00:49:AA,157.598876953125,-70.82476043701172,99.30613708496094,1.4541828632354736,2.370919704437256,2.1447486877441406,2321.6960661411285
D4:22:CD:00:05:6E,58.93199157714844,43.01540756225586,-178.21762084960938,0.4351710081100464,-12.307525634765625,-1.087580680847168,2321.6960661411285
D4:22:CD:00:05:5E,-117.72567749023438,-76.64722442626953,-76.48340606689453,-2.6334614753723145,-5.861370086669922,5.343136787414551,2321.6960661411285
D4:22:CD:00:05:5D,64.9886703491211,-84.17169952392578,-22.746322631835938,6.999188423156738,3.120405673980713,7.232614517211914,2321.7260665893555
D4:22:CD:00:05:6B,-92.19287872314453,-70.89564514160156,-49.26551818847656,4.907796859741211,-0.40995216369628906,3.73647403717041,2321.7260665893555
D4:22:CD:00:49:AA,162.04986572265625,-70.52889251708984,97.17707061767578,3.196640968322754,-0.9246771335601807,5.119206428527832,2321.7260665893555
D4:22:CD:00:05:6E,61.264427185058594,44.155242919921875,166.87994384765625,-3.7016348838806152,0.3306516408920288,-7.079505920410156,2321.7260665893555
D4:22:CD:00:05:5E,-108.76087188720703,-75.74641418457031,-83.5855712890625,-0.29245686531066895,-5.209541320800781,6.425252914428711,2321.7260665893555
D4:22:CD:00:05:5D,109.56938171386719,-83.66382598876953,-63.9327507019043,-5.7572784423828125,-2.210299015045166,4.309532165527344,2321.7560663223267
D4:22:CD:00:05:6B,-94.95980834960938,-70.48499298095703,-40.61029815673828,2.4708008766174316,-0.1642148494720459,5.8884172439575195,2321.7560663223267
D4:22:CD:00:49:AA,168.40040588378906,-69.6399917602539,95.04940795898438,-0.7445261478424072,-2.1272778511047363,3.419374465942383,2321.7560663223267
D4:22:CD:00:05:6E,58.975425720214844,40.8709831237793,151.0859832763672,-6.155849456787109,-7.216263771057129,-7.639617919921875,2321.7560663223267
D4:22:CD:00:05:5E,-96.2049789428711,-74.60218048095703,-91.65705871582031,2.6328396797180176,-7.684597015380859,6.379718780517578,2321.7560663223267
D4:22:CD:00:05:5D,137.91207885742188,-83.68817138671875,-91.44232177734375,4.144266128540039,-10.616716384887695,6.547399520874023,2321.7860848903656
D4:22:CD:00:05:6B,-100.05352783203125,-69.29324340820312,-31.065248489379883,1.6566205024719238,-3.1440701484680176,4.550408363342285,2321.7860848903656
D4:22:CD:00:49:AA,175.34539794921875,-68.25411224365234,94.25968933105469,-2.925809860229492,-1.9194345474243164,1.5081605911254883,2321.7860848903656
D4:22:CD:00:05:6E,44.76932907104492,33.18535614013672,136.84226989746094,-11.984804153442383,-7.872226715087891,-7.670734405517578,2321.7860848903656
D4:22:CD:00:05:5E,-77.96854400634766,-73.65625762939453,-100.8343276977539,-2.9025983810424805,-10.889875411987305,-1.0407295227050781,2321.7860848903656
D4:22:CD:00:05:5D,158.6694793701172,-82.37350463867188,-104.35839080810547,-2.3135790824890137,5.1653594970703125,-0.025305747985839844,2321.8156123161316
D4:22:CD:00:05:6B,-104.6810073852539,-66.59725189208984,-23.901538848876953,-0.503127932548523,-0.6444034576416016,1.4027910232543945,2321.8156123161316
D4:22:CD:00:49:AA,179.8119659423828,-66.9620361328125,96.25273132324219,-5.4837799072265625,0.9965029954910278,-1.7446870803833008,2321.8156123161316
D4:22:CD:00:05:6E,23.593080520629883,24.02046012878418,125.06397247314453,-8.129793167114258,-6.143623352050781,-13.375568389892578,2321.8156123161316
D4:22:CD:00:05:5E,-72.11353302001953,-74.57398986816406,-93.04602813720703,-27.324413299560547,-17.758628845214844,-1.8368897438049316,2321.8156123161316
D4:22:CD:00:05:5D,172.83705139160156,-81.19536590576172,-113.97103118896484,-4.851807594299316,-2.692279815673828,7.672393798828125,2321.8756272792816
D4:22:CD:00:05:6B,-104.92130279541016,-63.62122344970703,-19.05205726623535,0.4642292857170105,-1.8283188343048096,-3.100806713104248,2321.8756272792816
D4:22:CD:00:49:AA,-175.82546997070312,-66.5890121459961,98.52918243408203,-3.618633270263672,0.2728668451309204,-2.8060555458068848,2321.8756272792816
D4:22:CD:00:05:6E,1.0024380683898926,16.263471603393555,113.42479705810547,4.144613265991211,4.489560127258301,-11.701091766357422,2321.8756272792816
D4:22:CD:00:05:5E,-85.17906188964844,-75.47801971435547,-66.81964111328125,-14.527238845825195,-12.536083221435547,-0.8320560455322266,2321.8756272792816
D4:22:CD:00:05:5D,-179.26329040527344,-78.93370056152344,-120.73546600341797,-0.7618519067764282,-0.35194259881973267,-0.35583972930908203,2321.9058690071106
D4:22:CD:00:05:6B,-107.45892333984375,-61.37760925292969,-13.50366497039795,-4.3613739013671875,2.336179733276367,-1.0344734191894531,2321.9058690071106
D4:22:CD:00:49:AA,-174.16615295410156,-65.74641418457031,99.96595001220703,3.0822110176086426,3.0268869400024414,2.113762855529785,2321.9058690071106
D4:22:CD:00:05:6E,-4.372915267944336,11.471887588500977,103.00260162353516,13.382808685302734,2.7452216148376465,-0.709172248840332,2321.9058690071106
D4:22:CD:00:05:5E,-113.76087188720703,-73.21199798583984,-30.675920486450195,-1.9846701622009277,-10.99913215637207,-7.86012077331543,2321.9058690071106
D4:22:CD:00:05:5D,-173.826904296875,-77.02143859863281,-125.2046890258789,0.7681787014007568,1.1568291187286377,0.7820186614990234,2321.9358689785004
D4:22:CD:00:05:6B,-107.47518157958984,-61.234012603759766,-8.370824813842773,-2.517012119293213,2.3315186500549316,0.21160221099853516,2321.9358689785004
D4:22:CD:00:49:AA,-175.0813751220703,-65.05951690673828,101.54878997802734,1.5540170669555664,2.1593422889709473,1.856938362121582,2321.9358689785004
D4:22:CD:00:05:6E,9.592576026916504,8.987380027770996,96.5219497680664,19.702072143554688,-4.502001762390137,-1.9709510803222656,2321.9358689785004
D4:22:CD:00:05:5E,-137.49473571777344,-67.83380126953125,-5.062580108642578,0.2896080017089844,-1.7427780628204346,-12.751670837402344,2321.9358689785004
D4:22:CD:00:05:5D,-170.2912139892578,-76.16077423095703,-129.0469207763672,-0.0057983724400401115,1.204766035079956,1.5075244903564453,2321.9658691883087
D4:22:CD:00:05:6B,-106.97002410888672,-61.69296646118164,-7.513878345489502,-0.7346324920654297,3.145480155944824,1.6680727005004883,2321.9658691883087
D4:22:CD:00:49:AA,-175.1555938720703,-64.62789916992188,103.65336608886719,-4.412332534790039,2.9968385696411133,1.4403142929077148,2321.9658691883087
D4:22:CD:00:05:6E,34.33048629760742,7.088380336761475,95.04855346679688,-4.008835792541504,-5.928609848022461,-0.10113716125488281,2321.9658691883087
D4:22:CD:00:05:5E,-152.21839904785156,-61.994930267333984,9.140836715698242,-2.0708537101745605,1.9245789051055908,-15.791576385498047,2321.9658691883087
D4:22:CD:00:05:5D,-165.1965789794922,-76.33219909667969,-135.59234619140625,-1.876481056213379,1.7260634899139404,0.9209680557250977,2321.996416091919
D4:22:CD:00:05:6B,-106.83560180664062,-61.62118148803711,-10.110174179077148,-1.789224624633789,1.988224744796753,2.3837461471557617,2321.996416091919
D4:22:CD:00:49:AA,-175.4740447998047,-64.3181381225586,105.29608154296875,-0.47585350275039673,1.147651195526123,-2.1010141372680664,2321.996416091919
D4:22:CD:00:05:6E,45.912445068359375,2.454277515411377,93.59465789794922,-1.9005331993103027,-11.214740753173828,8.89151382446289,2321.996416091919
D4:22:CD:00:05:5E,-161.99053955078125,-57.40510559082031,18.465530395507812,-3.4721145629882812,3.6060791015625,-15.26008415222168,2321.996416091919
D4:22:CD:00:05:5D,-160.39401245117188,-76.49205017089844,-143.57919311523438,-1.4967522621154785,0.10137049853801727,0.17120647430419922,2322.025416135788
D4:22:CD:00:05:6B,-103.19236755371094,-61.4179573059082,-16.494203567504883,-1.4429047107696533,-2.206292152404785,-0.5635995864868164,2322.025416135788
D4:22:CD:00:49:AA,-177.70640563964844,-64.00987243652344,107.39698791503906,1.3042206764221191,2.207935333251953,-3.797934055328369,2322.025416135788
D4:22:CD:00:05:6E,55.89677810668945,-6.964022159576416,91.63433837890625,9.952289581298828,-1.8520278930664062,-4.885196685791016,2322.025416135788
D4:22:CD:00:05:5E,-169.26492309570312,-54.63729476928711,25.321250915527344,-2.5904464721679688,0.21521389484405518,-11.20660400390625,2322.025416135788
D4:22:CD:00:05:5D,-158.8515167236328,-75.55657958984375,-147.19595336914062,0.1446218192577362,-2.676755428314209,-1.0051889419555664,2322.055415868759
D4:22:CD:00:05:6B,-99.0685806274414,-60.59002685546875,-24.670623779296875,-0.6501317024230957,-3.1697921752929688,-4.631816864013672,2322.055415868759
D4:22:CD:00:49:AA,177.24087524414062,-63.67367935180664,110.94500732421875,-1.812359094619751,2.0049595832824707,-1.8511385917663574,2322.055415868759
D4:22:CD:00:05:6E,73.05274200439453,-18.740406036376953,86.23866271972656,0.667657732963562,3.3073248863220215,-1.601963996887207,2322.055415868759
D4:22:CD:00:05:5E,-178.46170043945312,-53.68783187866211,31.53890037536621,-1.9095861911773682,-2.2294859886169434,-5.720170021057129,2322.055415868759
D4:22:CD:00:05:5D,-162.6894073486328,-73.6563949584961,-143.82974243164062,1.172057867050171,-3.138399600982666,-1.149958610534668,2322.085431098938
D4:22:CD:00:05:6B,-94.82479095458984,-59.55121612548828,-34.07158279418945,1.6326167583465576,-0.09474831819534302,-6.104323387145996,2322.085431098938
D4:22:CD:00:49:AA,172.09959411621094,-64.17327117919922,114.32469177246094,-3.1107873916625977,0.16034817695617676,-2.705976963043213,2322.085431098938
D4:22:CD:00:05:6E,85.26920318603516,-32.14842224121094,76.78186798095703,-0.2633346915245056,5.806926727294922,6.546457290649414,2322.085431098938
D4:22:CD:00:05:5E,171.89669799804688,-55.746665954589844,37.069923400878906,4.475062370300293,4.731208801269531,-1.8776884078979492,2322.085431098938
D4:22:CD:00:05:5D,-170.4583282470703,-70.58207702636719,-134.60968017578125,-1.2153255939483643,-4.130165100097656,-0.4799537658691406,2322.1159591674805
D4:22:CD:00:05:6B,-89.08715057373047,-58.62312316894531,-45.66093063354492,1.8135392665863037,-0.33804386854171753,-7.619948387145996,2322.1159591674805
D4:22:CD:00:49:AA,168.12242126464844,-65.55743408203125,116.70382690429688,-1.7777791023254395,-0.5421066284179688,-5.388082504272461,2322.1159591674805
D4:22:CD:00:05:6E,88.06830596923828,-45.91851043701172,64.86135864257812,5.675463676452637,2.5991530418395996,11.790445327758789,2322.1159591674805
D4:22:CD:00:05:5E,166.0136260986328,-62.02855682373047,43.427921295166016,9.300804138183594,8.58076286315918,2.842970848083496,2322.1159591674805
D4:22:CD:00:05:5D,-178.69529724121094,-66.19510650634766,-123.22620391845703,-0.659117579460144,-0.5396133661270142,-2.260380744934082,2322.175972700119
D4:22:CD:00:05:6B,-87.2049331665039,-57.18695831298828,-57.69814682006836,-2.016031265258789,-2.818206787109375,-10.407493591308594,2322.175972700119
D4:22:CD:00:49:AA,163.47637939453125,-68.07988739013672,120.818359375,-1.2738313674926758,1.1669483184814453,-3.385749340057373,2322.175972700119
D4:22:CD:00:05:6E,77.88214874267578,-58.245933532714844,54.59085464477539,12.54293441772461,3.5740413665771484,12.263444900512695,2322.175972700119
D4:22:CD:00:05:5E,163.8694305419922,-64.52701568603516,48.87115478515625,1.242241621017456,-4.342227935791016,28.41971206665039,2322.175972700119
D4:22:CD:00:05:5D,177.24371337890625,-61.382720947265625,-115.0088882446289,3.088228225708008,3.731933116912842,-2.5950260162353516,2322.2055122852325
D4:22:CD:00:05:6B,-90.34695434570312,-54.35585403442383,-69.44078826904297,-2.7032198905944824,9.684181213378906,-1.4452857971191406,2322.2055122852325
D4:22:CD:00:49:AA,155.35707092285156,-69.76771545410156,128.50050354003906,2.5700998306274414,0.23766714334487915,-3.3132100105285645,2322.2055122852325
D4:22:CD:00:05:6E,64.67465209960938,-66.06632995605469,53.42013931274414,19.594223022460938,4.463265419006348,8.15749740600586,2322.2055122852325
D4:22:CD:00:05:5E,160.36383056640625,-65.68316650390625,51.26480484008789,8.647563934326172,8.395933151245117,1.6744842529296875,2322.2055122852325
D4:22:CD:00:05:5D,175.08555603027344,-57.224853515625,-109.9422607421875,4.5369062423706055,-0.9518173933029175,2.0475082397460938,2322.235509157181
D4:22:CD:00:05:6B,-90.6510238647461,-49.8953742980957,-80.02069854736328,5.596758842468262,15.76207160949707,13.384241104125977,2322.235509157181
D4:22:CD:00:49:AA,151.8673553466797,-67.98321533203125,131.2852783203125,0.4948509931564331,-2.308742046356201,5.892758369445801,2322.235509157181
D4:22:CD:00:05:6E,60.77772903442383,-68.50108337402344,61.369632720947266,12.571102142333984,6.268747329711914,4.776813507080078,2322.235509157181
D4:22:CD:00:05:5E,164.8748016357422,-64.81902313232422,47.71590805053711,5.905838966369629,9.725015640258789,12.58358383178711,2322.235509157181
