Device,EulerX,EulerY,EulerZ,FreeAccX,FreeAccY,FreeAccZ,Timestamp
D4:22:CD:00:05:5D,171.88563537597656,-53.777828216552734,-90.33618927001953,0.6694967746734619,1.4690051078796387,1.9340457916259766,2378.520541191101
D4:22:CD:00:05:6B,-55.06818771362305,-23.387653350830078,-54.04838562011719,-1.611262321472168,11.596755981445312,22.322525024414062,2378.520541191101
D4:22:CD:00:49:AA,138.43893432617188,-72.5192642211914,153.41372680664062,-1.1700339317321777,2.1023521423339844,4.6697187423706055,2378.520541191101
D4:22:CD:00:05:6E,77.13025665283203,-17.17670249938965,82.71792602539062,-5.228608131408691,6.3464860916137695,4.371265411376953,2378.520541191101
D4:22:CD:00:05:5E,-161.64801025390625,-63.4835090637207,-0.011638478375971317,0.48165708780288696,4.655655860900879,0.4984283447265625,2378.520541191101
D4:22:CD:00:05:5D,172.3335723876953,-53.44229507446289,-89.46064758300781,-1.5633165836334229,1.5976178646087646,2.2536678314208984,2378.523549079895
D4:22:CD:00:05:6B,-48.558868408203125,-11.848447799682617,-43.29774475097656,-1.08543062210083,3.6851353645324707,23.787437438964844,2378.523549079895
D4:22:CD:00:49:AA,144.43409729003906,-72.736083984375,149.59742736816406,-3.447427749633789,2.329840660095215,13.048458099365234,2378.523549079895
D4:22:CD:00:05:6E,74.75947570800781,-14.26793384552002,90.18570709228516,-1.3827829360961914,0.04333961009979248,-1.5929279327392578,2378.523549079895
D4:22:CD:00:05:5E,-161.41038513183594,-69.51542663574219,-3.4049675464630127,-0.37724125385284424,5.313828468322754,-1.9150075912475586,2378.523549079895
D4:22:CD:00:05:6B,-39.792476654052734,-2.1946680545806885,-34.671749114990234,-3.5466699600219727,-3.1964545249938965,15.884166717529297,2378.5265488624573
D4:22:CD:00:49:AA,149.73004150390625,-74.02464294433594,146.7637939453125,-5.697940826416016,1.4585707187652588,8.759035110473633,2378.5265488624573
D4:22:CD:00:05:6E,74.17378234863281,-15.85895824432373,100.35855865478516,1.6341321468353271,-0.7649327516555786,-4.899269104003906,2378.5265488624573
D4:22:CD:00:05:5E,-150.59716796875,-79.15531158447266,-17.678152084350586,0.16680750250816345,5.924386024475098,-1.7289228439331055,2378.5265488624573
D4:22:CD:00:05:5D,-143.4929962158203,-70.02385711669922,-125.72720336914062,0.2989237904548645,1.9598801136016846,-2.9906058311462402,2378.5295407772064
D4:22:CD:00:49:AA,155.6875457763672,-75.37551879882812,144.00596618652344,-2.500014305114746,2.485851764678955,4.415738105773926,2378.5295407772064
D4:22:CD:00:05:6E,74.28266906738281,-19.326406478881836,113.59407043457031,-0.2694174647331238,-0.18721801042556763,-3.1777896881103516,2378.5295407772064
D4:22:CD:00:05:5D,-150.496337890625,-63.72879409790039,-116.1322021484375,-2.0259313583374023,6.481371879577637,-1.0866718292236328,2378.6050057411194
D4:22:CD:00:05:6B,-60.3497428894043,-29.922883987426758,-76.92766571044922,2.774186134338379,1.4857196807861328,2.764711380004883,2378.6050057411194
D4:22:CD:00:05:5E,-145.7355499267578,-69.00628662109375,-56.46248245239258,0.00702992919832468,-9.827838897705078,14.516839981079102,2378.6050057411194
D4:22:CD:00:05:5D,-163.85459899902344,-56.707767486572266,-101.58489990234375,-2.7900075912475586,0.3102080225944519,1.538285255432129,2378.635005712509
D4:22:CD:00:05:6B,-51.7862434387207,-23.406044006347656,-82.07156372070312,0.982074499130249,-1.581195592880249,11.585193634033203,2378.635005712509
D4:22:CD:00:49:AA,58.18552780151367,-80.68046569824219,-137.24412536621094,5.284066200256348,-2.6212124824523926,4.760686874389648,2378.635005712509
D4:22:CD:00:05:6E,-78.21939849853516,-34.82925796508789,-135.9988250732422,-6.234450340270996,-2.470722198486328,16.335296630859375,2378.635005712509
D4:22:CD:00:05:5E,-166.43359375,-74.71284484863281,-35.859737396240234,-0.4554612636566162,-4.080626487731934,14.089698791503906,2378.635005712509
D4:22:CD:00:05:5D,-172.6533660888672,-52.77622604370117,-91.52791595458984,-4.015721321105957,0.26624345779418945,1.4901037216186523,2378.665549993515
D4:22:CD:00:05:6B,-48.596675872802734,-18.94805145263672,-82.30697631835938,7.657297134399414,-1.5374701023101807,13.42807388305664,2378.665549993515
D4:22:CD:00:49:AA,92.67520141601562,-73.2296142578125,-171.17706298828125,-1.5580775737762451,-3.0579872131347656,5.908230781555176,2378.665549993515
D4:22:CD:00:05:6E,-59.480560302734375,-35.659908294677734,-142.69712829589844,-19.300724029541016,-15.768054962158203,-4.898133277893066,2378.665549993515
D4:22:CD:00:05:5E,166.07479858398438,-75.12557220458984,-5.189046859741211,-3.3309621810913086,1.654115915298462,7.042509078979492,2378.665549993515
D4:22:CD:00:05:5D,-177.82850646972656,-49.919612884521484,-85.68659210205078,-3.8170056343078613,0.6821825504302979,1.5189781188964844,2378.695550441742
D4:22:CD:00:05:6B,-51.30573272705078,-12.617329597473145,-78.15122985839844,1.9123201370239258,2.792691707611084,25.07235336303711,2378.695550441742
D4:22:CD:00:49:AA,108.28631591796875,-73.15947723388672,174.97341918945312,-5.994976043701172,1.6580471992492676,6.586164474487305,2378.695550441742
D4:22:CD:00:05:6E,-19.497928619384766,-63.686126708984375,-168.1197052001953,-12.821418762207031,-4.540780067443848,8.332635879516602,2378.695550441742
D4:22:CD:00:05:5E,161.61602783203125,-71.4417953491211,-1.27813720703125,-1.9696369171142578,2.553288459777832,-2.023873805999756,2378.695550441742
D4:22:CD:00:05:5D,179.34219360351562,-48.414852142333984,-82.87135314941406,-1.8822298049926758,0.600579023361206,1.8361825942993164,2378.725550174713
D4:22:CD:00:05:6B,-49.34252166748047,-3.5889456272125244,-69.57215118408203,0.6825803518295288,-2.883133888244629,28.57308578491211,2378.725550174713
D4:22:CD:00:49:AA,115.04789733886719,-76.72112274169922,170.10629272460938,-1.846508502960205,0.5654305219650269,7.937963485717773,2378.725550174713
D4:22:CD:00:05:6E,36.4625129699707,-73.6695327758789,146.30340576171875,-7.929262161254883,-1.4885170459747314,9.892684936523438,2378.725550174713
D4:22:CD:00:05:5E,156.0633544921875,-70.83109283447266,2.2273337841033936,1.4297537803649902,5.684800148010254,-6.946773529052734,2378.725550174713
D4:22:CD:00:05:5D,178.28709411621094,-48.689964294433594,-81.589111328125,-1.209022045135498,1.2375802993774414,2.884164810180664,2378.7555651664734
D4:22:CD:00:05:6B,-39.18578338623047,3.621187925338745,-61.78507995605469,-4.826469421386719,-8.253211975097656,17.45720672607422,2378.7555651664734
D4:22:CD:00:49:AA,121.52523803710938,-79.40604400634766,165.0723419189453,-0.5081847906112671,1.1423346996307373,8.094009399414062,2378.7555651664734
D4:22:CD:00:05:6E,66.7634048461914,-73.46100616455078,128.822998046875,-2.695308208465576,-8.771038055419922,6.785287857055664,2378.7555651664734
D4:22:CD:00:05:5E,147.06150817871094,-75.12706756591797,10.946137428283691,4.059864044189453,7.764662742614746,-9.074420928955078,2378.7555651664734
D4:22:CD:00:05:5D,177.9310302734375,-50.92840576171875,-81.28809356689453,-1.3933651447296143,1.0008885860443115,3.274190902709961,2378.7851021289825
D4:22:CD:00:05:6B,-22.197647094726562,8.359236717224121,-56.9560546875,-20.759597778320312,-18.77774429321289,13.227357864379883,2378.7851021289825
D4:22:CD:00:49:AA,130.53143310546875,-81.45249938964844,157.94996643066406,-3.1260623931884766,2.0486011505126953,7.212009429931641,2378.7851021289825
D4:22:CD:00:05:6E,69.21832275390625,-73.75460815429688,137.14312744140625,1.5149133205413818,-10.396209716796875,0.08336639404296875,2378.7851021289825
D4:22:CD:00:05:5E,115.29521942138672,-82.60816955566406,45.659751892089844,4.349604606628418,7.415816307067871,-8.737323760986328,2378.7851021289825
D4:22:CD:00:05:5D,177.74989318847656,-55.07017517089844,-81.81796264648438,-2.212078094482422,-0.9847089052200317,5.34853458404541,2378.8457527160645
D4:22:CD:00:05:6B,0.9665537476539612,12.826815605163574,-55.072845458984375,-18.86577606201172,-12.319028854370117,-8.023527145385742,2378.8457527160645
D4:22:CD:00:49:AA,148.78504943847656,-83.27214813232422,141.95362854003906,-2.436976432800293,0.4540182948112488,4.961300849914551,2378.8457527160645
D4:22:CD:00:05:6E,60.71577835083008,-74.32850646972656,156.36846923828125,1.2999622821807861,-8.627391815185547,-3.11330509185791,2378.8457527160645
D4:22:CD:00:05:5E,31.0290584564209,-80.12891387939453,132.2188720703125,0.37905412912368774,4.4172210693359375,-8.482429504394531,2378.8457527160645
D4:22:CD:00:05:5D,176.16542053222656,-61.70799255371094,-83.53602600097656,1.7342164516448975,-11.578102111816406,7.703605651855469,2378.875288248062
D4:22:CD:00:05:6B,23.037628173828125,16.898319244384766,-54.00457000732422,-10.624855041503906,-2.155569076538086,-16.66521453857422,2378.875288248062
D4:22:CD:00:49:AA,175.07089233398438,-84.12056732177734,118.4313735961914,-1.1252777576446533,-0.9213610887527466,-0.08896160125732422,2378.875288248062
D4:22:CD:00:05:6E,51.46283721923828,-74.2425537109375,176.66192626953125,3.1565709114074707,-10.585525512695312,-6.483702659606934,2378.875288248062
D4:22:CD:00:05:5E,10.391902923583984,-69.40113830566406,151.35789489746094,-3.8750600814819336,1.4248108863830566,-7.42918586730957,2378.875288248062
D4:22:CD:00:05:5D,168.38641357421875,-66.70598602294922,-83.09362030029297,5.954364776611328,-1.6575567722320557,-4.694746017456055,2378.9052889347076
D4:22:CD:00:05:6B,40.59693908691406,21.079063415527344,-54.8428955078125,6.116394996643066,4.807055473327637,-9.602544784545898,2378.9052889347076
D4:22:CD:00:49:AA,-164.21408081054688,-83.24111938476562,100.08377075195312,1.4398634433746338,0.6374062299728394,-6.1871538162231445,2378.9052889347076
D4:22:CD:00:05:6E,48.0603141784668,-73.25125122070312,-171.7765350341797,6.34531307220459,-9.303598403930664,-6.651698112487793,2378.9052889347076
D4:22:CD:00:05:5E,1.9191645383834839,-58.663028717041016,154.4394989013672,-10.397632598876953,3.035964012145996,-5.952651023864746,2378.9052889347076
D4:22:CD:00:05:5D,164.16412353515625,-67.35879516601562,-80.83883666992188,2.734105110168457,6.402642250061035,-5.016382217407227,2378.9352884292603
D4:22:CD:00:05:6B,46.843894958496094,26.517810821533203,-59.370689392089844,7.158773422241211,1.0144627094268799,-4.135785102844238,2378.9352884292603
D4:22:CD:00:49:AA,-158.70184326171875,-82.40032958984375,95.13907623291016,2.621354579925537,1.7936646938323975,-11.624408721923828,2378.9352884292603
D4:22:CD:00:05:6E,55.353370666503906,-71.41183471679688,-172.6655731201172,4.453987121582031,-6.419841766357422,-9.321371078491211,2378.9352884292603
D4:22:CD:00:05:5E,-7.891326427459717,-50.435302734375,154.9833526611328,-18.104820251464844,2.462838649749756,-7.671475410461426,2378.9352884292603
D4:22:CD:00:05:5D,164.6492156982422,-65.67280578613281,-77.29375457763672,5.922466278076172,-7.185352325439453,-14.752710342407227,2378.9659552574158
D4:22:CD:00:05:6B,43.43354415893555,33.28874588012695,-67.65360260009766,3.49135684967041,-3.6974740028381348,-10.327560424804688,2378.9659552574158
D4:22:CD:00:49:AA,-157.3818817138672,-82.09857940673828,94.02745056152344,-0.4189811944961548,0.9127489328384399,-10.153060913085938,2378.9659552574158
D4:22:CD:00:05:6E,68.29057312011719,-68.71039581298828,179.05996704101562,4.85499382019043,-5.775060653686523,-9.150459289550781,2378.9659552574158
D4:22:CD:00:05:5E,-18.672924041748047,-46.81486892700195,156.2763671875,-15.049470901489258,6.776110649108887,-15.287532806396484,2378.9659552574158
D4:22:CD:00:05:5D,171.260009765625,-67.8216781616211,-75.97708892822266,-0.4195874333381653,10.265701293945312,-8.59878921508789,2378.9950318336487
D4:22:CD:00:05:6B,34.88921356201172,41.14570236206055,-80.41839599609375,3.9056835174560547,-2.763777256011963,-13.382755279541016,2378.9950318336487
D4:22:CD:00:49:AA,-152.0226287841797,-83.2149658203125,89.7103042602539,-2.305647850036621,0.10102382302284241,-7.504753112792969,2378.9950318336487
D4:22:CD:00:05:6E,79.18048858642578,-64.66324615478516,169.2596893310547,6.35566520690918,-3.150325298309326,-8.659460067749023,2378.9950318336487
D4:22:CD:00:05:5E,-22.78745460510254,-47.40031814575195,157.08302307128906,-16.716567993164062,7.706551551818848,-17.12607192993164,2378.9950318336487
D4:22:CD:00:05:5D,169.97622680664062,-66.87129211425781,-72.16358947753906,1.4058988094329834,2.469198226928711,-2.4284772872924805,2379.025091648102
D4:22:CD:00:05:6B,17.01383399963379,47.4244499206543,-101.38594818115234,3.33628511428833,-3.2193965911865234,-19.607044219970703,2379.025091648102
D4:22:CD:00:49:AA,-142.89552307128906,-84.382080078125,82.02946472167969,-1.1788218021392822,-0.7590025663375854,-7.487673759460449,2379.025091648102
D4:22:CD:00:05:6E,84.90971374511719,-59.744998931884766,161.7902374267578,6.0218505859375,-1.115790605545044,-8.744766235351562,2379.025091648102
D4:22:CD:00:05:5E,-24.892026901245117,-53.135231018066406,159.45285034179688,-15.764240264892578,1.700847864151001,-11.604745864868164,2379.025091648102
D4:22:CD:00:05:5D,170.7375946044922,-64.71762084960938,-68.18632507324219,3.133138656616211,-4.243927001953125,1.9706144332885742,2379.0557413101196
D4:22:CD:00:05:6B,-7.041409969329834,47.27650451660156,-128.03860473632812,-13.784046173095703,-8.27584457397461,-30.556087493896484,2379.0557413101196
D4:22:CD:00:49:AA,-135.1270751953125,-84.90003967285156,75.93415069580078,0.3854330778121948,-1.2426657676696777,-2.8025150299072266,2379.0557413101196
D4:22:CD:00:05:6E,86.57952117919922,-55.04336166381836,156.9944305419922,5.417149543762207,-1.1004273891448975,-6.929737091064453,2379.0557413101196
D4:22:CD:00:05:5E,-35.98031997680664,-62.00723648071289,167.47105407714844,-17.881534576416016,6.221125602722168,-3.483053207397461,2379.0557413101196
D4:22:CD:00:05:5D,170.41831970214844,-62.92747497558594,-64.48863983154297,1.5923490524291992,-1.5628421306610107,2.638363838195801,2379.085756778717
D4:22:CD:00:05:6B,-26.596506118774414,43.12419509887695,-142.9581756591797,1.3896429538726807,6.373927116394043,-10.32284927368164,2379.085756778717
D4:22:CD:00:49:AA,-133.63308715820312,-85.23104095458984,74.19930267333984,0.7089030742645264,0.2581496238708496,1.8680839538574219,2379.085756778717
D4:22:CD:00:05:6E,85.68275451660156,-51.422271728515625,154.5906524658203,3.6363797187805176,-0.7262567281723022,-4.697258949279785,2379.085756778717
D4:22:CD:00:05:5E,-45.576114654541016,-67.37499237060547,175.38848876953125,1.1655981540679932,-9.909475326538086,3.2322797775268555,2379.085756778717
D4:22:CD:00:05:5D,167.68763732910156,-61.42449951171875,-60.560569763183594,1.4051513671875,-1.3261568546295166,2.0203771591186523,2379.1457612514496
D4:22:CD:00:05:6B,-42.256439208984375,44.09806442260742,-137.56982421875,3.354694366455078,12.793291091918945,-5.322772979736328,2379.1457612514496
D4:22:CD:00:49:AA,-146.48992919921875,-84.7350845336914,84.98192596435547,-2.79555606842041,-1.7415964603424072,4.196645736694336,2379.1457612514496
D4:22:CD:00:05:6E,83.89512634277344,-50.876434326171875,153.9493865966797,2.6270499229431152,0.12200620770454407,-1.1673402786254883,2379.1457612514496
D4:22:CD:00:05:5E,-45.148956298828125,-69.88043212890625,175.19090270996094,-9.54617691040039,2.5188469886779785,4.940408706665039,2379.1457612514496
D4:22:CD:00:05:5D,164.93807983398438,-60.79110336303711,-56.24351119995117,-1.454336166381836,-0.7679935693740845,5.515432357788086,2379.1758365631104
D4:22:CD:00:05:6B,-45.13022994995117,46.11834716796875,-131.08143615722656,-4.969156265258789,-1.2573444843292236,-5.127802848815918,2379.1758365631104
D4:22:CD:00:49:AA,-157.80621337890625,-84.02262878417969,94.91532135009766,-3.5176239013671875,-1.9668760299682617,5.574621200561523,2379.1758365631104
D4:22:CD:00:05:6E,84.77188873291016,-53.640419006347656,152.20315551757812,1.6833016872406006,3.301267623901367,-0.3187751770019531,2379.1758365631104
D4:22:CD:00:05:5E,-40.15965270996094,-71.91009521484375,170.60423278808594,4.730428695678711,8.488967895507812,8.401786804199219,2379.1758365631104
D4:22:CD:00:05:5D,160.35716247558594,-61.2023811340332,-51.82380294799805,-2.4407334327697754,-0.8338279724121094,4.097933769226074,2379.204845428467
D4:22:CD:00:05:6B,-33.86455154418945,46.01793670654297,-125.07772827148438,5.054873466491699,-1.407282829284668,-6.288130760192871,2379.204845428467
D4:22:CD:00:49:AA,-161.93374633789062,-84.08500671386719,98.92440032958984,-2.2552647590637207,-0.39744895696640015,4.920339584350586,2379.204845428467
D4:22:CD:00:05:6E,91.41724395751953,-58.861785888671875,147.3630828857422,1.7524621486663818,3.9971160888671875,2.4036521911621094,2379.204845428467
D4:22:CD:00:05:5E,-41.46415710449219,-74.27128601074219,168.74659729003906,-6.112239837646484,2.023101806640625,1.364457130432129,2379.204845428467
D4:22:CD:00:05:5D,154.74868774414062,-62.3798713684082,-47.1922492980957,0.02189622074365616,-0.9525508880615234,2.500082015991211,2379.2358446121216
D4:22:CD:00:05:6B,-25.186918258666992,45.594669342041016,-110.27862548828125,-9.25790023803711,-5.024267196655273,-5.640561103820801,2379.2358446121216
D4:22:CD:00:49:AA,-171.18711853027344,-84.16712951660156,107.08647918701172,0.18950679898262024,0.14783257246017456,3.4135866165161133,2379.2358446121216
D4:22:CD:00:05:6E,104.21797180175781,-64.71041107177734,136.90768432617188,1.8570261001586914,4.401190757751465,7.206140518188477,2379.2358446121216
D4:22:CD:00:05:5E,-33.38452911376953,-76.0729751586914,159.064453125,-4.23622989654541,3.1825876235961914,-2.592158317565918,2379.2358446121216
D4:22:CD:00:05:5D,148.73721313476562,-63.87211227416992,-42.43083572387695,0.8039157390594482,-1.649893045425415,3.579690933227539,2379.26549077034
D4:22:CD:00:05:6B,-12.455839157104492,39.551570892333984,-92.76817321777344,-10.544174194335938,-6.877712249755859,-7.869214057922363,2379.26549077034
D4:22:CD:00:49:AA,-178.6565704345703,-83.75251770019531,111.89875793457031,1.6840829849243164,-0.9200730323791504,-0.03999900817871094,2379.26549077034
D4:22:CD:00:05:6E,120.1383056640625,-68.54074096679688,119.16370391845703,7.2323198318481445,3.029008388519287,8.405527114868164,2379.26549077034
D4:22:CD:00:05:5E,-17.720483779907227,-75.68305969238281,144.09303283691406,-5.2227678298950195,2.223604679107666,0.5079259872436523,2379.26549077034
D4:22:CD:00:05:5D,138.19761657714844,-66.44538116455078,-35.41291427612305,4.289284706115723,-2.606572151184082,3.448366165161133,2379.2954897880554
D4:22:CD:00:05:6B,-4.779089450836182,27.559738159179688,-80.2728271484375,-6.0890302658081055,3.402862548828125,-3.352367877960205,2379.2954897880554
D4:22:CD:00:49:AA,-177.71762084960938,-82.78974914550781,109.55325317382812,3.5917296409606934,1.7814357280731201,0.2453317642211914,2379.2954897880554
D4:22:CD:00:05:6E,124.4287109375,-68.6982650756836,105.00347900390625,7.492769241333008,0.24487745761871338,9.235208511352539,2379.2954897880554
D4:22:CD:00:05:5E,3.1914267539978027,-71.0016098022461,127.53887939453125,-2.258876323699951,1.8209149837493896,2.2538280487060547,2379.2954897880554
D4:22:CD:00:05:5D,126.69220733642578,-66.49768829345703,-32.32245635986328,4.991517066955566,13.34882926940918,-0.4485025405883789,2379.325489759445
D4:22:CD:00:05:6B,-1.696385145187378,12.613106727600098,-70.5246810913086,-4.993862152099609,2.3508806228637695,-4.976138114929199,2379.325489759445
D4:22:CD:00:49:AA,-172.55262756347656,-80.8771743774414,105.12036895751953,5.874208450317383,1.6318738460540771,-0.3334617614746094,2379.325489759445
D4:22:CD:00:05:6E,114.21268463134766,-66.99171447753906,101.9296875,-3.3235349655151367,5.926923751831055,-0.14571380615234375,2379.325489759445
D4:22:CD:00:05:5E,15.051047325134277,-66.19947052001953,122.14573669433594,-6.384736061096191,4.003110885620117,-3.422201156616211,2379.325489759445
D4:22:CD:00:05:5D,127.57344055175781,-61.578514099121094,-40.473575592041016,7.801967620849609,20.926834106445312,7.299375534057617,2379.356020450592
D4:22:CD:00:05:6B,-2.9353904724121094,-2.6483383178710938,-59.924903869628906,8.853391647338867,-0.8846862316131592,-2.9951467514038086,2379.356020450592
D4:22:CD:00:49:AA,-169.80838012695312,-78.96551513671875,103.0798110961914,4.376242637634277,1.6942665576934814,-0.4088020324707031,2379.356020450592
D4:22:CD:00:05:6E,109.59697723388672,-65.21294403076172,102.40798950195312,-2.9284191131591797,3.3647141456604004,-2.0588202476501465,2379.356020450592
D4:22:CD:00:05:5E,20.376239776611328,-63.13301086425781,120.35960388183594,-5.365105628967285,-0.33291077613830566,-2.9844393730163574,2379.356020450592
D4:22:CD:00:05:5D,135.48753356933594,-52.88594436645508,-51.47207260131836,8.085031509399414,9.99822998046875,4.221982002258301,2379.385051727295
D4:22:CD:00:05:6B,-15.234567642211914,-13.84172248840332,-48.2027473449707,11.42265510559082,8.819372177124023,-3.387451171875,2379.385051727295
D4:22:CD:00:49:AA,-167.52711486816406,-77.9950180053711,100.80184173583984,4.072486877441406,1.4426140785217285,2.2934656143188477,2379.385051727295
D4:22:CD:00:05:6E,110.28341674804688,-64.57438659667969,104.31327819824219,-2.5116066932678223,-2.0490469932556152,-0.9177980422973633,2379.385051727295
D4:22:CD:00:05:5E,22.533260345458984,-62.1383171081543,118.9708480834961,-4.468452453613281,-1.8399097919464111,-3.3220434188842773,2379.385051727295
D4:22:CD:00:05:5D,142.3092803955078,-43.43202590942383,-60.987648010253906,5.231566429138184,0.5658104419708252,-1.9705462455749512,2379.4150280952454
D4:22:CD:00:05:6B,-36.446739196777344,-20.49478530883789,-38.06903839111328,-0.3273475766181946,0.14701706171035767,-3.3483457565307617,2379.4150280952454
D4:22:CD:00:49:AA,-167.61724853515625,-77.6080551147461,101.30667877197266,4.859196662902832,1.5030663013458252,-1.4358978271484375,2379.4150280952454
D4:22:CD:00:05:6E,110.55184173583984,-64.79405975341797,106.36299133300781,-2.0747580528259277,-5.354693412780762,-1.8824381828308105,2379.4150280952454
D4:22:CD:00:05:5E,23.781726837158203,-63.38166427612305,118.45292663574219,-1.444772481918335,-1.0888266563415527,-1.3373785018920898,2379.4150280952454
D4:22:CD:00:05:5D,148.62818908691406,-34.71298599243164,-68.15762329101562,3.6262125968933105,-3.0777878761291504,-8.935686111450195,2379.4755868911743
D4:22:CD:00:05:6B,-47.2406120300293,-23.818857192993164,-31.302276611328125,-8.173885345458984,-0.5039417743682861,7.200721740722656,2379.4755868911743
D4:22:CD:00:49:AA,-169.98284912109375,-77.13081359863281,103.19291687011719,2.5032410621643066,0.1879856288433075,-3.580033779144287,2379.4755868911743
D4:22:CD:00:05:6E,109.696533203125,-64.97368621826172,107.2608871459961,-2.3078818321228027,-3.4524497985839844,-4.442195892333984,2379.4755868911743
D4:22:CD:00:05:5E,26.175140380859375,-66.92467498779297,117.02604675292969,-3.001443386077881,-0.6793925762176514,-0.34415721893310547,2379.4755868911743
D4:22:CD:00:05:5D,156.5196990966797,-27.995527267456055,-73.81139373779297,0.5605292320251465,-2.3591413497924805,-9.734121322631836,2379.5055871009827
D4:22:CD:00:05:6B,-49.04682540893555,-26.1312313079834,-26.931007385253906,-2.1819067001342773,3.5686707496643066,-5.771580696105957,2379.5055871009827
D4:22:CD:00:49:AA,-172.23004150390625,-77.24687957763672,104.85699462890625,1.1693415641784668,-0.751954197883606,-3.1434054374694824,2379.5055871009827
D4:22:CD:00:05:6E,110.78479766845703,-64.84468841552734,107.2260971069336,-1.5512056350708008,-1.421285629272461,-5.319356918334961,2379.5055871009827
D4:22:CD:00:05:5E,28.34495735168457,-72.46599578857422,114.10299682617188,-3.754700183868408,2.6159615516662598,-1.135331153869629,2379.5055871009827
D4:22:CD:00:05:5D,161.64633178710938,-24.4459171295166,-79.18059539794922,-2.6491341590881348,-3.8737030029296875,-10.654682159423828,2379.5355792045593
D4:22:CD:00:05:6B,-56.42853927612305,-29.842052459716797,-22.446535110473633,-1.6230778694152832,4.084449768066406,-6.296450614929199,2379.5355792045593
D4:22:CD:00:49:AA,-173.7041778564453,-77.3384017944336,105.31050872802734,1.8906056880950928,0.09633252024650574,-4.502988815307617,2379.5355792045593
D4:22:CD:00:05:6E,114.38783264160156,-64.4941635131836,106.21861267089844,0.17033126950263977,-1.3947789669036865,-4.816133499145508,2379.5355792045593
D4:22:CD:00:05:5E,28.656246185302734,-79.17332458496094,110.88697814941406,-3.2476139068603516,6.688091278076172,-4.269064903259277,2379.5355792045593
D4:22:CD:00:05:5D,162.78662109375,-24.085105895996094,-84.11257934570312,-3.7738747596740723,-5.181397438049316,-11.213520050048828,2379.565130710602
D4:22:CD:00:05:6B,-70.56021881103516,-36.25743865966797,-15.240440368652344,-0.4730296730995178,1.1723229885101318,-0.22176074981689453,2379.565130710602
D4:22:CD:00:49:AA,-172.8820037841797,-76.65242767333984,104.06697845458984,1.9761748313903809,-0.3891202211380005,-6.495491981506348,2379.565130710602
D4:22:CD:00:05:6E,114.01842498779297,-63.74616241455078,107.15250396728516,9.522308349609375,-3.247551918029785,0.8983182907104492,2379.565130710602
D4:22:CD:00:05:5E,29.74445915222168,-86.70277404785156,105.81233215332031,-4.866203308105469,2.5203351974487305,-0.34665489196777344,2379.565130710602
D4:22:CD:00:05:5D,162.45687866210938,-25.782255172729492,-87.7039566040039,-5.397187232971191,-10.19832992553711,-10.47477912902832,2379.5951302051544
D4:22:CD:00:05:6B,-80.17853546142578,-47.15650177001953,-7.250912666320801,3.5913467407226562,5.784396171569824,11.20286750793457,2379.5951302051544
D4:22:CD:00:49:AA,-170.65074157714844,-75.69429016113281,102.07562255859375,1.7930262088775635,1.7730739116668701,-4.808423042297363,2379.5951302051544
D4:22:CD:00:05:6E,102.1640625,-60.52406311035156,114.72776794433594,13.987884521484375,-1.1382699012756348,5.678057670593262,2379.5951302051544
D4:22:CD:00:05:5E,-163.93592834472656,-86.69963073730469,-63.78791046142578,-7.991079330444336,0.8887976408004761,-2.7168354988098145,2379.5951302051544
D4:22:CD:00:05:5D,163.2920684814453,-29.509157180786133,-89.63468170166016,-2.2178072929382324,-9.410806655883789,0.33328819274902344,2379.6251311302185
D4:22:CD:00:05:6B,-75.39307403564453,-64.162353515625,-1.17095148563385,6.755514144897461,4.448143005371094,28.987152099609375,2379.6251311302185
D4:22:CD:00:49:AA,-167.93820190429688,-75.70085906982422,97.45899963378906,6.253890037536621,5.455926895141602,0.8051662445068359,2379.6251311302185
D4:22:CD:00:05:6E,87.5514144897461,-54.72231674194336,126.43743133544922,7.878808975219727,3.1464576721191406,7.118267059326172,2379.6251311302185
D4:22:CD:00:05:5E,-166.9196014404297,-83.2000961303711,-61.84087371826172,-5.67253303527832,2.981818199157715,0.6624126434326172,2379.6251311302185
D4:22:CD:00:05:5D,163.08834838867188,-29.32557487487793,-91.75187683105469,-11.412086486816406,-10.01578140258789,26.99435043334961,2379.6552584171295
D4:22:CD:00:05:6B,-4.434831619262695,-74.68160247802734,-38.355525970458984,12.525354385375977,-11.35141372680664,33.40376281738281,2379.6552584171295
D4:22:CD:00:49:AA,-166.36749267578125,-75.26924896240234,93.2127914428711,-0.8631459474563599,1.2462937831878662,-1.4748477935791016,2379.6552584171295
D4:22:CD:00:05:6E,74.318115234375,-44.4160041809082,137.34902954101562,11.519529342651367,5.40024471282959,11.150142669677734,2379.6552584171295
D4:22:CD:00:05:5E,-169.66522216796875,-82.30071258544922,-59.712589263916016,-4.836550712585449,4.055002212524414,1.224745750427246,2379.6552584171295
D4:22:CD:00:05:5D,166.22854614257812,-25.121122360229492,-89.95267486572266,-5.835714340209961,-12.912527084350586,13.36613655090332,2379.6854367256165
D4:22:CD:00:05:6B,19.950340270996094,-65.22466278076172,-43.39204406738281,27.118682861328125,9.297019958496094,0.0186004638671875,2379.6854367256165
D4:22:CD:00:49:AA,-167.37600708007812,-74.74017333984375,91.55072784423828,-0.197221577167511,-3.765589714050293,7.687278747558594,2379.6854367256165
D4:22:CD:00:05:6E,64.33876037597656,-31.25153350830078,148.7590789794922,18.15216064453125,11.313667297363281,15.684768676757812,2379.6854367256165
D4:22:CD:00:05:5E,-171.6707305908203,-83.39191436767578,-58.29221725463867,-5.6083574295043945,4.511670112609863,0.9381294250488281,2379.6854367256165
D4:22:CD:00:05:5D,166.93203735351562,-19.000629425048828,-89.08351135253906,2.3519115447998047,-14.691648483276367,9.733335494995117,2379.715439558029
D4:22:CD:00:05:6B,-1.1386979818344116,-56.297096252441406,-28.999013900756836,22.327655792236328,-0.23643207550048828,4.97049617767334,2379.715439558029
D4:22:CD:00:49:AA,-168.1492156982422,-74.31774139404297,90.33668518066406,4.461034774780273,1.2486612796783447,12.528213500976562,2379.715439558029
D4:22:CD:00:05:6E,55.613582611083984,-14.660264015197754,159.53562927246094,8.965963363647461,10.439918518066406,20.98210906982422,2379.715439558029
D4:22:CD:00:05:5E,-170.57666015625,-86.46720123291016,-60.82585525512695,-6.3534088134765625,3.4456753730773926,3.0573482513427734,2379.715439558029
D4:22:CD:00:05:5D,165.26182556152344,-13.504164695739746,-89.87455749511719,-7.148680686950684,-14.3062744140625,10.277809143066406,2379.775988817215
D4:22:CD:00:05:6B,-27.685134887695312,-43.941619873046875,-21.297557830810547,10.193754196166992,-9.370157241821289,13.35910415649414,2379.775988817215
D4:22:CD:00:49:AA,-168.23219299316406,-74.60606384277344,88.35966491699219,5.01365852355957,2.098463535308838,6.287103652954102,2379.775988817215
D4:22:CD:00:05:6E,47.018802642822266,3.742802858352661,167.18759155273438,-4.778002738952637,6.728899955749512,18.205650329589844,2379.775988817215
D4:22:CD:00:05:5E,-19.867324829101562,-88.68806457519531,146.21836853027344,-5.005631446838379,1.9061007499694824,7.180086135864258,2379.775988817215
D4:22:CD:00:05:5D,162.1508026123047,-10.13468074798584,-91.49185943603516,-3.6824536323547363,-6.8162384033203125,0.1713247299194336,2379.8059804439545
D4:22:CD:00:05:6B,-36.26887893676758,-31.874515533447266,-23.909082412719727,8.915807723999023,-9.765396118164062,4.945363998413086,2379.8059804439545
D4:22:CD:00:49:AA,-171.96127319335938,-75.65052795410156,90.23712921142578,4.985358238220215,1.3264992237091064,9.583000183105469,2379.8059804439545
D4:22:CD:00:05:6E,39.9044075012207,21.12308692932129,170.8693389892578,-9.444549560546875,0.42144501209259033,8.717241287231445,2379.8059804439545
D4:22:CD:00:05:5E,1.7139720916748047,-81.37483978271484,124.59893798828125,-0.9470869302749634,-4.279852867126465,15.698144912719727,2379.8059804439545
D4:22:CD:00:05:5D,161.4828338623047,-10.154494285583496,-93.63693237304688,-5.478409767150879,-2.230189323425293,-4.622391700744629,2379.8349900245667
D4:22:CD:00:05:6B,-36.4377555847168,-23.929712295532227,-29.06694984436035,5.608637809753418,-7.114542007446289,-7.843981742858887,2379.8349900245667
D4:22:CD:00:49:AA,-176.73956298828125,-76.54618835449219,92.84062957763672,2.8304080963134766,2.04172420501709,8.238391876220703,2379.8349900245667
D4:22:CD:00:05:6E,35.44338607788086,34.59043502807617,171.148681640625,-5.996044158935547,-2.8573050498962402,1.0376052856445312,2379.8349900245667
D4:22:CD:00:05:5E,6.765162944793701,-76.38566589355469,124.80223083496094,-7.474190711975098,1.432948350906372,-5.131437301635742,2379.8349900245667
D4:22:CD:00:05:5D,161.49964904785156,-13.724477767944336,-94.96240997314453,-6.989459991455078,-0.23585957288742065,-9.585548400878906,2379.865533351898
D4:22:CD:00:05:6B,-40.8939208984375,-20.279190063476562,-32.24861145019531,3.8772120475769043,-2.1122288703918457,-9.190210342407227,2379.865533351898
D4:22:CD:00:49:AA,178.40631103515625,-77.28256225585938,96.27240753173828,0.1637413501739502,1.0155665874481201,2.056817054748535,2379.865533351898
D4:22:CD:00:05:6E,35.84919738769531,43.44070053100586,170.2771453857422,-0.40704548358917236,-4.818073272705078,-4.394330024719238,2379.865533351898
D4:22:CD:00:05:5E,5.567882537841797,-76.72376251220703,126.07869720458984,-13.785688400268555,5.363346099853516,-10.286048889160156,2379.865533351898
D4:22:CD:00:05:5D,159.73526000976562,-20.684589385986328,-95.12788391113281,-7.715924263000488,-1.4919066429138184,-15.065595626831055,2379.8955330848694
D4:22:CD:00:05:6B,-49.15412521362305,-20.267419815063477,-34.529258728027344,-0.06653475761413574,-2.886127471923828,-6.7635908126831055,2379.8955330848694
D4:22:CD:00:49:AA,172.04266357421875,-77.40505981445312,101.67355346679688,-0.17872419953346252,0.6287927627563477,-3.65915584564209,2379.8955330848694
D4:22:CD:00:05:6E,40.81545639038086,47.302249908447266,170.349365234375,5.464393615722656,-1.6138916015625,-8.02785873413086,2379.8955330848694
D4:22:CD:00:05:5E,2.816251754760742,-78.61298370361328,126.49293518066406,0.01269587129354477,-4.626870155334473,-10.403144836425781,2379.8955330848694
D4:22:CD:00:05:5D,156.46505737304688,-30.69122314453125,-94.00621795654297,-5.673187255859375,-4.535938262939453,-17.603168487548828,2379.9255328178406
D4:22:CD:00:05:6B,-55.09681701660156,-22.97272300720215,-36.41117858886719,-1.51755952835083,0.11756539344787598,-7.223082542419434,2379.9255328178406
D4:22:CD:00:49:AA,169.39598083496094,-76.42398834228516,103.82745361328125,-1.4071497917175293,0.37779366970062256,-6.5994157791137695,2379.9255328178406
D4:22:CD:00:05:6E,43.9704704284668,45.82666778564453,175.1442413330078,0.827763557434082,-0.2641366720199585,-8.716373443603516,2379.9255328178406
D4:22:CD:00:05:5E,-0.8110296130180359,-78.12179565429688,127.41468048095703,0.34539341926574707,-1.1030910015106201,-10.388744354248047,2379.9255328178406
D4:22:CD:00:05:5D,153.72401428222656,-43.29955291748047,-91.38145446777344,-1.6931266784667969,-6.753775596618652,-14.12672233581543,2379.955556154251
D4:22:CD:00:05:6B,-58.099971771240234,-26.760265350341797,-38.156532287597656,-2.326845169067383,2.4084877967834473,-9.931201934814453,2379.955556154251
D4:22:CD:00:49:AA,169.73553466796875,-76.3836669921875,103.93116760253906,-0.7149319648742676,1.1784594058990479,-10.078773498535156,2379.955556154251
D4:22:CD:00:05:6E,41.25668716430664,40.33155059814453,-175.13209533691406,4.573121070861816,1.0812780857086182,-10.280738830566406,2379.955556154251
D4:22:CD:00:05:5E,-3.596947193145752,-78.81098937988281,128.51803588867188,-10.68863296508789,23.682281494140625,-11.559661865234375,2379.955556154251
D4:22:CD:00:05:5D,149.82525634765625,-59.169185638427734,-86.51407623291016,-0.5853155851364136,-4.866972923278809,-1.5578603744506836,2379.9851365089417
D4:22:CD:00:05:6B,-59.89229202270508,-30.751529693603516,-39.32488250732422,-3.5421743392944336,2.4197912216186523,-12.175453186035156,2379.9851365089417
D4:22:CD:00:49:AA,170.21144104003906,-77.19200897216797,102.97321319580078,0.107542023062706,2.0945329666137695,-8.971881866455078,2379.9851365089417
D4:22:CD:00:05:6E,41.44525909423828,30.513994216918945,-162.60975646972656,-8.542827606201172,-0.4661141633987427,-14.121604919433594,2379.9851365089417
D4:22:CD:00:05:5E,-21.416208267211914,-82.25128936767578,142.66610717773438,2.520357131958008,-2.2855801582336426,-6.903947830200195,2379.9851365089417
D4:22:CD:00:05:5D,130.45262145996094,-77.5406494140625,-67.55606842041016,3.9118661880493164,-0.014155969023704529,14.594303131103516,2380.015137910843
D4:22:CD:00:05:6B,-60.9640007019043,-35.61698532104492,-39.833831787109375,-3.429856300354004,3.951718330383301,-12.67314338684082,2380.015137910843
D4:22:CD:00:49:AA,171.34092712402344,-78.73809814453125,101.62430572509766,0.567188024520874,0.3367631435394287,-9.564123153686523,2380.015137910843
D4:22:CD:00:05:6E,47.9454345703125,20.189075469970703,-148.3712615966797,-38.744239807128906,-17.43982696533203,-24.55754852294922,2380.015137910843
D4:22:CD:00:05:5E,-61.763755798339844,-84.77933502197266,179.0368194580078,-5.700597763061523,-1.1656181812286377,3.1254119873046875,2380.015137910843
D4:22:CD:00:05:5D,21.51262855529785,-79.4745864868164,44.40797805786133,11.933820724487305,11.626787185668945,24.66284942626953,2380.075667142868
D4:22:CD:00:05:6B,-61.64833068847656,-41.87653732299805,-40.028175354003906,-2.362398624420166,5.459747314453125,-9.760725021362305,2380.075667142868
D4:22:CD:00:49:AA,170.2293243408203,-79.19500732421875,102.0797119140625,3.19807767868042,-0.6504939794540405,-10.86473274230957,2380.075667142868
D4:22:CD:00:05:6E,55.79932403564453,22.923938751220703,-144.37411499023438,6.48160457611084,-6.440079689025879,-2.8732547760009766,2380.075667142868
D4:22:CD:00:05:5E,-102.08081817626953,-83.42323303222656,-144.07235717773438,-5.712667465209961,2.0460071563720703,2.8656482696533203,2380.075667142868
D4:22:CD:00:05:5D,8.023277282714844,-69.63357543945312,57.063804626464844,-6.403631210327148,26.94741439819336,-37.678016662597656,2380.1056673526764
D4:22:CD:00:05:6B,-58.0571403503418,-50.10725784301758,-41.97005081176758,-0.9745681285858154,5.297001838684082,-7.422203063964844,2380.1056673526764
D4:22:CD:00:49:AA,167.56373596191406,-78.9572982788086,103.20721435546875,2.8436174392700195,-2.5164990425109863,-5.96561336517334,2380.1056673526764
D4:22:CD:00:05:6E,68.07630157470703,32.761138916015625,-148.1038818359375,0.8551814556121826,6.118138313293457,-16.674388885498047,2380.1056673526764
D4:22:CD:00:05:5E,-102.22877502441406,-82.0962905883789,-144.40606689453125,-4.542767524719238,3.548238754272461,6.10113525390625,2380.1056673526764
D4:22:CD:00:05:5D,9.453847885131836,-71.68269348144531,50.000160217285156,21.094158172607422,0.21253353357315063,-3.8276219367980957,2380.135667324066
D4:22:CD:00:05:6B,-49.00273132324219,-59.88815689086914,-47.76698303222656,2.675915241241455,2.3171420097351074,-1.973154067993164,2380.135667324066
D4:22:CD:00:49:AA,173.3714141845703,-78.31861877441406,96.97791290283203,1.7939369678497314,-4.898717880249023,1.1625242233276367,2380.135667324066
D4:22:CD:00:05:6E,87.36882781982422,45.53390884399414,-152.12350463867188,1.9052855968475342,-10.430662155151367,-5.371062278747559,2380.135667324066
D4:22:CD:00:05:5E,-88.00013732910156,-81.19110107421875,-157.74134826660156,-4.132551193237305,3.1453351974487305,11.958406448364258,2380.135667324066
D4:22:CD:00:05:5D,53.02473831176758,-76.2965316772461,16.182016372680664,4.935127258300781,19.1468505859375,6.0544633865356445,2380.165221452713
D4:22:CD:00:05:6B,-39.14473342895508,-70.5736312866211,-58.10776138305664,6.380768775939941,-2.9200801849365234,10.524938583374023,2380.165221452713
D4:22:CD:00:49:AA,177.5887908935547,-78.26252746582031,91.83832550048828,3.118485450744629,2.8714804649353027,9.994449615478516,2380.165221452713
D4:22:CD:00:05:6E,81.98149108886719,58.58143997192383,-166.15020751953125,-8.91448974609375,-14.447206497192383,-1.844010353088379,2380.165221452713
D4:22:CD:00:05:5E,-54.7569694519043,-79.0172119140625,171.23663330078125,-3.3085803985595703,-0.819932222366333,4.633264541625977,2380.165221452713
D4:22:CD:00:05:5D,104.76106262207031,-75.37187957763672,-26.2688045501709,-1.934417963027954,-8.595733642578125,10.349123001098633,2380.1962172985077
D4:22:CD:00:05:6B,-40.149879455566406,-81.10269165039062,-67.84709167480469,0.61549973487854,-5.879790306091309,19.004226684570312,2380.1962172985077
D4:22:CD:00:49:AA,-179.17501831054688,-77.48428344726562,88.94319152832031,4.510794639587402,2.0346736907958984,7.756086349487305,2380.1962172985077
D4:22:CD:00:05:6E,47.698734283447266,64.58971405029297,162.31942749023438,1.6304893493652344,-2.1936988830566406,-11.274463653564453,2380.1962172985077
D4:22:CD:00:05:5E,-33.13606262207031,-75.12397003173828,158.55247497558594,-5.215662002563477,-0.04047148674726486,0.8145542144775391,2380.1962172985077
D4:22:CD:00:05:5D,118.04837036132812,-73.6398696899414,-41.826778411865234,1.767982006072998,-13.398504257202148,1.064401626586914,2380.2252225875854
D4:22:CD:00:05:6B,-107.75907897949219,-87.19564819335938,-13.947399139404297,3.976196765899658,9.00433349609375,20.818073272705078,2380.2252225875854
D4:22:CD:00:49:AA,-174.04615783691406,-76.29064178466797,86.03135681152344,1.2350890636444092,0.13452395796775818,11.04074478149414,2380.2252225875854
D4:22:CD:00:05:6E,17.677688598632812,60.304744720458984,129.65896606445312,7.888899803161621,-1.920290470123291,-6.925799369812012,2380.2252225875854
D4:22:CD:00:05:5E,-23.510799407958984,-71.896728515625,159.65081787109375,-7.26817512512207,9.000675201416016,-3.5947532653808594,2380.2252225875854
D4:22:CD:00:05:5D,124.8277359008789,-75.38400268554688,-49.05751419067383,1.9809880256652832,5.229698181152344,0.44803333282470703,2380.2552349567413
D4:22:CD:00:05:6B,-154.1442413330078,-85.41499328613281,35.37464904785156,-0.6780145168304443,8.561382293701172,7.621833801269531,2380.2552349567413
D4:22:CD:00:49:AA,-170.58775329589844,-75.62149810791016,86.6187973022461,-0.16286450624465942,0.4181113839149475,3.7922630310058594,2380.2552349567413
D4:22:CD:00:05:6E,9.142407417297363,50.55210876464844,109.84937286376953,7.041388511657715,-4.420320510864258,-7.939623832702637,2380.2552349567413
D4:22:CD:00:05:5E,-25.027868270874023,-72.09011840820312,170.15582275390625,-29.14126205444336,10.930522918701172,-9.31639289855957,2380.2552349567413
D4:22:CD:00:05:5D,134.95333862304688,-76.92469024658203,-57.0533447265625,-13.031959533691406,2.126214027404785,4.024243354797363,2380.285764694214
D4:22:CD:00:05:6B,-133.23516845703125,-82.09468078613281,29.36109161376953,1.3056156635284424,0.7790305614471436,4.064877510070801,2380.285764694214
D4:22:CD:00:49:AA,-166.9720458984375,-74.47309875488281,88.32526397705078,1.4521465301513672,-0.11498522758483887,-2.766355514526367,2380.285764694214
D4:22:CD:00:05:6E,11.47344970703125,40.32144546508789,97.45568084716797,0.05071989446878433,1.4838261604309082,-5.347731590270996,2380.285764694214
D4:22:CD:00:05:5E,-50.44401931762695,-76.10717010498047,-160.04275512695312,-23.908241271972656,2.454925060272217,-5.9996232986450195,2380.285764694214
D4:22:CD:00:05:5D,146.76702880859375,-76.30399322509766,-63.93119430541992,9.135196685791016,-7.548641204833984,-2.1659727096557617,2380.3157634735107
D4:22:CD:00:05:6B,-108.89026641845703,-76.89746856689453,17.680330276489258,1.8201675415039062,-0.9773776531219482,2.2135772705078125,2380.3157634735107
D4:22:CD:00:49:AA,-167.57254028320312,-72.96316528320312,93.97588348388672,-0.469285786151886,-0.6979110240936279,-5.077500343322754,2380.3157634735107
D4:22:CD:00:05:6E,14.854483604431152,32.51258850097656,87.94237518310547,7.274879455566406,9.23907470703125,1.7540254592895508,2380.3157634735107
D4:22:CD:00:05:5E,-89.84903717041016,-77.23933410644531,-115.39840698242188,-12.252410888671875,-5.120777130126953,-8.532485961914062,2380.3157634735107
D4:22:CD:00:05:5D,160.3757781982422,-75.17634582519531,-73.15425872802734,-3.049318790435791,0.862625002861023,0.7648830413818359,2380.3753159046173
D4:22:CD:00:05:6B,-99.14234161376953,-71.67656707763672,12.920004844665527,5.846946716308594,0.6703288555145264,-3.1996207237243652,2380.3753159046173
D4:22:CD:00:49:AA,-172.14056396484375,-71.68780517578125,101.87702941894531,-1.6432392597198486,2.1087756156921387,-3.1076951026916504,2380.3753159046173
D4:22:CD:00:05:6E,24.103052139282227,28.488962173461914,82.2548828125,17.1798095703125,0.8071773052215576,0.773289680480957,2380.3753159046173
D4:22:CD:00:05:5E,-121.86872100830078,-73.87645721435547,-78.24622344970703,-7.707087516784668,-8.708614349365234,-13.275238037109375,2380.3753159046173
D4:22:CD:00:05:5D,166.55093383789062,-73.99942016601562,-79.48835754394531,0.31023550033569336,0.9894033670425415,1.151778221130371,2380.406316757202
D4:22:CD:00:05:6B,-96.60623168945312,-69.26266479492188,9.497797012329102,-2.078430652618408,1.1623611450195312,-3.983105182647705,2380.406316757202
D4:22:CD:00:49:AA,-176.65101623535156,-71.7380599975586,107.02545166015625,-0.1942385733127594,0.5935815572738647,1.366912841796875,2380.406316757202
D4:22:CD:00:05:6E,37.89073944091797,25.919918060302734,81.18059539794922,-6.317641258239746,-0.5698679685592651,2.357187271118164,2380.406316757202
D4:22:CD:00:05:5E,-145.0633087158203,-68.761474609375,-55.775413513183594,-3.587019443511963,-8.670892715454102,-13.152475357055664,2380.406316757202
D4:22:CD:00:05:5D,171.4257049560547,-73.48207092285156,-83.8412094116211,0.547554612159729,1.060399055480957,1.210062026977539,2380.435316801071
D4:22:CD:00:05:6B,-93.2508544921875,-69.41663360595703,3.9858756065368652,-3.352064609527588,-2.6055307388305664,-3.3653388023376465,2380.435316801071
D4:22:CD:00:49:AA,-179.69866943359375,-71.71068572998047,110.7773666381836,-1.2349750995635986,1.475586175918579,2.465975761413574,2380.435316801071
D4:22:CD:00:05:6E,38.60439682006836,24.2786808013916,79.54722595214844,-6.87607479095459,4.23829460144043,11.210466384887695,2380.435316801071
D4:22:CD:00:05:5E,-163.84632873535156,-65.00706481933594,-41.04301834106445,0.48137766122817993,-4.894366264343262,-8.822729110717773,2380.435316801071
D4:22:CD:00:05:5D,176.99807739257812,-74.09878540039062,-88.7507095336914,-2.163384437561035,1.6713757514953613,1.5795221328735352,2380.4649724960327
D4:22:CD:00:05:6B,-91.47630310058594,-70.59899139404297,-2.560824155807495,-2.4395909309387207,-4.142087936401367,-3.0719971656799316,2380.4649724960327
D4:22:CD:00:49:AA,175.35801696777344,-71.52351379394531,115.30850982666016,-2.896165370941162,1.9546122550964355,0.7360754013061523,2380.4649724960327
D4:22:CD:00:05:6E,39.19657897949219,24.22730255126953,81.1341781616211,16.80071258544922,-2.9825992584228516,1.0009136199951172,2380.4649724960327
D4:22:CD:00:05:5E,-178.8720245361328,-64.2860107421875,-29.00558090209961,6.450976371765137,-0.6532350778579712,-3.579558849334717,2380.4649724960327
D4:22:CD:00:05:5D,-176.76722717285156,-75.37834167480469,-96.22570037841797,-2.2452688217163086,0.19791960716247559,0.2875528335571289,2380.4949786663055
D4:22:CD:00:05:6B,-92.19900512695312,-71.60317993164062,-9.545387268066406,-2.251070499420166,-0.23492401838302612,-1.5240097045898438,2380.4949786663055
D4:22:CD:00:49:AA,170.20468139648438,-71.32168579101562,119.69898223876953,-3.6651225090026855,2.0072150230407715,-2.517073631286621,2380.4949786663055
D4:22:CD:00:05:6E,51.91585922241211,21.919330596923828,86.2914810180664,1.5701079368591309,-5.534982681274414,-3.6713132858276367,2380.4949786663055
D4:22:CD:00:05:5E,168.32948303222656,-66.92073822021484,-15.611844062805176,10.581066131591797,-0.47925442457199097,-0.7292490005493164,2380.4949786663055
D4:22:CD:00:05:5D,-169.40426635742188,-76.15618133544922,-104.6741943359375,1.8515560626983643,-1.932081937789917,-0.8347015380859375,2380.526074409485
D4:22:CD:00:05:6B,-89.83748626708984,-72.0625,-19.13714027404785,-1.6282610893249512,1.1487021446228027,-1.7674694061279297,2380.526074409485
D4:22:CD:00:49:AA,164.5693817138672,-70.71401977539062,124.11299133300781,-3.2136993408203125,0.37762534618377686,-3.0508880615234375,2380.526074409485
D4:22:CD:00:05:6E,60.71390914916992,13.616591453552246,88.11029052734375,-3.0199928283691406,-4.160771369934082,-5.343454360961914,2380.526074409485
D4:22:CD:00:05:5E,155.50823974609375,-70.13672637939453,2.4940223693847656,-14.138442993164062,20.98257064819336,20.412200927734375,2380.526074409485
D4:22:CD:00:05:5D,-164.77064514160156,-75.89051055908203,-109.2392807006836,2.376652240753174,-2.0024847984313965,-1.3634147644042969,2380.55508852005
D4:22:CD:00:05:6B,-87.51329803466797,-71.44603729248047,-28.695348739624023,-1.8459196090698242,0.953942060470581,-4.193499565124512,2380.55508852005
D4:22:CD:00:49:AA,158.773193359375,-69.66487121582031,127.87101745605469,-1.3555221557617188,-0.23577150702476501,-3.0411224365234375,2380.55508852005
D4:22:CD:00:05:6E,64.6343002319336,0.20923136174678802,87.08146667480469,4.470362663269043,4.692770004272461,-2.1356053352355957,2380.55508852005
D4:22:CD:00:05:5E,148.46009826660156,-72.12458801269531,18.237133026123047,15.821941375732422,6.971000671386719,-0.497833251953125,2380.55508852005
D4:22:CD:00:05:5D,-168.0050506591797,-73.90914916992188,-106.85752868652344,2.1111512184143066,-5.591115951538086,-2.44502592086792,2380.5856244564056
D4:22:CD:00:05:6B,-87.5470199584961,-69.85478210449219,-36.275020599365234,-0.11095631122589111,2.9131059646606445,-4.681257247924805,2380.5856244564056
D4:22:CD:00:49:AA,153.4254608154297,-68.47068786621094,131.2962646484375,0.8780117034912109,-0.6847788095474243,-2.5191922187805176,2380.5856244564056
D4:22:CD:00:05:6E,67.39421081542969,-15.454113960266113,84.84442901611328,5.362059593200684,7.7928876876831055,-4.529048919677734,2380.5856244564056
D4:22:CD:00:05:5E,136.73309326171875,-73.55802154541016,36.05205535888672,13.63340950012207,10.870712280273438,1.8747806549072266,2380.5856244564056
D4:22:CD:00:05:5D,-174.04095458984375,-69.71041870117188,-99.57733917236328,5.409115791320801,-2.039369583129883,-2.097163677215576,2380.615624666214
D4:22:CD:00:05:6B,-86.11747741699219,-67.7645263671875,-43.233436584472656,-1.4175770282745361,5.975760459899902,-3.7379841804504395,2380.615624666214
D4:22:CD:00:49:AA,148.77426147460938,-67.61246490478516,134.4368896484375,1.163794755935669,-0.8477030992507935,-2.7799887657165527,2380.615624666214
D4:22:CD:00:05:6E,67.52546691894531,-33.70980453491211,80.85649108886719,0.6598893404006958,24.20803451538086,10.309883117675781,2380.615624666214
D4:22:CD:00:05:5E,137.06787109375,-74.24042510986328,34.519893646240234,2.634049892425537,7.6905107498168945,12.970907211303711,2380.615624666214
D4:22:CD:00:05:5D,-178.6071319580078,-64.82952880859375,-93.68822479248047,0.35097789764404297,-0.8323304653167725,-1.4670829772949219,2380.675172328949
D4:22:CD:00:05:6B,-80.57190704345703,-65.7979965209961,-50.06086730957031,0.6574454307556152,6.72260856628418,-2.5151772499084473,2380.675172328949
D4:22:CD:00:49:AA,144.25949096679688,-68.08230590820312,138.51266479492188,-2.2447147369384766,-0.1898767054080963,-1.1933012008666992,2380.675172328949
D4:22:CD:00:05:6E,62.993160247802734,-45.59811782836914,79.98213195800781,5.511565208435059,18.129138946533203,8.304269790649414,2380.675172328949
D4:22:CD:00:05:5E,155.3773651123047,-72.39110565185547,10.301074981689453,3.6637916564941406,3.632232666015625,16.814403533935547,2380.675172328949
D4:22:CD:00:05:5D,179.04287719726562,-60.1418571472168,-88.33477783203125,2.095580577850342,3.0545573234558105,1.8251934051513672,2380.7051718235016
D4:22:CD:00:05:6B,-73.7580795288086,-63.50424575805664,-56.09867477416992,3.1026363372802734,8.39999008178711,-0.3090839385986328,2380.7051718235016
D4:22:CD:00:49:AA,137.48886108398438,-70.12821960449219,147.29505920410156,-1.4243152141571045,-0.4851940870285034,1.3029451370239258,2380.7051718235016
D4:22:CD:00:05:6E,68.8531723022461,-47.125465393066406,78.59440612792969,10.037559509277344,8.093345642089844,4.278098106384277,2380.7051718235016
D4:22:CD:00:05:5E,176.03073120117188,-65.96807098388672,-14.247971534729004,1.9150028228759766,-6.920167922973633,17.704132080078125,2380.7051718235016
