Device,EulerX,EulerY,EulerZ,FreeAccX,FreeAccY,FreeAccZ,Timestamp
D4:22:CD:00:05:5D,162.55596923828125,-68.3134536743164,63.74883270263672,5.026415824890137,-4.9103498458862305,-5.420411109924316,591.5261609554291
D4:22:CD:00:05:6B,-40.594356536865234,47.61531066894531,178.3655548095703,-15.93017578125,0.29850292205810547,-23.764293670654297,591.5261609554291
D4:22:CD:00:49:AA,54.053680419921875,-83.58625793457031,-104.00363159179688,-1.2364802360534668,-0.6891994476318359,-3.4032187461853027,591.5261609554291
D4:22:CD:00:05:6E,-17.74810028076172,-63.85044479370117,63.626129150390625,-3.495882034301758,4.121655464172363,-1.9865326881408691,591.5261609554291
D4:22:CD:00:05:5E,-35.9238395690918,-53.82193374633789,52.158164978027344,13.31631851196289,17.143150329589844,-19.501026153564453,591.5261609554291
D4:22:CD:00:05:5D,160.23751831054688,-66.59908294677734,65.77619934082031,2.2590999603271484,1.5738873481750488,-1.3921852111816406,591.5341663360596
D4:22:CD:00:05:6B,-59.331756591796875,35.74150085449219,168.93038940429688,-6.847295761108398,12.116827011108398,-28.967021942138672,591.5341663360596
D4:22:CD:00:49:AA,52.76069259643555,-82.65960693359375,-103.0018310546875,-1.6354503631591797,-1.455613613128662,0.7717008590698242,591.5341663360596
D4:22:CD:00:05:6E,-9.553013801574707,-64.81311798095703,57.988258361816406,-3.8903985023498535,4.955758094787598,1.2644615173339844,591.5341663360596
D4:22:CD:00:05:5E,-45.18739318847656,-59.46213912963867,59.910362243652344,-8.091045379638672,10.107414245605469,11.317445755004883,591.5341663360596
D4:22:CD:00:49:AA,56.176048278808594,-82.33084869384766,-106.75863647460938,-6.404498100280762,-2.1188015937805176,5.768231391906738,591.5391614437103
D4:22:CD:00:05:6E,0.48693522810935974,-65.40182495117188,52.03025817871094,-3.1190972328186035,5.6056318283081055,1.868128776550293,591.5391614437103
D4:22:CD:00:05:5E,-44.667335510253906,-63.06209945678711,63.489532470703125,-3.696268081665039,6.844405174255371,0.4664020538330078,591.5391614437103
D4:22:CD:00:05:5D,167.869873046875,-62.018821716308594,-131.63037109375,7.1417236328125,2.754030227661133,-2.727668285369873,591.5421621799469
D4:22:CD:00:05:6B,-44.57213592529297,-5.124297618865967,-54.94213104248047,7.711081504821777,-11.038244247436523,37.44098663330078,591.5421621799469
D4:22:CD:00:05:6E,8.027886390686035,-66.53811645507812,47.19265365600586,-3.9375996589660645,2.163827896118164,6.109975814819336,591.5421621799469
D4:22:CD:00:05:5E,-52.836883544921875,-66.13090515136719,68.63848114013672,9.004047393798828,-9.74138069152832,11.191658020019531,591.5421621799469
D4:22:CD:00:05:5D,-174.53457641601562,-37.79654312133789,-144.80288696289062,-0.14662808179855347,0.5609402656555176,1.1100082397460938,591.5454745292664
D4:22:CD:00:05:6B,-40.00766372680664,-17.23885726928711,-48.13474655151367,8.145198822021484,-4.632488250732422,28.473190307617188,591.5454745292664
D4:22:CD:00:49:AA,145.4762420654297,-74.94750213623047,139.3570098876953,-3.38560152053833,-1.1595351696014404,12.278816223144531,591.5454745292664
D4:22:CD:00:05:5D,-173.1610565185547,-38.574317932128906,-145.064453125,0.006350897252559662,0.22065946459770203,1.3622655868530273,591.5931277275085
D4:22:CD:00:05:6B,-32.740962982177734,-15.817708969116211,-40.61442184448242,13.928985595703125,1.3190760612487793,20.531280517578125,591.5931277275085
D4:22:CD:00:49:AA,160.63848876953125,-77.80072021484375,123.8803482055664,-1.493464708328247,-2.667576789855957,9.572488784790039,591.5931277275085
D4:22:CD:00:05:6E,131.148681640625,-83.28472900390625,10.258298873901367,-6.6679840087890625,-1.6676788330078125,17.238037109375,591.5931277275085
D4:22:CD:00:05:5E,138.0446014404297,-75.99823760986328,66.77617645263672,-9.785699844360352,-0.07310929894447327,9.737539291381836,591.5931277275085
D4:22:CD:00:05:5D,-171.23622131347656,-41.517398834228516,-145.53033447265625,-4.130378723144531,-0.2650396227836609,2.886624336242676,591.623467206955
D4:22:CD:00:05:6B,-15.326582908630371,-12.19809341430664,-36.488773345947266,13.28683090209961,3.9744129180908203,8.976461410522461,591.623467206955
D4:22:CD:00:49:AA,-174.95169067382812,-76.50408172607422,99.6080093383789,0.6143717765808105,-1.4299595355987549,6.390161514282227,591.623467206955
D4:22:CD:00:05:6E,133.453125,-68.77700805664062,13.94323444366455,1.061535120010376,-5.782308578491211,10.649665832519531,591.623467206955
D4:22:CD:00:05:5E,172.3885498046875,-70.42412567138672,35.3343505859375,-8.480140686035156,7.275838851928711,0.7163877487182617,591.623467206955
D4:22:CD:00:05:5D,-169.5598602294922,-45.734954833984375,-146.62155151367188,-5.4718732833862305,3.1372594833374023,3.023548126220703,591.6834728717804
D4:22:CD:00:05:6B,2.0381836891174316,-8.200135231018066,-37.09510803222656,5.103437423706055,6.048464775085449,2.3263731002807617,591.6834728717804
D4:22:CD:00:49:AA,-165.4179229736328,-75.70540618896484,91.1219711303711,-2.4981279373168945,0.9801266193389893,7.735931396484375,591.6834728717804
D4:22:CD:00:05:6E,124.28581237792969,-66.54145050048828,34.409481048583984,0.7338073253631592,-3.267361640930176,3.1998329162597656,591.6834728717804
D4:22:CD:00:05:5E,-149.28138732910156,-69.82749938964844,3.6221044063568115,-7.179383277893066,6.3675079345703125,-3.8307595252990723,591.6834728717804
D4:22:CD:00:05:5D,-168.63389587402344,-51.22159194946289,-147.5195770263672,-4.722240447998047,0.06285654008388519,6.071061134338379,591.7134597301483
D4:22:CD:00:05:6B,18.19529914855957,-0.4846670925617218,-40.4346923828125,-7.464750289916992,-8.233709335327148,-0.5756406784057617,591.7134597301483
D4:22:CD:00:49:AA,-147.98641967773438,-76.79618072509766,76.24346160888672,-0.0019114827737212181,1.782700538635254,5.373126983642578,591.7134597301483
D4:22:CD:00:05:6E,123.86035919189453,-67.257080078125,53.6451416015625,-4.869415283203125,-5.189716339111328,-1.280716896057129,591.7134597301483
D4:22:CD:00:05:5E,-114.23883056640625,-67.06292724609375,-26.311410903930664,-5.691715240478516,7.133291244506836,-7.0570220947265625,591.7134597301483
D4:22:CD:00:05:5D,-169.08157348632812,-59.12677764892578,-150.8494110107422,-6.619275093078613,-6.273880958557129,4.146280288696289,591.7454838752747
D4:22:CD:00:05:6B,28.09170150756836,9.027676582336426,-40.68974685668945,-12.73855209350586,-14.947317123413086,-8.517372131347656,591.7454838752747
D4:22:CD:00:49:AA,-129.108154296875,-78.01058959960938,61.48102569580078,3.3144707679748535,2.5401206016540527,-2.724346160888672,591.7454838752747
D4:22:CD:00:05:6E,136.2047119140625,-67.27935791015625,63.70176696777344,-4.9973649978637695,-7.453935623168945,-13.173284530639648,591.7454838752747
D4:22:CD:00:05:5E,-86.96897888183594,-61.56254577636719,-52.7968864440918,-5.602268218994141,6.469561576843262,-6.7053985595703125,591.7454838752747
D4:22:CD:00:05:5D,-174.22068786621094,-65.62105560302734,-152.98609924316406,0.6937158107757568,-0.031131163239479065,-3.9860687255859375,591.7739272117615
D4:22:CD:00:05:6B,28.237642288208008,16.782047271728516,-35.503849029541016,-12.921829223632812,-6.879522323608398,-11.589221954345703,591.7739272117615
D4:22:CD:00:49:AA,-114.5913314819336,-78.57229614257812,50.93199157714844,0.536888599395752,2.729531764984131,-4.439533233642578,591.7739272117615
D4:22:CD:00:05:6E,151.5259246826172,-69.22640228271484,66.68262481689453,2.266085147857666,-13.138925552368164,-9.213598251342773,591.7739272117615
D4:22:CD:00:05:5E,-70.4185562133789,-53.77533721923828,-72.67325592041016,-5.898896217346191,-0.506496787071228,-6.46339225769043,591.7739272117615
D4:22:CD:00:05:5D,-176.9931182861328,-70.55789184570312,-150.3360137939453,2.744429588317871,-3.79311466217041,-4.155573844909668,591.8037757873535
D4:22:CD:00:05:6B,24.541263580322266,23.6016788482666,-27.098134994506836,-9.18075942993164,2.1963839530944824,-10.552515029907227,591.8037757873535
D4:22:CD:00:49:AA,-100.83321380615234,-79.09362030029297,40.482269287109375,-1.5452461242675781,2.391697406768799,-8.573080062866211,591.8037757873535
D4:22:CD:00:05:6E,154.87091064453125,-71.67680358886719,67.1192855834961,3.094973564147949,-13.633384704589844,-8.123058319091797,591.8037757873535
D4:22:CD:00:05:5E,-63.31715393066406,-46.577789306640625,-86.88800048828125,-7.1919355392456055,-12.122760772705078,-8.59566879272461,591.8037757873535
D4:22:CD:00:05:5D,-173.08790588378906,-74.84435272216797,-152.07357788085938,4.506850242614746,-7.017165184020996,-6.039665222167969,591.8331446647644
D4:22:CD:00:05:6B,19.150672912597656,29.400699615478516,-19.352445602416992,-4.847598075866699,6.013776779174805,-7.280490875244141,591.8331446647644
D4:22:CD:00:49:AA,-81.03666687011719,-79.63079071044922,23.64963722229004,0.5569179058074951,-0.8754696846008301,-12.016069412231445,591.8331446647644
D4:22:CD:00:05:6E,140.79617309570312,-74.68963623046875,68.3689956665039,4.51065731048584,-7.061190605163574,-3.3363733291625977,591.8331446647644
D4:22:CD:00:05:5E,-66.2271499633789,-42.49346923828125,-95.35759735107422,-10.314546585083008,-15.2916259765625,-12.786537170410156,591.8331446647644
D4:22:CD:00:05:5D,-170.22679138183594,-77.51390838623047,-157.28518676757812,6.786042213439941,2.5539116859436035,-7.0236310958862305,591.8632934093475
D4:22:CD:00:05:6B,15.244585990905762,35.02104568481445,-18.095470428466797,0.34140539169311523,4.886375427246094,-6.055733680725098,591.8632934093475
D4:22:CD:00:49:AA,-67.9039306640625,-79.0097885131836,12.492984771728516,1.310934066772461,-1.1057860851287842,-10.842348098754883,591.8632934093475
D4:22:CD:00:05:6E,118.67142486572266,-77.44889068603516,77.47309875488281,0.3417959213256836,0.775532603263855,-5.630061149597168,591.8632934093475
D4:22:CD:00:05:5E,-73.2765121459961,-41.2927131652832,-99.19574737548828,-14.058769226074219,-8.317651748657227,-12.261974334716797,591.8632934093475
D4:22:CD:00:05:5D,-173.06182861328125,-77.44434356689453,-156.35574340820312,0.4858282804489136,-2.298581123352051,-6.6110687255859375,591.893785238266
D4:22:CD:00:05:6B,12.598209381103516,40.12983322143555,-26.530513763427734,1.1300153732299805,6.850495338439941,-8.882148742675781,591.893785238266
D4:22:CD:00:49:AA,-61.132606506347656,-78.44554901123047,6.936791896820068,1.1313793659210205,-0.5041248798370361,-7.465666770935059,591.893785238266
D4:22:CD:00:05:6E,108.32001495361328,-76.90739440917969,88.80231475830078,2.346470832824707,2.401848316192627,-4.491376876831055,591.893785238266
D4:22:CD:00:05:5E,-76.8036880493164,-42.6457405090332,-100.3962173461914,-13.075912475585938,-10.426397323608398,-15.967081069946289,591.893785238266
D4:22:CD:00:05:5D,-177.65907287597656,-76.39014434814453,-150.21392822265625,-7.135614395141602,4.128202438354492,-0.9917230606079102,591.9241065979004
D4:22:CD:00:05:6B,2.3715479373931885,40.68705368041992,-43.91126251220703,5.934340476989746,4.754619598388672,-14.261678695678711,591.9241065979004
D4:22:CD:00:49:AA,-56.847862243652344,-78.02457427978516,2.663421630859375,-1.6858794689178467,-0.25474148988723755,-3.188220500946045,591.9241065979004
D4:22:CD:00:05:6E,108.14059448242188,-74.15899658203125,99.58340454101562,2.0484304428100586,0.9784194231033325,-0.05095386505126953,591.9241065979004
D4:22:CD:00:05:5E,-85.56243896484375,-45.84369659423828,-96.42796325683594,-12.463945388793945,-8.396743774414062,-15.384933471679688,591.9241065979004
D4:22:CD:00:05:5D,175.77894592285156,-74.95657348632812,-141.08627319335938,-3.9577741622924805,-2.053004741668701,1.2254753112792969,591.9844839572906
D4:22:CD:00:05:6B,-13.250472068786621,34.636375427246094,-65.61859893798828,5.830421447753906,-23.503814697265625,-23.107616424560547,591.9844839572906
D4:22:CD:00:49:AA,-57.369075775146484,-77.98951721191406,1.8858314752578735,-1.0864675045013428,-0.6081843376159668,-1.0970087051391602,591.9844839572906
D4:22:CD:00:05:6E,110.94328308105469,-71.52339172363281,107.29254913330078,2.5965113639831543,-2.0325798988342285,2.7453746795654297,591.9844839572906
D4:22:CD:00:05:5E,-100.76416778564453,-48.87871170043945,-85.64127349853516,-14.824104309082031,-11.727293014526367,-9.090007781982422,591.9844839572906
D4:22:CD:00:05:5D,169.25413513183594,-74.25359344482422,-131.27915954589844,-0.5394073724746704,0.8215835094451904,3.8160085678100586,592.0130753517151
D4:22:CD:00:05:6B,-19.560073852539062,27.7310848236084,-83.53578186035156,-0.8634757995605469,-19.645164489746094,-21.288135528564453,592.0130753517151
D4:22:CD:00:49:AA,-63.324317932128906,-78.75066375732422,6.193853378295898,-0.06255903840065002,-1.38411545753479,1.6252117156982422,592.0130753517151
D4:22:CD:00:05:6E,111.95601654052734,-70.15352630615234,111.26069641113281,4.134249687194824,-4.6302642822265625,3.1495800018310547,592.0130753517151
D4:22:CD:00:05:5E,-117.5221176147461,-49.7274284362793,-71.46833038330078,19.523151397705078,-10.81397819519043,-3.7672343254089355,592.0130753517151
D4:22:CD:00:05:5D,160.80233764648438,-74.012451171875,-121.91346740722656,-0.957270622253418,0.6481517553329468,1.5568408966064453,592.044007062912
D4:22:CD:00:05:6B,-28.04851722717285,27.741073608398438,-81.58304595947266,3.0266261100769043,12.661504745483398,-6.561786651611328,592.044007062912
D4:22:CD:00:49:AA,-66.14405059814453,-79.09529876708984,7.839954376220703,0.5510461330413818,-1.1129207611083984,3.5423316955566406,592.044007062912
D4:22:CD:00:05:6E,112.05302429199219,-69.488525390625,110.21646881103516,3.6989431381225586,-2.8308916091918945,0.980412483215332,592.044007062912
D4:22:CD:00:05:5E,-124.16012573242188,-51.32455062866211,-61.71263122558594,15.163991928100586,-8.630790710449219,0.49248790740966797,592.044007062912
D4:22:CD:00:05:5D,151.0768585205078,-73.25521087646484,-112.55554962158203,-2.341477870941162,-2.2917327880859375,2.2599878311157227,592.0740056037903
D4:22:CD:00:05:6B,-29.71303367614746,30.225439071655273,-70.41387176513672,-7.286982536315918,-11.280601501464844,-1.696054458618164,592.0740056037903
D4:22:CD:00:49:AA,-71.94447326660156,-79.49568939208984,10.95824146270752,-0.21926462650299072,-1.7878575325012207,-1.8979215621948242,592.0740056037903
D4:22:CD:00:05:6E,113.48793029785156,-68.83010864257812,103.74127960205078,6.15096378326416,-0.6622463464736938,0.3636913299560547,592.0740056037903
D4:22:CD:00:05:5E,-137.87942504882812,-49.21153259277344,-52.18037033081055,5.151283264160156,-18.715896606445312,0.18675518035888672,592.0740056037903
D4:22:CD:00:05:5D,143.6403045654297,-71.43587493896484,-106.17776489257812,-3.461888313293457,-2.9235143661499023,5.23799991607666,592.1036310195923
D4:22:CD:00:05:6B,-19.151758193969727,29.202672958374023,-54.845237731933594,0.22321224212646484,-6.521036148071289,-19.124042510986328,592.1036310195923
D4:22:CD:00:49:AA,-83.71786499023438,-80.24458312988281,18.2431697845459,2.734396457672119,-2.344513416290283,-1.333953857421875,592.1036310195923
D4:22:CD:00:05:6E,112.89021301269531,-67.62286376953125,94.83827209472656,6.805506706237793,-0.34143900871276855,4.106559753417969,592.1036310195923
D4:22:CD:00:05:5E,-147.1562042236328,-46.92800521850586,-47.25743103027344,5.4681596755981445,2.2974300384521484,4.008996963500977,592.1036310195923
D4:22:CD:00:05:5D,137.12184143066406,-69.07379913330078,-102.74420166015625,-1.9256365299224854,-6.762892723083496,11.751127243041992,592.1336297988892
D4:22:CD:00:05:6B,-14.422586441040039,24.927906036376953,-39.43019104003906,-1.297943353652954,-7.119272232055664,-10.907730102539062,592.1336297988892
D4:22:CD:00:49:AA,-101.99010467529297,-80.0386962890625,31.67624282836914,5.487921714782715,-4.736455917358398,2.338184356689453,592.1336297988892
D4:22:CD:00:05:6E,105.85901641845703,-64.33142852783203,87.71328735351562,0.5940455198287964,3.5090909004211426,3.3870344161987305,592.1336297988892
D4:22:CD:00:05:5E,-147.6356964111328,-45.98944091796875,-44.46174240112305,3.042720317840576,-7.025178909301758,1.3937664031982422,592.1336297988892
D4:22:CD:00:05:5D,132.4068603515625,-67.7513427734375,-103.49288177490234,12.636327743530273,-5.127571105957031,0.23908615112304688,592.163715839386
D4:22:CD:00:05:6B,-12.51804256439209,18.360509872436523,-28.59431266784668,-7.633166313171387,6.498302459716797,-9.335737228393555,592.163715839386
D4:22:CD:00:49:AA,-116.72757720947266,-77.56793975830078,41.73160171508789,5.543140411376953,-0.5143289566040039,-0.3677806854248047,592.163715839386
D4:22:CD:00:05:6E,98.60419464111328,-60.03704833984375,84.31283569335938,1.887908935546875,17.829254150390625,-10.40058708190918,592.163715839386
D4:22:CD:00:05:5E,-149.6935272216797,-44.4478874206543,-40.90082550048828,0.277079701423645,-5.758687973022461,-1.0351800918579102,592.163715839386
D4:22:CD:00:05:5D,135.84420776367188,-64.24151611328125,-113.12794494628906,25.074752807617188,11.273378372192383,4.817168235778809,592.1934633255005
D4:22:CD:00:05:6B,-14.92269515991211,10.830906867980957,-19.104541778564453,-13.317251205444336,5.82340145111084,-6.0338335037231445,592.1934633255005
D4:22:CD:00:49:AA,-118.41813659667969,-75.98102569580078,42.78700637817383,3.005582809448242,4.362340927124023,-1.4072446823120117,592.1934633255005
D4:22:CD:00:05:6E,96.1496353149414,-57.28725051879883,85.4391860961914,-1.6258478164672852,9.145273208618164,-2.5234241485595703,592.1934633255005
D4:22:CD:00:05:5E,-152.02029418945312,-42.84489822387695,-38.19161605834961,0.8076133728027344,-6.454860687255859,-1.7872819900512695,592.1934633255005
D4:22:CD:00:05:5D,142.7949981689453,-56.490177154541016,-126.05685424804688,17.123092651367188,3.0096521377563477,0.9451684951782227,592.2239637374878
D4:22:CD:00:05:6B,-15.328076362609863,5.972909927368164,-8.06908893585205,-11.214471817016602,-0.6996579170227051,9.816059112548828,592.2239637374878
D4:22:CD:00:49:AA,-119.54903411865234,-76.22806549072266,45.10956954956055,1.0524873733520508,0.9922670125961304,1.8011894226074219,592.2239637374878
D4:22:CD:00:05:6E,98.97293853759766,-55.5975341796875,87.57714080810547,-6.236412048339844,9.013347625732422,1.6827545166015625,592.2239637374878
D4:22:CD:00:05:5E,-153.94923400878906,-41.28675079345703,-36.72471237182617,0.5567153692245483,-6.0248823165893555,-0.9742298126220703,592.2239637374878
D4:22:CD:00:05:5D,148.00633239746094,-46.18341827392578,-137.21871948242188,7.54012393951416,0.8232260942459106,-3.3489861488342285,592.283961057663
D4:22:CD:00:05:6B,-9.019122123718262,9.40240478515625,4.107760429382324,-5.156684875488281,51.386192321777344,4.641672134399414,592.283961057663
D4:22:CD:00:49:AA,-123.45030212402344,-75.30070495605469,49.15251541137695,5.321043968200684,1.882347822189331,3.2792558670043945,592.283961057663
D4:22:CD:00:05:6E,105.78018951416016,-54.839786529541016,89.6333236694336,-8.414859771728516,2.3506107330322266,3.298651695251465,592.283961057663
D4:22:CD:00:05:5E,-155.65286254882812,-40.442466735839844,-36.09545135498047,1.6255488395690918,-5.292784690856934,-0.2252025604248047,592.283961057663
D4:22:CD:00:05:5D,152.52566528320312,-34.96858596801758,-145.02413940429688,0.6329739093780518,1.7968850135803223,-8.899297714233398,592.3135826587677
D4:22:CD:00:05:6B,-35.93955612182617,17.618450164794922,6.026516914367676,-23.010459899902344,3.823335647583008,-24.061756134033203,592.3135826587677
D4:22:CD:00:49:AA,-126.54161834716797,-74.2055892944336,52.29326248168945,8.488885879516602,2.2134475708007812,3.0694408416748047,592.3135826587677
D4:22:CD:00:05:6E,109.25860595703125,-54.0387077331543,89.59285736083984,-5.113225936889648,0.8615717887878418,3.7824697494506836,592.3135826587677
D4:22:CD:00:05:5E,-156.8236846923828,-41.00431823730469,-35.65150833129883,2.179802417755127,-4.282665252685547,0.34763050079345703,592.3135826587677
D4:22:CD:00:05:5D,157.78018188476562,-24.858224868774414,-150.12843322753906,-0.1925351619720459,3.205422878265381,-11.60519790649414,592.3437643051147
D4:22:CD:00:05:6B,-53.398433685302734,18.761371612548828,3.9164645671844482,-17.079971313476562,-15.350494384765625,1.4975700378417969,592.3437643051147
D4:22:CD:00:49:AA,-130.59117126464844,-74.06150817871094,55.65827560424805,5.714290618896484,2.8780689239501953,3.148270606994629,592.3437643051147
D4:22:CD:00:05:6E,110.9613037109375,-53.03314208984375,88.11802673339844,-0.1205524355173111,3.1941399574279785,3.7921810150146484,592.3437643051147
D4:22:CD:00:05:5E,-156.9649200439453,-43.17112731933594,-34.79886245727539,3.920403003692627,-6.274753570556641,-0.09413433074951172,592.3437643051147
D4:22:CD:00:05:5D,163.6599884033203,-17.42828369140625,-154.5101318359375,1.8655879497528076,2.742217540740967,-7.26931095123291,592.3733148574829
D4:22:CD:00:05:6B,-58.60776901245117,14.354817390441895,3.7323317527770996,-12.785873413085938,-1.2588934898376465,-1.2533674240112305,592.3733148574829
D4:22:CD:00:49:AA,-135.14971923828125,-73.8667221069336,58.830352783203125,2.722635269165039,1.282015085220337,3.3097143173217773,592.3733148574829
D4:22:CD:00:05:6E,112.87735748291016,-51.91337203979492,87.8690185546875,0.816269040107727,2.953418254852295,1.1917924880981445,592.3733148574829
D4:22:CD:00:05:5E,-154.22360229492188,-47.46722412109375,-34.347068786621094,1.6079316139221191,-6.057073593139648,-3.07833194732666,592.3733148574829
D4:22:CD:00:05:5D,168.90512084960938,-14.474841117858887,-158.7901611328125,-3.0599594116210938,1.3956949710845947,-7.831927299499512,592.4043326377869
D4:22:CD:00:05:6B,-64.85875701904297,3.87538743019104,6.175900936126709,-1.1987521648406982,-5.973335266113281,-16.049442291259766,592.4043326377869
D4:22:CD:00:49:AA,-137.90269470214844,-74.19524383544922,62.057437896728516,2.156708240509033,1.8095042705535889,-0.2403106689453125,592.4043326377869
D4:22:CD:00:05:6E,116.83260345458984,-50.023380279541016,89.26960754394531,3.5836429595947266,1.8321638107299805,-2.073934555053711,592.4043326377869
D4:22:CD:00:05:5E,-150.91140747070312,-49.341270446777344,-34.62948226928711,1.7939374446868896,-5.875480651855469,-2.4722776412963867,592.4043326377869
D4:22:CD:00:05:5D,170.80799865722656,-17.81890869140625,-163.87551879882812,-13.027341842651367,4.060735702514648,-9.719388961791992,592.4342992305756
D4:22:CD:00:05:6B,-74.69320678710938,-11.90722370147705,12.019794464111328,8.334938049316406,-3.235442638397217,-7.970900535583496,592.4342992305756
D4:22:CD:00:49:AA,-139.5967254638672,-74.67658996582031,64.79733276367188,3.4536290168762207,1.334223747253418,-3.792858123779297,592.4342992305756
D4:22:CD:00:05:6E,118.53905487060547,-47.79131317138672,92.04981231689453,3.8362135887145996,-0.030367475003004074,-4.542942047119141,592.4342992305756
D4:22:CD:00:05:5E,-149.4009246826172,-48.39697265625,-35.09659957885742,5.713369369506836,-4.923431396484375,-1.0770235061645508,592.4342992305756
D4:22:CD:00:05:5D,165.597412109375,-25.212812423706055,-166.8206024169922,-11.927608489990234,8.86652946472168,22.948680877685547,592.4633598327637
D4:22:CD:00:05:6B,-81.6710433959961,-30.941692352294922,20.392898559570312,9.282127380371094,3.072577476501465,7.2460784912109375,592.4633598327637
D4:22:CD:00:49:AA,-142.6568603515625,-75.04933166503906,67.8292465209961,5.933431625366211,0.3330954313278198,-6.071342468261719,592.4633598327637
D4:22:CD:00:05:6E,119.45980834960938,-45.08342361450195,95.06903076171875,3.557015895843506,-3.2730860710144043,-1.505335807800293,592.4633598327637
D4:22:CD:00:05:5E,-149.8097686767578,-45.61375045776367,-35.479286193847656,0.3245747685432434,-3.0989437103271484,-2.762418270111084,592.4633598327637
D4:22:CD:00:05:5D,167.0985870361328,-29.559648513793945,-163.97251892089844,-21.418106079101562,-14.401643753051758,-14.470314025878906,592.4933235645294
D4:22:CD:00:05:6B,-85.33673095703125,-52.833152770996094,34.736698150634766,18.098609924316406,7.3704633712768555,15.747896194458008,592.4933235645294
D4:22:CD:00:49:AA,-147.38780212402344,-75.16647338867188,70.35543060302734,5.311911582946777,-1.0958845615386963,-6.507325172424316,592.4933235645294
D4:22:CD:00:05:6E,115.05648040771484,-40.480194091796875,97.42416381835938,3.3781914710998535,-4.888069152832031,5.639604568481445,592.4933235645294
D4:22:CD:00:05:5E,-151.5109405517578,-42.89527130126953,-35.4447021484375,-4.63191032409668,-1.0259160995483398,-4.731734275817871,592.4933235645294
D4:22:CD:00:05:5D,179.94442749023438,-32.2897834777832,-161.11289978027344,-14.040853500366211,-7.718971252441406,-1.9603209495544434,592.5233502388
D4:22:CD:00:05:6B,-77.46255493164062,-70.45781707763672,43.78351593017578,-1.2968974113464355,18.502452850341797,45.21240234375,592.5233502388
D4:22:CD:00:49:AA,-151.11878967285156,-75.09133911132812,70.8776626586914,-1.6683406829833984,-0.7600754499435425,-2.7222704887390137,592.5233502388
D4:22:CD:00:05:6E,105.19844055175781,-33.25511932373047,99.08118438720703,4.830649375915527,-1.4477009773254395,5.898891448974609,592.5233502388
D4:22:CD:00:05:5E,-153.7348175048828,-40.790245056152344,-35.098121643066406,2.992827892303467,-11.674341201782227,-3.6631593704223633,592.5233502388
D4:22:CD:00:05:5D,-174.91766357421875,-33.17478561401367,-159.79812622070312,-18.266159057617188,10.241680145263672,10.03315544128418,592.5834197998047
D4:22:CD:00:05:6B,-71.70997619628906,-68.32244873046875,42.98977279663086,16.007118225097656,24.259445190429688,-11.14439582824707,592.5834197998047
D4:22:CD:00:49:AA,-153.63973999023438,-74.89055633544922,71.10102081298828,-10.118745803833008,-1.1927084922790527,-0.6459693908691406,592.5834197998047
D4:22:CD:00:05:6E,97.37644958496094,-22.644468307495117,101.93077850341797,8.84488296508789,7.565305709838867,8.451906204223633,592.5834197998047
D4:22:CD:00:05:5E,-154.88414001464844,-38.87224578857422,-34.427734375,1.967515230178833,-4.666221618652344,-0.6023006439208984,592.5834197998047
D4:22:CD:00:05:5D,177.51446533203125,-28.914756774902344,-159.33010864257812,-18.328296661376953,-10.189657211303711,10.367271423339844,592.6139349937439
D4:22:CD:00:05:6B,-85.40715789794922,-51.693302154541016,41.96725082397461,3.1853561401367188,3.5832934379577637,28.636863708496094,592.6139349937439
D4:22:CD:00:49:AA,-158.07521057128906,-73.24998474121094,76.01283264160156,-0.658312201499939,-4.6179399490356445,4.7974958419799805,592.6139349937439
D4:22:CD:00:05:6E,97.98544311523438,-8.979963302612305,105.49725341796875,7.866739273071289,2.0282669067382812,11.495796203613281,592.6139349937439
D4:22:CD:00:05:5E,-157.77687072753906,-36.164337158203125,-34.10192108154297,1.626960039138794,-5.929041862487793,-0.6011543273925781,592.6139349937439
D4:22:CD:00:05:5D,169.83544921875,-21.050819396972656,-158.23468017578125,-19.360862731933594,-10.596847534179688,11.099411010742188,592.643933057785
D4:22:CD:00:05:6B,-79.41399383544922,-38.64897537231445,35.384368896484375,16.120506286621094,11.430992126464844,6.293912887573242,592.643933057785
D4:22:CD:00:49:AA,-159.1489715576172,-73.21954345703125,77.33308410644531,5.070465087890625,0.953660249710083,4.325021743774414,592.643933057785
D4:22:CD:00:05:6E,99.0692138671875,8.538751602172852,106.63946533203125,8.023622512817383,6.341333389282227,18.38068389892578,592.643933057785
D4:22:CD:00:05:5E,-159.48924255371094,-35.52150344848633,-33.52353286743164,3.1476011276245117,-4.572925567626953,1.5279321670532227,592.643933057785
D4:22:CD:00:05:5D,166.01808166503906,-13.114934921264648,-157.56207275390625,-19.312000274658203,-2.8954477310180664,9.233369827270508,592.6731226444244
D4:22:CD:00:05:6B,-80.04351806640625,-31.246793746948242,27.59066390991211,6.956500053405762,0.6546552181243896,-0.6497726440429688,592.6731226444244
D4:22:CD:00:49:AA,-158.48619079589844,-74.31153869628906,76.49784088134766,3.3229074478149414,3.410501003265381,1.8295164108276367,592.6731226444244
D4:22:CD:00:05:6E,89.48452758789062,29.420995712280273,104.35540008544922,3.7271170616149902,16.604454040527344,12.058809280395508,592.6731226444244
D4:22:CD:00:05:5E,-159.98643493652344,-37.374549865722656,-32.46885681152344,1.3509128093719482,-5.802550315856934,1.2210912704467773,592.6731226444244
D4:22:CD:00:05:5D,164.65045166015625,-8.124608993530273,-157.5391082763672,-6.053542137145996,2.8897695541381836,1.8398199081420898,592.7036471366882
D4:22:CD:00:05:6B,-83.06925964355469,-32.075294494628906,19.467918395996094,-5.2653913497924805,-5.743722915649414,1.718409538269043,592.7036471366882
D4:22:CD:00:49:AA,-161.4657745361328,-74.87114715576172,78.61984252929688,6.295431137084961,2.2401390075683594,12.30534553527832,592.7036471366882
D4:22:CD:00:05:6E,67.68140411376953,47.54226303100586,98.42498016357422,2.1665148735046387,12.128044128417969,3.854633331298828,592.7036471366882
D4:22:CD:00:05:5E,-159.32725524902344,-41.38507080078125,-32.689571380615234,0.032341763377189636,-8.34326171875,0.8706369400024414,592.7036471366882
D4:22:CD:00:05:5D,166.75550842285156,-7.100028991699219,-158.0290985107422,1.087817668914795,6.933475494384766,-4.0799150466918945,592.7340145111084
D4:22:CD:00:05:6B,-87.15225982666016,-41.663360595703125,14.757024765014648,-12.958589553833008,-1.4136147499084473,0.3963890075683594,592.7340145111084
D4:22:CD:00:49:AA,-165.1887664794922,-76.58580780029297,81.42063903808594,5.811618804931641,3.729267120361328,9.888664245605469,592.7340145111084
D4:22:CD:00:05:6E,38.95332336425781,59.844234466552734,91.07389068603516,-8.898744583129883,4.327786445617676,3.8732872009277344,592.7340145111084
D4:22:CD:00:05:5E,-156.87271118164062,-47.90334701538086,-35.1011848449707,9.954179763793945,-12.973957061767578,5.926231384277344,592.7340145111084
D4:22:CD:00:05:5D,167.39971923828125,-10.603188514709473,-158.95008850097656,2.0083823204040527,7.679421424865723,-8.694599151611328,592.7633922100067
D4:22:CD:00:05:6B,-96.15193176269531,-55.11686706542969,15.447395324707031,-12.767444610595703,2.3940539360046387,1.8811569213867188,592.7633922100067
D4:22:CD:00:49:AA,-169.43154907226562,-78.4115982055664,84.92613220214844,2.5914697647094727,4.047335624694824,7.444395065307617,592.7633922100067
D4:22:CD:00:05:6E,11.326624870300293,68.58476257324219,85.12208557128906,-1.8298397064208984,0.42694371938705444,0.7221689224243164,592.7633922100067
D4:22:CD:00:05:5E,-145.4165496826172,-55.617454528808594,-41.31599044799805,-5.23270320892334,-13.090753555297852,3.7095909118652344,592.7633922100067
D4:22:CD:00:05:5D,164.7694549560547,-18.49772071838379,-159.5260467529297,-0.6881359815597534,3.565610408782959,-16.757137298583984,592.7939746379852
D4:22:CD:00:05:6B,-111.75254821777344,-68.49677276611328,25.92927360534668,-10.319978713989258,0.7388348579406738,-3.0900535583496094,592.7939746379852
D4:22:CD:00:49:AA,-177.60897827148438,-80.00471496582031,92.14166259765625,3.8071999549865723,1.3957743644714355,2.4741859436035156,592.7939746379852
D4:22:CD:00:05:6E,-6.749932289123535,75.62041473388672,75.97197723388672,1.746838092803955,0.24363291263580322,-0.7823324203491211,592.7939746379852
D4:22:CD:00:05:5E,-137.1794891357422,-57.172340393066406,-44.72064208984375,-17.037792205810547,-1.3431291580200195,3.748459815979004,592.7939746379852
D4:22:CD:00:05:5D,161.6953125,-30.168209075927734,-159.4068603515625,-5.943068504333496,-0.0778295248746872,-19.092388153076172,592.8831479549408
D4:22:CD:00:05:6B,-155.12217712402344,-76.90519714355469,64.43031311035156,-7.23921012878418,4.471856117248535,-5.131935119628906,592.8831479549408
D4:22:CD:00:49:AA,165.8603057861328,-80.49163818359375,106.72926330566406,5.215714454650879,-1.338669776916504,-5.25571346282959,592.8831479549408
D4:22:CD:00:05:6E,-15.274127006530762,80.15422058105469,62.21036148071289,-1.2116234302520752,-0.46374398469924927,-3.665024757385254,592.8831479549408
D4:22:CD:00:05:5E,-142.60549926757812,-51.26554489135742,-40.09156036376953,-0.2546277642250061,-8.054887771606445,-13.357955932617188,592.8831479549408
D4:22:CD:00:05:5D,160.0100860595703,-44.432151794433594,-158.6770782470703,-7.566525459289551,-2.7328596115112305,-15.487508773803711,592.8892939090729
D4:22:CD:00:05:6B,164.86871337890625,-79.89559173583984,99.0754165649414,-26.996334075927734,20.090347290039062,-8.75910758972168,592.8892939090729
D4:22:CD:00:49:AA,151.49449157714844,-80.32146453857422,118.68948364257812,0.3345071077346802,-3.072366714477539,-11.310901641845703,592.8892939090729
D4:22:CD:00:05:6E,-15.806755065917969,83.75735473632812,54.62641525268555,-4.6434221267700195,3.7532596588134766,-8.73756217956543,592.8892939090729
D4:22:CD:00:05:5E,-151.13426208496094,-48.64851760864258,-40.09823989868164,8.828619003295898,0.519760251045227,-24.11224365234375,592.8892939090729
D4:22:CD:00:05:5D,160.58197021484375,-61.213871002197266,-158.56674194335938,-4.440377235412598,-0.6754305362701416,-4.382014274597168,592.9138984680176
D4:22:CD:00:05:6B,125.77288055419922,-83.10050964355469,132.3290557861328,-9.124469757080078,10.019205093383789,-9.591039657592773,592.9138984680176
D4:22:CD:00:49:AA,139.70986938476562,-80.49382781982422,127.77346801757812,-2.614413261413574,2.0174765586853027,-7.865808486938477,592.9138984680176
D4:22:CD:00:05:6E,47.13716506958008,86.03968048095703,115.15203094482422,0.45800530910491943,-3.070939064025879,-9.206653594970703,592.9138984680176
D4:22:CD:00:05:5E,-154.9682159423828,-48.932640075683594,-41.665374755859375,-3.1979713439941406,0.45496582984924316,15.151836395263672,592.9138984680176
D4:22:CD:00:05:5D,164.12939453125,-80.89653778076172,-162.16876220703125,0.567283034324646,-0.05216965079307556,10.164527893066406,592.9440705776215
D4:22:CD:00:05:6B,74.02759552001953,-83.55052947998047,-179.98838806152344,1.9203450679779053,3.3824071884155273,-12.96221923828125,592.9440705776215
D4:22:CD:00:49:AA,123.03810119628906,-81.80355834960938,142.0057830810547,-0.25467073917388916,2.7115120887756348,-7.797348976135254,592.9440705776215
D4:22:CD:00:05:6E,89.10585021972656,77.44599914550781,156.16586303710938,-3.1875572204589844,-1.0361618995666504,-14.62945556640625,592.9440705776215
D4:22:CD:00:05:5E,-157.25668334960938,-47.85858154296875,-42.388916015625,7.560168266296387,2.4203691482543945,-5.081057548522949,592.9440705776215
D4:22:CD:00:05:5D,-23.20608139038086,-78.16858673095703,27.653596878051758,15.444808959960938,-2.7025818824768066,30.448562622070312,592.9740686416626
D4:22:CD:00:05:6B,42.944583892822266,-80.97413635253906,-152.67015075683594,4.052641868591309,-2.0384092330932617,-12.380504608154297,592.9740686416626
D4:22:CD:00:49:AA,105.8117904663086,-82.4627456665039,156.91268920898438,4.588258743286133,1.0226240158081055,-10.996683120727539,592.9740686416626
D4:22:CD:00:05:6E,89.2615966796875,62.62828826904297,159.7760009765625,-19.34882354736328,-1.2537529468536377,-24.12938690185547,592.9740686416626
D4:22:CD:00:05:5E,-159.3603057861328,-46.020050048828125,-43.086647033691406,5.230292320251465,-3.906022071838379,-1.0872726440429688,592.9740686416626
D4:22:CD:00:05:5D,-12.38412094116211,-63.94511795043945,19.902347564697266,26.492919921875,12.18149185180664,-39.18403625488281,593.0036561489105
D4:22:CD:00:05:6B,38.107444763183594,-77.4017562866211,-148.23162841796875,-1.6585125923156738,4.425409317016602,-8.825485229492188,593.0036561489105
D4:22:CD:00:49:AA,96.30961608886719,-82.12146759033203,164.01519775390625,1.3491332530975342,-0.13655009865760803,-5.636007308959961,593.0036561489105
D4:22:CD:00:05:6E,72.22834777832031,50.67634963989258,160.154296875,-22.607784271240234,0.6927582025527954,-12.857324600219727,593.0036561489105
D4:22:CD:00:05:5E,-163.84487915039062,-43.096778869628906,-44.08353042602539,5.763703346252441,-8.813148498535156,-1.6088943481445312,593.0036561489105
D4:22:CD:00:05:5D,-12.178519248962402,-66.55300903320312,15.415197372436523,22.32626724243164,1.468491554260254,-2.9080848693847656,593.0338048934937
D4:22:CD:00:05:6B,40.5946159362793,-74.16272735595703,-149.5805206298828,-0.8091014623641968,3.28995418548584,-6.5721845626831055,593.0338048934937
D4:22:CD:00:49:AA,100.23640441894531,-82.35004425048828,159.00572204589844,-2.862431526184082,-0.9898860454559326,-3.05609130859375,593.0338048934937
D4:22:CD:00:05:6E,57.496273040771484,53.42194366455078,158.25465393066406,14.37393569946289,7.797968864440918,-12.023975372314453,593.0338048934937
D4:22:CD:00:05:5E,-164.42654418945312,-41.591373443603516,-45.11418533325195,4.684774398803711,-6.482555389404297,1.597620964050293,593.0338048934937
D4:22:CD:00:05:5D,1.9038909673690796,-74.61669921875,2.0808162689208984,13.255950927734375,-5.300771713256836,3.5658960342407227,593.0638091564178
D4:22:CD:00:05:6B,44.478782653808594,-72.62124633789062,-155.71859741210938,-1.4826488494873047,2.415584087371826,-3.9241414070129395,593.0638091564178
D4:22:CD:00:49:AA,123.55323028564453,-82.77240753173828,135.1680145263672,2.665029525756836,0.46175068616867065,5.612054824829102,593.0638091564178
D4:22:CD:00:05:6E,54.44184875488281,63.17033004760742,149.04090881347656,-0.26637566089630127,-0.1484595239162445,-13.158798217773438,593.0638091564178
D4:22:CD:00:05:5E,-160.93734741210938,-41.87362289428711,-46.707427978515625,4.937531471252441,-10.560430526733398,0.5054931640625,593.0638091564178
D4:22:CD:00:05:5D,52.24839401245117,-81.44866180419922,-39.97240447998047,10.823286056518555,3.1463475227355957,3.7418556213378906,593.0940320491791
D4:22:CD:00:05:6B,56.72089767456055,-72.11573028564453,-172.6715087890625,-4.171086311340332,5.030657768249512,3.1142578125,593.0940320491791
D4:22:CD:00:49:AA,130.47372436523438,-84.01732635498047,129.30555725097656,1.7015199661254883,-0.41520214080810547,6.331056594848633,593.0940320491791
D4:22:CD:00:05:6E,30.76080322265625,76.9231948852539,120.34505462646484,-13.340887069702148,11.62563705444336,-18.632518768310547,593.0940320491791
D4:22:CD:00:05:5E,-157.29100036621094,-42.68378829956055,-49.18141555786133,4.568384170532227,-6.620114326477051,2.742513656616211,593.0940320491791
D4:22:CD:00:05:5D,116.6042251586914,-78.40067291259766,-97.53904724121094,-9.249032974243164,-1.5483386516571045,8.246112823486328,593.1240315437317
D4:22:CD:00:05:6B,78.30499267578125,-68.49307250976562,164.1409454345703,-6.853493690490723,9.206695556640625,4.353269577026367,593.1240315437317
D4:22:CD:00:49:AA,143.5528564453125,-85.12821960449219,118.48683166503906,0.9210798740386963,0.4762526750564575,3.5890750885009766,593.1240315437317
D4:22:CD:00:05:6E,-52.95891571044922,79.23558044433594,31.921518325805664,8.191471099853516,8.68349838256836,-14.847810745239258,593.1240315437317
D4:22:CD:00:05:5E,-150.53805541992188,-45.78074264526367,-52.765174865722656,8.958148956298828,-10.413055419921875,1.2171077728271484,593.1240315437317
D4:22:CD:00:05:5D,125.94409942626953,-76.01876068115234,-106.30699157714844,-15.294700622558594,-23.767807006835938,-3.3542532920837402,593.1834998130798
D4:22:CD:00:05:6B,100.00896453857422,-60.41598129272461,146.75869750976562,-7.900890350341797,6.458803176879883,1.512171745300293,593.1834998130798
D4:22:CD:00:49:AA,153.94064331054688,-85.93909454345703,112.41024017333984,1.5926718711853027,1.1883978843688965,4.700202941894531,593.1834998130798
D4:22:CD:00:05:6E,-80.24720001220703,68.50270080566406,-8.599964141845703,13.901735305786133,6.5052385330200195,-6.821063995361328,593.1834998130798
D4:22:CD:00:05:5E,-140.0419464111328,-47.412330627441406,-57.9678840637207,-2.905634880065918,-11.485328674316406,-6.033238410949707,593.1834998130798
D4:22:CD:00:05:5D,135.79873657226562,-77.41759490966797,-112.55805206298828,-0.002139465883374214,4.183222770690918,9.657691955566406,593.2140164375305
D4:22:CD:00:05:6B,116.90434265136719,-50.33307647705078,137.73623657226562,-7.620643615722656,10.219366073608398,-0.3938312530517578,593.2140164375305
D4:22:CD:00:49:AA,171.11521911621094,-85.59202575683594,101.1846694946289,0.8127715587615967,-0.5596081018447876,-3.1387686729431152,593.2140164375305
D4:22:CD:00:05:6E,-77.9755859375,59.58776092529297,-25.64631462097168,4.112091064453125,-2.971221446990967,-0.9818029403686523,593.2140164375305
D4:22:CD:00:05:5E,-129.20709228515625,-47.41238021850586,-60.51247024536133,-18.02545166015625,-6.067827224731445,5.985285758972168,593.2140164375305
D4:22:CD:00:05:5D,145.38218688964844,-78.7459716796875,-119.466796875,-3.4226903915405273,-3.4514222145080566,2.2740020751953125,593.2440156936646
D4:22:CD:00:05:6B,130.61074829101562,-42.72325897216797,136.5980224609375,-9.353353500366211,8.938871383666992,-2.4479970932006836,593.2440156936646
D4:22:CD:00:49:AA,-177.0956268310547,-81.2596664428711,95.16572570800781,-0.7225422859191895,-1.0744578838348389,-4.315025329589844,593.2440156936646
D4:22:CD:00:05:6E,-74.38176727294922,54.915157318115234,-35.94597244262695,1.131563425064087,-5.9648237228393555,7.809520721435547,593.2440156936646
D4:22:CD:00:05:5E,-119.30122375488281,-43.982643127441406,-57.8685188293457,-22.26620864868164,-14.798267364501953,4.292969703674316,593.2440156936646
D4:22:CD:00:05:5D,157.32199096679688,-79.3145980834961,-124.7102279663086,2.4523630142211914,-1.8359761238098145,-1.7665681838989258,593.2740201950073
D4:22:CD:00:05:6B,140.80064392089844,-41.12709045410156,137.92245483398438,-4.584602355957031,-2.0826168060302734,-0.809382438659668,593.2740201950073
D4:22:CD:00:49:AA,-178.29966735839844,-75.74019622802734,99.26004791259766,0.966827392578125,-0.6999939680099487,-0.5667486190795898,593.2740201950073
D4:22:CD:00:05:6E,-63.00186538696289,55.94437789916992,-41.635520935058594,6.847723007202148,-20.148967742919922,23.932411193847656,593.2740201950073
D4:22:CD:00:05:5E,-119.56980895996094,-36.723472595214844,-48.99813461303711,-11.4716796875,-12.889217376708984,-4.730658531188965,593.2740201950073
D4:22:CD:00:05:5D,168.5164337158203,-79.59375762939453,-134.5685577392578,-3.727302074432373,-3.7729101181030273,4.428071975708008,593.3035275936127
D4:22:CD:00:05:6B,144.6103057861328,-42.629173278808594,137.23287963867188,-2.8052992820739746,-0.18227362632751465,4.080010414123535,593.3035275936127
D4:22:CD:00:49:AA,176.87525939941406,-73.3780288696289,103.02741241455078,-1.6472365856170654,-0.6848722696304321,0.06122589111328125,593.3035275936127
D4:22:CD:00:05:6E,-35.18925476074219,65.5041732788086,-41.49507141113281,-12.469289779663086,-15.142017364501953,0.5805997848510742,593.3035275936127
D4:22:CD:00:05:5E,-125.80320739746094,-28.18087387084961,-38.91565704345703,-5.333856582641602,-5.277416229248047,-9.850276947021484,593.3035275936127
D4:22:CD:00:05:5D,174.06410217285156,-77.74241638183594,-138.70677185058594,-1.8776817321777344,-0.2892987132072449,-0.45684051513671875,593.3336796760559
D4:22:CD:00:05:6B,139.98851013183594,-44.64799118041992,135.91043090820312,-4.026134490966797,-1.6909880638122559,-0.9650716781616211,593.3336796760559
D4:22:CD:00:49:AA,173.45301818847656,-72.57508087158203,105.42784881591797,-3.2110180854797363,0.7476195096969604,0.3993711471557617,593.3336796760559
D4:22:CD:00:05:6E,9.37847900390625,77.10017395019531,-11.202775001525879,-12.417888641357422,9.357763290405273,-1.3483705520629883,593.3336796760559
D4:22:CD:00:05:5E,-132.74205017089844,-20.75787925720215,-29.65762710571289,-1.3668103218078613,-2.0390310287475586,-13.073564529418945,593.3336796760559
D4:22:CD:00:05:5D,177.1927032470703,-75.12098693847656,-139.7784881591797,1.322580337524414,-1.5283775329589844,-0.2798347473144531,593.3636782169342
D4:22:CD:00:05:6B,134.8590545654297,-47.32378387451172,133.79917907714844,-9.733993530273438,-3.557936191558838,-5.355659484863281,593.3636782169342
D4:22:CD:00:49:AA,172.64967346191406,-70.84627532958984,105.50995635986328,-3.200573444366455,3.3495049476623535,-1.4545230865478516,593.3636782169342
D4:22:CD:00:05:6E,63.61111068725586,72.44282531738281,42.25477981567383,-2.745725631713867,6.7620344161987305,3.859015464782715,593.3636782169342
D4:22:CD:00:05:5E,-139.49989318847656,-15.965846061706543,-22.41702651977539,0.3375067114830017,-2.8076672554016113,-11.8604736328125,593.3636782169342
D4:22:CD:00:05:5D,178.39254760742188,-72.51078796386719,-139.1548309326172,0.6991431713104248,-1.9034805297851562,-0.47885894775390625,593.3932554721832
D4:22:CD:00:05:6B,133.29849243164062,-50.63861846923828,132.2664794921875,-5.592135429382324,-0.4964160919189453,-2.960193634033203,593.3932554721832
D4:22:CD:00:49:AA,171.2563018798828,-70.42707824707031,106.7445297241211,-2.29140043258667,1.8730733394622803,-1.1285076141357422,593.3932554721832
D4:22:CD:00:05:6E,71.78448486328125,57.636512756347656,51.55931854248047,-4.182012557983398,0.7226359844207764,-1.9754457473754883,593.3932554721832
D4:22:CD:00:05:5E,-145.13424682617188,-14.688928604125977,-16.836864471435547,4.552204132080078,-0.8883148431777954,-7.371246337890625,593.3932554721832
D4:22:CD:00:05:5D,178.69168090820312,-69.78180694580078,-136.80850219726562,-0.270283043384552,-0.512547492980957,0.17499351501464844,593.4234261512756
D4:22:CD:00:05:6B,129.17184448242188,-54.00153350830078,132.1558074951172,-3.5111260414123535,2.19100284576416,-3.717250347137451,593.4234261512756
D4:22:CD:00:49:AA,166.8543243408203,-70.0799331665039,110.19703674316406,0.1561465859413147,0.7223415374755859,-1.9684200286865234,593.4234261512756
D4:22:CD:00:05:6E,65.0333480834961,39.19501876831055,45.61815643310547,0.6675822734832764,2.666116237640381,-8.85891342163086,593.4234261512756
D4:22:CD:00:05:5E,-146.1411590576172,-17.682952880859375,-13.308450698852539,7.826099395751953,-0.27905166149139404,-6.5030317306518555,593.4234261512756
D4:22:CD:00:05:5D,177.9905548095703,-66.85272979736328,-133.5780792236328,-0.6617046594619751,-0.36186331510543823,-0.29274463653564453,593.4833765029907
D4:22:CD:00:05:6B,119.05157470703125,-57.43870162963867,134.19554138183594,-1.9050650596618652,3.414266586303711,-5.689188003540039,593.4833765029907
D4:22:CD:00:49:AA,162.07008361816406,-69.85504913330078,113.45504760742188,0.1887887716293335,-0.43309152126312256,-1.9728012084960938,593.4833765029907
D4:22:CD:00:05:6E,56.667083740234375,18.2325382232666,38.1604118347168,11.471078872680664,3.545409679412842,-14.484731674194336,593.4833765029907
D4:22:CD:00:05:5E,-139.82598876953125,-23.605735778808594,-12.013428688049316,9.81944465637207,-0.15680506825447083,6.248035430908203,593.4833765029907
D4:22:CD:00:05:5D,176.5675506591797,-63.36471939086914,-130.3700408935547,-0.5242722034454346,0.05204342305660248,-0.48447227478027344,593.5136663913727
D4:22:CD:00:05:6B,102.7536392211914,-61.25471496582031,139.38314819335938,-2.647617816925049,3.702380657196045,-7.958230018615723,593.5136663913727
D4:22:CD:00:49:AA,157.57327270507812,-70.01040649414062,116.26049041748047,-1.3269596099853516,0.6863327026367188,-3.687145233154297,593.5136663913727
D4:22:CD:00:05:6E,51.059974670410156,-3.2822394371032715,36.27674102783203,19.256206512451172,1.8586926460266113,-7.958395004272461,593.5136663913727
D4:22:CD:00:05:5E,-129.01356506347656,-27.193979263305664,-12.58938217163086,8.029447555541992,-5.632839202880859,6.39442253112793,593.5136663913727
D4:22:CD:00:05:5D,175.10191345214844,-59.81187057495117,-128.20654296875,0.11866593360900879,0.1016782820224762,-0.24524211883544922,593.5429947376251
D4:22:CD:00:05:6B,82.68103790283203,-66.23636627197266,148.60365295410156,-11.070087432861328,12.145086288452148,-12.617202758789062,593.5429947376251
D4:22:CD:00:49:AA,154.88270568847656,-70.37556457519531,118.56537628173828,-3.4141664505004883,0.15984460711479187,-1.3720464706420898,593.5429947376251
D4:22:CD:00:05:6E,42.345787048339844,-25.287490844726562,43.59800720214844,21.698471069335938,7.519654273986816,1.2479562759399414,593.5429947376251
D4:22:CD:00:05:5E,-133.0273895263672,-28.137861251831055,-11.905904769897461,16.483036041259766,8.455284118652344,0.9600496292114258,593.5429947376251
D4:22:CD:00:05:5D,174.3649444580078,-56.553462982177734,-126.77063751220703,-1.343958854675293,2.291562557220459,0.699066162109375,593.5736174583435
D4:22:CD:00:05:6B,65.23918914794922,-71.90991973876953,165.64540100097656,-11.294759750366211,18.138092041015625,-6.528997421264648,593.5736174583435
D4:22:CD:00:49:AA,150.5675811767578,-70.79991912841797,124.14590454101562,-3.108104705810547,-0.16288328170776367,0.7693548202514648,593.5736174583435
D4:22:CD:00:05:6E,27.171754837036133,-42.900352478027344,62.301395416259766,23.05307388305664,29.808979034423828,40.43089294433594,593.5736174583435
D4:22:CD:00:05:5E,-133.83140563964844,-28.895782470703125,-13.206299781799316,17.2266845703125,-2.157890796661377,10.186182022094727,593.5736174583435
D4:22:CD:00:05:5D,174.63185119628906,-53.668556213378906,-126.29894256591797,-1.6871058940887451,2.4301323890686035,1.0333309173583984,593.6039991378784
D4:22:CD:00:05:6B,26.70648765563965,-75.80574798583984,-155.00852966308594,-14.402332305908203,19.951068878173828,2.1173973083496094,593.6039991378784
D4:22:CD:00:49:AA,143.84976196289062,-70.34114074707031,131.24412536621094,0.6509361267089844,0.7544150352478027,2.468327522277832,593.6039991378784
D4:22:CD:00:05:6E,23.326555252075195,-45.787147521972656,64.09215545654297,15.946062088012695,9.385444641113281,-4.274988174438477,593.6039991378784
D4:22:CD:00:05:5E,-134.63673400878906,-27.140644073486328,-14.121423721313477,19.477989196777344,-9.149337768554688,4.640368461608887,593.6039991378784
D4:22:CD:00:05:5D,175.4015350341797,-51.50532913208008,-127.43818664550781,-1.0569393634796143,1.0733389854431152,1.4797849655151367,593.633695602417
D4:22:CD:00:05:6B,-21.880029678344727,-70.55823516845703,-102.30159759521484,-20.186813354492188,27.95443344116211,8.738664627075195,593.633695602417
D4:22:CD:00:49:AA,142.15582275390625,-69.54312896728516,131.98165893554688,2.7253756523132324,1.4875171184539795,4.541658401489258,593.633695602417
D4:22:CD:00:05:6E,37.467899322509766,-44.79332733154297,58.841793060302734,14.571208953857422,10.704309463500977,-3.44329833984375,593.633695602417
D4:22:CD:00:05:5E,-135.9173126220703,-22.858434677124023,-13.988454818725586,20.282344818115234,-9.72724723815918,0.24514389038085938,593.633695602417
D4:22:CD:00:05:5D,176.9003143310547,-50.361942291259766,-130.1853790283203,-0.4707345962524414,1.4103593826293945,1.7022199630737305,593.6637244224548
D4:22:CD:00:05:6B,-44.755523681640625,-55.81376647949219,-71.97286224365234,-18.390403747558594,22.675369262695312,15.284563064575195,593.6637244224548
D4:22:CD:00:49:AA,145.3925323486328,-68.14871978759766,128.53099060058594,-1.8911247253417969,-0.7594541311264038,10.400402069091797,593.6637244224548
D4:22:CD:00:05:6E,42.37230682373047,-43.372398376464844,60.75286865234375,11.327070236206055,14.569183349609375,1.7658710479736328,593.6637244224548
D4:22:CD:00:05:5E,-137.6805419921875,-16.748289108276367,-13.615894317626953,19.58856964111328,-11.117572784423828,-1.307342529296875,593.6637244224548
D4:22:CD:00:05:5D,179.09121704101562,-50.33115768432617,-133.6079864501953,0.7501270771026611,0.7937314510345459,1.4588947296142578,593.6937680244446
D4:22:CD:00:05:6B,-46.29357147216797,-36.2718391418457,-54.39356994628906,-10.193710327148438,6.855832099914551,22.167259216308594,593.6937680244446
D4:22:CD:00:49:AA,146.89154052734375,-67.95877838134766,126.4529800415039,-3.236721992492676,-1.3431296348571777,7.618124008178711,593.6937680244446
D4:22:CD:00:05:6E,47.67356491088867,-45.56499099731445,63.864891052246094,10.24586296081543,19.695743560791016,0.12791061401367188,593.6937680244446
D4:22:CD:00:05:5E,-142.87974548339844,-12.19299602508545,-13.058294296264648,15.567556381225586,-10.27610969543457,-2.807403087615967,593.6937680244446
