Device,EulerX,EulerY,EulerZ,FreeAccX,FreeAccY,FreeAccZ,Timestamp
D4:22:CD:00:05:5D,178.40353393554688,-53.87826919555664,-155.47056579589844,0.33260291814804077,2.2678146362304688,2.1499767303466797,1406.0946741104126
D4:22:CD:00:05:6B,-57.1972541809082,-12.7957763671875,-54.371952056884766,2.514225482940674,7.456439018249512,14.374885559082031,1406.0946741104126
D4:22:CD:00:49:AA,141.4993438720703,-70.75999450683594,139.04270935058594,-6.079387664794922,-0.42914265394210815,7.759489059448242,1406.0946741104126
D4:22:CD:00:05:6E,50.29957580566406,3.2485148906707764,21.977691650390625,4.706564903259277,9.20510482788086,-4.924625396728516,1406.0946741104126
D4:22:CD:00:05:5E,-156.0150604248047,-11.821945190429688,-30.35519790649414,4.752067565917969,4.264011383056641,-2.2024106979370117,1406.0946741104126
D4:22:CD:00:05:5D,-179.77259826660156,-57.48334503173828,-156.39158630371094,-0.33474016189575195,3.9745407104492188,2.2904253005981445,1406.106076002121
D4:22:CD:00:05:6B,-49.635459899902344,-1.3048505783081055,-43.15130615234375,8.959098815917969,3.6660780906677246,11.735790252685547,1406.106076002121
D4:22:CD:00:49:AA,144.19976806640625,-70.91946411132812,139.12535095214844,-5.813876152038574,0.5786083936691284,2.0093278884887695,1406.106076002121
D4:22:CD:00:05:6E,55.29725646972656,0.04765423387289047,27.773447036743164,1.6922099590301514,6.703778266906738,-2.113490104675293,1406.106076002121
D4:22:CD:00:05:5E,-148.65780639648438,-22.0516357421875,-36.55421829223633,-0.00570578221231699,3.0114192962646484,-5.63706111907959,1406.106076002121
D4:22:CD:00:05:5D,-176.12570190429688,-62.45467758178711,-159.81582641601562,1.0825510025024414,2.4013595581054688,3.553201675415039,1406.1099998950958
D4:22:CD:00:05:6B,-36.746307373046875,2.764439105987549,-34.80830764770508,-4.263167381286621,0.5882312059402466,9.32326889038086,1406.1099998950958
D4:22:CD:00:49:AA,148.3539581298828,-70.92391967773438,138.44427490234375,0.17058351635932922,1.3897452354431152,-1.2988061904907227,1406.1099998950958
D4:22:CD:00:05:6E,61.256168365478516,-4.856568813323975,35.34794235229492,2.9915332794189453,5.005627632141113,-0.09075641632080078,1406.1099998950958
D4:22:CD:00:05:5E,-143.91812133789062,-32.53348159790039,-44.30644989013672,-2.8381972312927246,1.2737209796905518,-8.083267211914062,1406.1099998950958
D4:22:CD:00:05:6B,-21.49491310119629,1.3688033819198608,-31.74059295654297,-11.490083694458008,-2.1794333457946777,0.043616294860839844,1406.1172261238098
D4:22:CD:00:49:AA,154.32948303222656,-70.85662841796875,135.7686004638672,1.9549355506896973,0.6432734727859497,-4.53388786315918,1406.1172261238098
D4:22:CD:00:05:6E,68.0860595703125,-11.007397651672363,43.551734924316406,1.5991487503051758,4.791982650756836,-3.5349278450012207,1406.1172261238098
D4:22:CD:00:05:5E,-142.2474822998047,-43.156673431396484,-52.93299102783203,-0.6122708320617676,-1.227576494216919,-4.966373443603516,1406.1172261238098
D4:22:CD:00:05:5D,163.42098999023438,-46.99785614013672,-106.73020935058594,0.3848452568054199,0.4038047194480896,2.0061187744140625,1406.1262238025665
D4:22:CD:00:05:6B,-30.72527503967285,-0.7541797161102295,-57.55471420288086,-0.5081319808959961,-5.543497085571289,23.699207305908203,1406.1262238025665
D4:22:CD:00:49:AA,152.4638214111328,-72.02234649658203,139.37857055664062,-6.864968299865723,-0.3325778841972351,11.767091751098633,1406.1262238025665
D4:22:CD:00:05:5D,164.40382385253906,-46.270896911621094,-108.0103759765625,1.770930528640747,0.014314215630292892,3.4862546920776367,1406.1576590538025
D4:22:CD:00:05:6B,-31.256065368652344,6.40302038192749,-49.4891357421875,2.615462303161621,-5.573054313659668,24.821548461914062,1406.1576590538025
D4:22:CD:00:49:AA,-153.61070251464844,-74.92389678955078,87.4907455444336,7.443310737609863,-0.4322082996368408,14.386198043823242,1406.1576590538025
D4:22:CD:00:05:6E,72.22650909423828,-84.45539093017578,62.321346282958984,-8.544666290283203,-0.5603827238082886,18.44634246826172,1406.1576590538025
D4:22:CD:00:05:5E,179.8772430419922,-69.56173706054688,-25.155651092529297,5.297579765319824,-4.37108039855957,19.7161865234375,1406.1576590538025
D4:22:CD:00:05:5D,166.87762451171875,-47.6977424621582,-110.00780487060547,1.8506226539611816,-0.511641263961792,2.709188461303711,1406.1876845359802
D4:22:CD:00:05:6B,-27.159263610839844,13.531999588012695,-39.47689437866211,-0.8321609497070312,-7.381504058837891,18.685741424560547,1406.1876845359802
D4:22:CD:00:49:AA,-167.6014404296875,-74.57426452636719,100.6309585571289,5.283733367919922,0.06646984815597534,8.43887710571289,1406.1876845359802
D4:22:CD:00:05:6E,103.33049774169922,-73.70349884033203,26.81477165222168,-0.6006090641021729,0.867719292640686,17.97583770751953,1406.1876845359802
D4:22:CD:00:05:5E,179.46511840820312,-77.4623794555664,-23.18010139465332,1.8307325839996338,-4.7925310134887695,17.382217407226562,1406.1876845359802
D4:22:CD:00:05:5D,169.97088623046875,-51.154109954833984,-112.29692840576172,1.2013661861419678,0.151664137840271,2.7803421020507812,1406.216680765152
D4:22:CD:00:05:6B,-15.612299919128418,18.251989364624023,-29.938491821289062,-6.5577392578125,-6.121430397033691,5.285506248474121,1406.216680765152
D4:22:CD:00:49:AA,177.6748046875,-72.98383331298828,115.60017395019531,-0.7692738771438599,-1.4239177703857422,5.559220314025879,1406.216680765152
D4:22:CD:00:05:6E,108.78237915039062,-67.37462615966797,22.335866928100586,5.262605667114258,1.222015380859375,8.434743881225586,1406.216680765152
D4:22:CD:00:05:5E,92.4830093383789,-86.0279312133789,58.53229904174805,-4.4276323318481445,-7.683062553405762,1.8847293853759766,1406.216680765152
D4:22:CD:00:05:5D,172.54225158691406,-56.49823760986328,-113.91272735595703,-3.0739312171936035,0.6651360988616943,4.7218170166015625,1406.2476913928986
D4:22:CD:00:05:6B,-2.7034285068511963,20.86838722229004,-23.213571548461914,-3.722702980041504,7.092959403991699,-3.033930778503418,1406.2476913928986
D4:22:CD:00:49:AA,178.29640197753906,-71.71514129638672,117.63365936279297,-1.3041412830352783,0.44329458475112915,2.822932243347168,1406.2476913928986
D4:22:CD:00:05:6E,114.80207824707031,-71.11448669433594,28.657135009765625,-9.02010726928711,-4.214278221130371,3.813854217529297,1406.2476913928986
D4:22:CD:00:05:5E,62.75541687011719,-79.59739685058594,85.63798522949219,3.086996555328369,5.091257095336914,3.1718950271606445,1406.2476913928986
D4:22:CD:00:05:5D,172.81527709960938,-63.002479553222656,-113.53226470947266,-3.8462419509887695,-3.4832234382629395,6.523963928222656,1406.277393579483
D4:22:CD:00:05:6B,7.901618003845215,22.34933090209961,-18.974767684936523,-5.129216194152832,-1.9856257438659668,-1.4010839462280273,1406.277393579483
D4:22:CD:00:49:AA,-175.0048370361328,-71.04434204101562,114.7218246459961,-0.09959177672863007,0.9802898168563843,-0.7768392562866211,1406.277393579483
D4:22:CD:00:05:6E,112.81730651855469,-71.13774871826172,37.92123031616211,-6.906549453735352,-3.6514577865600586,-3.0247817039489746,1406.277393579483
D4:22:CD:00:05:5E,38.13915252685547,-74.97914123535156,113.0641098022461,0.6841331720352173,6.800232887268066,-2.4810009002685547,1406.277393579483
D4:22:CD:00:05:5D,165.71788024902344,-70.68212890625,-110.84344482421875,-0.46350550651550293,-0.967953085899353,1.0702199935913086,1406.3089516162872
D4:22:CD:00:05:6B,18.049962997436523,23.858924865722656,-19.071176528930664,-3.223949432373047,4.016572952270508,-6.9921159744262695,1406.3089516162872
D4:22:CD:00:49:AA,-167.59030151367188,-69.62908172607422,111.06892395019531,-1.1343989372253418,0.6726812124252319,-6.025947570800781,1406.3089516162872
D4:22:CD:00:05:6E,109.90611267089844,-71.0966567993164,48.93077850341797,-4.570518493652344,0.3787246346473694,-6.956795692443848,1406.3089516162872
D4:22:CD:00:05:5E,19.56249237060547,-67.32999420166016,133.22499084472656,1.0638542175292969,6.0983123779296875,-5.660728454589844,1406.3089516162872
D4:22:CD:00:05:5D,158.26809692382812,-72.01375579833984,-100.88172912597656,3.8353309631347656,8.639753341674805,-4.956446647644043,1406.3369510173798
D4:22:CD:00:05:6B,22.29839324951172,25.553049087524414,-23.32084083557129,-0.18414652347564697,4.41480827331543,-6.816042900085449,1406.3369510173798
D4:22:CD:00:49:AA,-162.63868713378906,-67.8200454711914,108.50282287597656,-0.10274925827980042,1.5080833435058594,-10.602790832519531,1406.3369510173798
D4:22:CD:00:05:6E,111.28502655029297,-73.48042297363281,58.53219985961914,-5.923914909362793,-6.807961463928223,-5.279383659362793,1406.3369510173798
D4:22:CD:00:05:5E,10.378918647766113,-57.12646484375,143.51846313476562,-1.0859642028808594,6.06778621673584,-7.109188079833984,1406.3369510173798
D4:22:CD:00:05:5D,151.64956665039062,-67.93668365478516,-92.88420867919922,-0.14732521772384644,3.0083441734313965,-4.604147911071777,1406.3967118263245
D4:22:CD:00:05:6B,21.6812801361084,27.971345901489258,-32.216407775878906,1.8752713203430176,1.7207884788513184,-8.993812561035156,1406.3967118263245
D4:22:CD:00:49:AA,-159.5496063232422,-67.50618743896484,107.08598327636719,-0.1444394886493683,1.355813980102539,-10.883905410766602,1406.3967118263245
D4:22:CD:00:05:6E,106.94644927978516,-76.43328094482422,72.42617797851562,-4.454416275024414,-9.348155975341797,-7.1239471435546875,1406.3967118263245
D4:22:CD:00:05:5E,3.64076566696167,-46.25197982788086,148.4602813720703,-7.691170692443848,6.316417694091797,-11.39422607421875,1406.3967118263245
D4:22:CD:00:05:5D,146.07447814941406,-63.16054153442383,-85.72101593017578,-2.348752975463867,-8.073509216308594,-15.027708053588867,1406.4268164634705
D4:22:CD:00:05:6B,17.11842155456543,30.904918670654297,-46.0976676940918,5.248093605041504,3.2944936752319336,-12.352062225341797,1406.4268164634705
D4:22:CD:00:49:AA,-156.5773162841797,-69.45697021484375,106.00201416015625,-0.4925975203514099,1.3042571544647217,-5.782492637634277,1406.4268164634705
D4:22:CD:00:05:6E,96.04363250732422,-78.37427520751953,90.4840316772461,-3.381446361541748,-6.061929702758789,-10.422685623168945,1406.4268164634705
D4:22:CD:00:05:5E,-4.625049591064453,-37.281585693359375,150.26202392578125,-12.2977294921875,9.042123794555664,-18.46456527709961,1406.4268164634705
D4:22:CD:00:05:5D,145.8585205078125,-62.93882751464844,-78.89704132080078,4.694377899169922,-3.078197956085205,-9.274446487426758,1406.457041501999
D4:22:CD:00:05:6B,6.9141106605529785,32.25637435913086,-64.57057189941406,2.5696945190429688,-2.9900670051574707,-16.17593002319336,1406.457041501999
D4:22:CD:00:49:AA,-151.179443359375,-72.30659484863281,102.40583801269531,-0.5862020254135132,-0.2162681221961975,-4.967251777648926,1406.457041501999
D4:22:CD:00:05:6E,87.48329162597656,-79.80198669433594,106.75980377197266,-1.5646893978118896,-4.345853805541992,-12.491567611694336,1406.457041501999
D4:22:CD:00:05:5E,-13.28465747833252,-32.6578254699707,152.51617431640625,-12.24789810180664,12.02481460571289,-21.199466705322266,1406.457041501999
D4:22:CD:00:05:5D,149.12689208984375,-61.76152038574219,-75.02692413330078,12.656217575073242,-6.517956733703613,-4.7244768142700195,1406.4879109859467
D4:22:CD:00:05:6B,-3.027243137359619,29.38671875,-86.95516204833984,-6.749564170837402,-17.93552017211914,-22.335853576660156,1406.4879109859467
D4:22:CD:00:49:AA,-142.07594299316406,-75.1335678100586,94.78678894042969,1.1441786289215088,-0.04500642418861389,-6.7258100509643555,1406.4879109859467
D4:22:CD:00:05:6E,82.40984344482422,-81.28605651855469,119.20166778564453,1.7031404972076416,-8.874788284301758,-12.956892013549805,1406.4879109859467
D4:22:CD:00:05:5E,-17.947919845581055,-31.833900451660156,156.37127685546875,-16.38510513305664,6.336702346801758,-24.705921173095703,1406.4879109859467
D4:22:CD:00:05:5D,151.90985107421875,-60.1795539855957,-74.80766296386719,6.771975517272949,-7.5845842361450195,1.337442398071289,1406.5199127197266
D4:22:CD:00:05:6B,-1.6030470132827759,23.783292770385742,-107.36054229736328,-14.419052124023438,-21.80632781982422,-19.357532501220703,1406.5199127197266
D4:22:CD:00:49:AA,-135.87571716308594,-76.80078887939453,88.84487915039062,1.972259759902954,3.6701111793518066,-1.7354516983032227,1406.5199127197266
D4:22:CD:00:05:6E,75.98197174072266,-82.70899963378906,126.2208480834961,4.668426513671875,-10.885183334350586,-11.278573989868164,1406.5199127197266
D4:22:CD:00:05:5E,-24.344829559326172,-35.62762451171875,161.4323272705078,-17.34981918334961,6.216428756713867,-24.38939666748047,1406.5199127197266
D4:22:CD:00:05:5D,151.57460021972656,-57.68119430541992,-72.84661865234375,-6.882726669311523,-10.62529182434082,9.239418029785156,1406.5474541187286
D4:22:CD:00:05:6B,5.210948467254639,22.241212844848633,-107.25338745117188,13.657947540283203,9.365226745605469,-9.172813415527344,1406.5474541187286
D4:22:CD:00:49:AA,-134.26480102539062,-78.6801986694336,84.48328399658203,-1.964717149734497,-0.44356971979141235,4.391595840454102,1406.5474541187286
D4:22:CD:00:05:6E,68.81120300292969,-84.17997741699219,129.59698486328125,3.7036356925964355,-5.461840629577637,-7.958765029907227,1406.5474541187286
D4:22:CD:00:05:5E,-35.47407150268555,-43.84079360961914,168.93641662597656,-17.196582794189453,1.7703230381011963,-13.92782211303711,1406.5474541187286
D4:22:CD:00:05:5D,151.504150390625,-54.18852233886719,-70.76200866699219,-4.1203718185424805,1.930525541305542,3.647136688232422,1406.5771186351776
D4:22:CD:00:05:6B,-7.1010918617248535,22.185068130493164,-91.53389739990234,-6.096925735473633,-8.193111419677734,-9.799455642700195,1406.5771186351776
D4:22:CD:00:49:AA,-132.9459991455078,-80.43211364746094,79.62979888916016,-6.7586870193481445,-3.131472587585449,6.810575485229492,1406.5771186351776
D4:22:CD:00:05:6E,77.04595947265625,-87.50597381591797,120.4007339477539,6.0989484786987305,-4.134479522705078,-5.97402286529541,1406.5771186351776
D4:22:CD:00:05:5E,-51.18333435058594,-54.03329086303711,-179.76708984375,-22.742279052734375,-1.153634786605835,0.8388252258300781,1406.5771186351776
D4:22:CD:00:05:5D,148.3992462158203,-53.633811950683594,-68.59722900390625,-1.3603684902191162,3.728513240814209,4.016448020935059,1406.6071860790253
D4:22:CD:00:05:6B,-6.23090124130249,23.253639221191406,-73.9795913696289,-4.336002349853516,-16.016136169433594,-10.873189926147461,1406.6071860790253
D4:22:CD:00:49:AA,-126.70980834960938,-81.97173309326172,71.06582641601562,-5.381146430969238,-0.4294622540473938,2.9362449645996094,1406.6071860790253
D4:22:CD:00:05:6E,-133.85073852539062,-85.81854248046875,-26.78489112854004,11.399639129638672,-6.69255256652832,0.8355522155761719,1406.6071860790253
D4:22:CD:00:05:5E,-50.190120697021484,-60.30495071411133,-172.65493774414062,-0.797797679901123,-17.677589416503906,5.621649742126465,1406.6071860790253
D4:22:CD:00:05:5D,142.9720001220703,-54.617897033691406,-63.99419403076172,3.400798797607422,-1.4971721172332764,3.21816349029541,1406.637141942978
D4:22:CD:00:05:6B,-3.8845579624176025,21.80771255493164,-56.25339889526367,2.3537449836730957,-12.33333969116211,-4.663658142089844,1406.637141942978
D4:22:CD:00:49:AA,-120.78012084960938,-82.55885314941406,64.41946411132812,0.1661536991596222,0.4192204475402832,0.8684892654418945,1406.637141942978
D4:22:CD:00:05:6E,-122.93597412109375,-78.09251403808594,-38.79228210449219,13.128759384155273,-11.642719268798828,5.593173980712891,1406.637141942978
D4:22:CD:00:05:5E,-50.41892623901367,-63.65715026855469,-172.8128204345703,-6.129156112670898,-6.328533172607422,7.817531585693359,1406.637141942978
D4:22:CD:00:05:5D,137.3699493408203,-55.84217071533203,-58.825775146484375,7.70205020904541,-3.2546334266662598,0.7347469329833984,1406.6973266601562
D4:22:CD:00:05:6B,-2.1692700386047363,18.364316940307617,-42.19747543334961,-0.1350184679031372,-2.1575241088867188,1.655104637145996,1406.6973266601562
D4:22:CD:00:49:AA,-123.87181854248047,-82.10017395019531,66.00175476074219,4.0762939453125,0.33723288774490356,0.27868080139160156,1406.6973266601562
D4:22:CD:00:05:6E,-127.43500518798828,-71.99335479736328,-42.64155578613281,7.736151695251465,-11.06696891784668,6.896039962768555,1406.6973266601562
D4:22:CD:00:05:5E,-51.999000549316406,-66.24895477294922,-173.0264434814453,-6.318964958190918,2.751378059387207,-1.0157661437988281,1406.6973266601562
D4:22:CD:00:05:5D,127.24999237060547,-58.38691711425781,-54.95845413208008,9.284526824951172,-5.40715217590332,2.5571041107177734,1406.7268242835999
D4:22:CD:00:05:6B,-1.4873610734939575,14.539922714233398,-31.086328506469727,-1.631213903427124,6.391748428344727,4.686629295349121,1406.7268242835999
D4:22:CD:00:49:AA,-132.18296813964844,-80.44854736328125,70.74297332763672,6.734362602233887,0.11956249177455902,-0.24997234344482422,1406.7268242835999
D4:22:CD:00:05:6E,-139.23886108398438,-69.69985961914062,-41.92715072631836,4.269112586975098,-2.4335665702819824,5.658443450927734,1406.7268242835999
D4:22:CD:00:05:5E,-52.82270050048828,-68.33995819091797,-172.3762664794922,-7.899679183959961,3.9522523880004883,-1.5145320892333984,1406.7268242835999
D4:22:CD:00:05:5D,117.27076721191406,-58.49960708618164,-57.63131332397461,17.013580322265625,12.954710006713867,7.052066802978516,1406.7570042610168
D4:22:CD:00:05:6B,-5.205318927764893,12.997758865356445,-21.924959182739258,0.3275289535522461,13.324531555175781,6.964649200439453,1406.7570042610168
D4:22:CD:00:49:AA,-142.13194274902344,-78.78800964355469,76.806396484375,7.677024841308594,0.3897669315338135,1.8018808364868164,1406.7570042610168
D4:22:CD:00:05:6E,-146.8479766845703,-69.352294921875,-41.45840835571289,4.479544639587402,6.226396560668945,3.6270294189453125,1406.7570042610168
D4:22:CD:00:05:5E,-53.804595947265625,-69.51664733886719,-172.5940399169922,-6.943652153015137,0.45405513048171997,-1.8153362274169922,1406.7570042610168
D4:22:CD:00:05:5D,124.71866607666016,-51.44452667236328,-70.75096893310547,22.27743148803711,9.16812515258789,6.799232482910156,1406.7871487140656
D4:22:CD:00:05:6B,-16.241819381713867,13.991975784301758,-14.825240135192871,-7.015676498413086,24.799758911132812,-1.1898822784423828,1406.7871487140656
D4:22:CD:00:49:AA,-148.6160430908203,-77.4147720336914,80.33760070800781,2.5888261795043945,1.6653635501861572,-0.7802238464355469,1406.7871487140656
D4:22:CD:00:05:6E,-148.29232788085938,-69.19236755371094,-45.520999908447266,1.9294383525848389,0.93604576587677,0.6337995529174805,1406.7871487140656
D4:22:CD:00:05:5E,-54.97238540649414,-70.0423812866211,-173.41766357421875,-5.764374732971191,1.3869352340698242,-0.6428947448730469,1406.7871487140656
D4:22:CD:00:05:5D,135.22607421875,-42.8383903503418,-85.98440551757812,12.876104354858398,0.5026710033416748,1.2100019454956055,1406.8171496391296
D4:22:CD:00:05:6B,-31.03002166748047,14.904311180114746,-9.661750793457031,-6.038042068481445,8.913728713989258,3.480398178100586,1406.8171496391296
D4:22:CD:00:49:AA,-150.30413818359375,-76.60122680664062,81.36344146728516,0.4514080882072449,2.6921043395996094,0.9003286361694336,1406.8171496391296
D4:22:CD:00:05:6E,-145.0684051513672,-69.59600830078125,-50.77157211303711,-1.2517595291137695,-0.6945792436599731,2.054452896118164,1406.8171496391296
D4:22:CD:00:05:5E,-54.058589935302734,-70.48565673828125,-175.80189514160156,-4.6718339920043945,1.2910163402557373,-0.6996479034423828,1406.8171496391296
D4:22:CD:00:05:5D,143.10595703125,-34.0991096496582,-100.0059814453125,4.4266157150268555,-4.032426834106445,-6.055061340332031,1406.8472838401794
D4:22:CD:00:05:6B,-37.94257736206055,14.534526824951172,-6.975991249084473,-2.697237968444824,4.9706926345825195,4.441747665405273,1406.8472838401794
D4:22:CD:00:49:AA,-153.39849853515625,-75.26787567138672,84.30854034423828,4.685203552246094,3.3766117095947266,1.3735847473144531,1406.8472838401794
D4:22:CD:00:05:6E,-139.6442413330078,-70.31085205078125,-56.52946472167969,-4.4902753829956055,-2.4915528297424316,1.5399560928344727,1406.8472838401794
D4:22:CD:00:05:5E,-51.476707458496094,-70.89407348632812,-179.0806884765625,-4.901015281677246,1.1498117446899414,-1.0686979293823242,1406.8472838401794
D4:22:CD:00:05:5D,150.6907958984375,-25.805002212524414,-111.45259857177734,-3.575406551361084,-2.612048625946045,-11.292095184326172,1406.8767127990723
D4:22:CD:00:05:6B,-39.84344482421875,13.359611511230469,-4.198746204376221,-4.307690620422363,7.498879432678223,-1.8185334205627441,1406.8767127990723
D4:22:CD:00:49:AA,-156.9207763671875,-74.4361801147461,88.08796691894531,2.0057477951049805,3.0951056480407715,0.3957939147949219,1406.8767127990723
D4:22:CD:00:05:6E,-134.07797241210938,-71.2547836303711,-60.783172607421875,-3.5644092559814453,-1.4250047206878662,0.33850765228271484,1406.8767127990723
D4:22:CD:00:05:5E,-49.11573028564453,-71.25054168701172,178.49435424804688,-3.9477105140686035,0.17085888981819153,-1.234929084777832,1406.8767127990723
D4:22:CD:00:05:5D,157.65576171875,-19.301944732666016,-120.30107879638672,-0.4086374044418335,-0.5784707069396973,-13.05001449584961,1406.907023191452
D4:22:CD:00:05:6B,-45.17653274536133,10.295462608337402,0.951000988483429,-8.850372314453125,6.439042091369629,-4.361391067504883,1406.907023191452
D4:22:CD:00:49:AA,-160.72486877441406,-74.13937377929688,91.58535766601562,1.2277936935424805,2.449037551879883,-3.529865264892578,1406.907023191452
D4:22:CD:00:05:6E,-129.9282989501953,-72.46210479736328,-61.78050994873047,-1.7495946884155273,-2.532149314880371,-1.4437170028686523,1406.907023191452
D4:22:CD:00:05:5E,-47.61379623413086,-71.62774658203125,178.44285583496094,-2.80250883102417,-1.0634973049163818,-1.7149429321289062,1406.907023191452
D4:22:CD:00:05:5D,163.3743133544922,-16.714962005615234,-128.78749084472656,-6.919179916381836,0.8395805358886719,-14.132795333862305,1406.9373941421509
D4:22:CD:00:05:6B,-52.689971923828125,3.4947991371154785,7.846205711364746,-7.997200965881348,-0.702871561050415,-4.256375312805176,1406.9373941421509
D4:22:CD:00:49:AA,-163.66949462890625,-73.77879333496094,93.84977722167969,2.1372737884521484,1.4258081912994385,-6.853884696960449,1406.9373941421509
D4:22:CD:00:05:6E,-128.4125213623047,-74.06671905517578,-59.72010803222656,-0.36148661375045776,-3.126164436340332,-4.683534622192383,1406.9373941421509
D4:22:CD:00:05:5E,-47.12175369262695,-72.45380401611328,-179.097900390625,-4.783416748046875,-2.0208544731140137,-1.9840383529663086,1406.9373941421509
D4:22:CD:00:05:5D,164.01287841796875,-18.339391708374023,-136.3104705810547,-11.955209732055664,-0.8358865976333618,-15.494184494018555,1406.9972026348114
D4:22:CD:00:05:6B,-58.76983642578125,-7.933181285858154,16.33883285522461,6.7555341720581055,-1.018523931503296,-3.915407180786133,1406.9972026348114
D4:22:CD:00:49:AA,-166.09393310546875,-73.56221008300781,95.80065155029297,1.6435914039611816,2.439392566680908,-7.367427825927734,1406.9972026348114
D4:22:CD:00:05:6E,-129.2636260986328,-76.03251647949219,-56.275421142578125,1.4709300994873047,-3.427605628967285,-8.685005187988281,1406.9972026348114
D4:22:CD:00:05:5E,-50.988502502441406,-74.0780029296875,-172.9515838623047,-5.629335403442383,-0.5094341039657593,-2.482764720916748,1406.9972026348114
D4:22:CD:00:05:5D,164.85440063476562,-23.404621124267578,-141.2930450439453,-1.5818853378295898,-0.8988649845123291,2.502309799194336,1407.0268280506134
D4:22:CD:00:05:6B,-58.57139205932617,-22.416133880615234,21.673749923706055,15.769729614257812,10.664485931396484,8.34238052368164,1407.0268280506134
D4:22:CD:00:49:AA,-167.7998809814453,-72.70940399169922,96.45926666259766,2.941938877105713,2.0982980728149414,-5.048820495605469,1407.0268280506134
D4:22:CD:00:05:6E,-127.69022369384766,-78.91751098632812,-56.19525146484375,3.6134815216064453,-1.7162418365478516,-9.399730682373047,1407.0268280506134
D4:22:CD:00:05:5E,-59.59468460083008,-75.66755676269531,-162.31959533691406,-5.697985649108887,0.36729896068573,-1.8251252174377441,1407.0268280506134
D4:22:CD:00:05:5D,167.40277099609375,-24.605302810668945,-142.75254821777344,-21.054527282714844,-1.0904624462127686,4.007859230041504,1407.0569739341736
D4:22:CD:00:05:6B,-43.26513671875,-36.59394836425781,17.732181549072266,19.70537567138672,8.561567306518555,8.542669296264648,1407.0569739341736
D4:22:CD:00:49:AA,-167.7537841796875,-72.49372863769531,94.47093963623047,-0.7537240982055664,-2.4483323097229004,-0.7579021453857422,1407.0569739341736
D4:22:CD:00:05:6E,-116.338134765625,-82.65335083007812,-65.08751678466797,2.159332275390625,-3.5169601440429688,-6.7696123123168945,1407.0569739341736
D4:22:CD:00:05:5E,-71.3401107788086,-76.32318115234375,-149.5284423828125,-6.788501739501953,0.834403395652771,-1.5974435806274414,1407.0569739341736
D4:22:CD:00:05:5D,168.79977416992188,-26.71609878540039,-141.2079315185547,-10.953765869140625,-18.654861450195312,1.559769630432129,1407.0869483947754
D4:22:CD:00:05:6B,-24.733154296875,-43.75495147705078,8.813716888427734,20.069049835205078,14.459789276123047,6.4126434326171875,1407.0869483947754
D4:22:CD:00:49:AA,-166.48187255859375,-72.11749267578125,93.44873046875,-6.640582084655762,-1.204592227935791,2.9874744415283203,1407.0869483947754
D4:22:CD:00:05:6E,-71.80911254882812,-86.6446762084961,-107.73890686035156,2.9851980209350586,-8.914936065673828,3.4426069259643555,1407.0869483947754
D4:22:CD:00:05:5E,-80.96342468261719,-76.42372131347656,-139.29425048828125,-4.952075004577637,2.543539047241211,0.03164100646972656,1407.0869483947754
D4:22:CD:00:05:5D,170.5204315185547,-26.456859588623047,-138.65248107910156,-15.953607559204102,-13.486536026000977,8.743106842041016,1407.1172468662262
D4:22:CD:00:05:6B,-24.65879249572754,-41.514190673828125,6.816349506378174,20.777790069580078,9.841312408447266,-0.02065563201904297,1407.1172468662262
D4:22:CD:00:49:AA,-166.30838012695312,-69.72431945800781,95.0204849243164,0.7561166286468506,0.45455068349838257,9.241609573364258,1407.1172468662262
D4:22:CD:00:05:6E,32.9327392578125,-82.35637664794922,149.9998016357422,5.705087661743164,-10.689836502075195,21.62798309326172,1407.1172468662262
D4:22:CD:00:05:5E,-87.0678482055664,-77.38555908203125,-132.60289001464844,-4.780786514282227,2.86016845703125,0.8587923049926758,1407.1172468662262
D4:22:CD:00:05:5D,170.2966766357422,-24.299419403076172,-135.980224609375,-13.116783142089844,-10.90943717956543,5.731609344482422,1407.147245168686
D4:22:CD:00:05:6B,-34.27876281738281,-33.09609603881836,10.839693069458008,22.574630737304688,-3.091231346130371,14.252641677856445,1407.147245168686
D4:22:CD:00:49:AA,-166.47357177734375,-68.95133209228516,96.71725463867188,4.712001800537109,2.230374336242676,8.98931884765625,1407.147245168686
D4:22:CD:00:05:6E,59.89531707763672,-69.1214828491211,130.94044494628906,10.123432159423828,-13.311487197875977,25.201614379882812,1407.147245168686
D4:22:CD:00:05:5E,-88.55467224121094,-79.3360595703125,-130.68551635742188,-6.585244178771973,2.500669002532959,-0.2898397445678711,1407.147245168686
D4:22:CD:00:05:5D,168.91339111328125,-21.346012115478516,-135.31112670898438,-13.919612884521484,-9.654134750366211,7.880273818969727,1407.1766953468323
D4:22:CD:00:05:6B,-37.165157318115234,-22.643850326538086,12.993736267089844,22.79345703125,-1.1389379501342773,4.677420616149902,1407.1766953468323
D4:22:CD:00:49:AA,-167.69615173339844,-69.32054138183594,99.43026733398438,0.12961605191230774,3.341613292694092,7.095428466796875,1407.1766953468323
D4:22:CD:00:05:6E,73.25120544433594,-51.84382247924805,121.22406768798828,12.253957748413086,-13.429285049438477,23.535350799560547,1407.1766953468323
D4:22:CD:00:05:5E,-82.1392822265625,-81.08407592773438,-137.26182556152344,-7.294519424438477,1.1894457340240479,-1.4659099578857422,1407.1766953468323
D4:22:CD:00:05:5D,168.40538024902344,-19.14060401916504,-134.3888702392578,-17.386478424072266,-4.108948707580566,8.085817337036133,1407.2069020271301
D4:22:CD:00:05:6B,-42.88706588745117,-13.153816223144531,13.848761558532715,12.955745697021484,-5.588558197021484,-0.3927183151245117,1407.2069020271301
D4:22:CD:00:49:AA,-169.13922119140625,-68.79920959472656,102.19083404541016,4.638555526733398,2.41508150100708,8.163782119750977,1407.2069020271301
D4:22:CD:00:05:6E,77.88618469238281,-32.78988265991211,112.71949768066406,13.309761047363281,2.732539176940918,20.698963165283203,1407.2069020271301
D4:22:CD:00:05:5E,-69.0457534790039,-81.85799407958984,-152.31370544433594,-7.169904708862305,1.7539193630218506,-1.15423583984375,1407.2069020271301
D4:22:CD:00:05:5D,170.41334533691406,-18.494916915893555,-130.7807159423828,-1.3742318153381348,-6.468014717102051,9.398580551147461,1407.237135887146
D4:22:CD:00:05:6B,-49.01861572265625,-8.586302757263184,13.324962615966797,0.05427742004394531,-6.168720245361328,-1.8894610404968262,1407.237135887146
D4:22:CD:00:49:AA,-171.13392639160156,-68.89295196533203,104.13082122802734,7.377286911010742,2.7558517456054688,5.397968292236328,1407.237135887146
D4:22:CD:00:05:6E,72.15332794189453,-12.7618989944458,109.2785873413086,8.270050048828125,9.660585403442383,19.147563934326172,1407.237135887146
D4:22:CD:00:05:5E,-54.96150207519531,-81.20884704589844,-169.9325408935547,-7.449565887451172,1.2464227676391602,-0.43565845489501953,1407.237135887146
D4:22:CD:00:05:5D,174.6016845703125,-17.161502838134766,-128.89073181152344,-3.460132122039795,1.3826518058776855,10.915225982666016,1407.2971189022064
D4:22:CD:00:05:6B,-55.76091003417969,-10.019803047180176,11.4667329788208,-5.278532981872559,-1.6731538772583008,-2.337714672088623,1407.2971189022064
D4:22:CD:00:49:AA,-175.42800903320312,-68.8372802734375,106.37496185302734,2.1024866104125977,2.754573345184326,3.362466812133789,1407.2971189022064
D4:22:CD:00:05:6E,50.966957092285156,5.231999397277832,109.4100112915039,-11.671819686889648,1.0350935459136963,-5.071281433105469,1407.2971189022064
D4:22:CD:00:05:5E,-34.652740478515625,-78.1103286743164,166.9956512451172,-6.458352088928223,3.6353116035461426,2.9575090408325195,1407.2971189022064
D4:22:CD:00:05:5D,171.64605712890625,-16.96943473815918,-127.74382781982422,-1.9231019020080566,4.71400260925293,-0.37096595764160156,1407.3372247219086
D4:22:CD:00:05:6B,-62.60697555541992,-15.951088905334473,8.524042129516602,-9.82901382446289,-1.2296090126037598,-3.23405122756958,1407.3372247219086
D4:22:CD:00:49:AA,-179.23590087890625,-68.50843048095703,108.37660217285156,0.6292940378189087,1.0752053260803223,2.260592460632324,1407.3372247219086
D4:22:CD:00:05:6E,23.785860061645508,17.383934020996094,110.4819107055664,4.316608428955078,-4.149996757507324,-16.067543029785156,1407.3372247219086
D4:22:CD:00:05:5E,-14.121380805969238,-70.23699951171875,147.89366149902344,-0.5145330429077148,0.0777561366558075,9.738290786743164,1407.3372247219086
D4:22:CD:00:05:5D,167.87396240234375,-18.277624130249023,-125.95301818847656,0.6973785161972046,2.026937484741211,-16.153594970703125,1407.3572225570679
D4:22:CD:00:05:6B,-69.16583251953125,-24.538013458251953,5.413126468658447,-6.764671325683594,0.007692098617553711,-3.753115653991699,1407.3572225570679
D4:22:CD:00:49:AA,178.2358856201172,-68.74458312988281,109.95804595947266,1.7649569511413574,0.8596296310424805,-5.434181213378906,1407.3572225570679
D4:22:CD:00:05:6E,12.459686279296875,27.8055419921875,111.84597778320312,6.694855690002441,-3.0540413856506348,-5.432489395141602,1407.3572225570679
D4:22:CD:00:05:5E,-7.0710296630859375,-65.05119323730469,144.252197265625,-8.872533798217773,3.6702446937561035,-6.966217041015625,1407.3572225570679
D4:22:CD:00:05:5D,165.27760314941406,-22.253860473632812,-123.83578491210938,-0.9463233947753906,-1.0309925079345703,-27.149581909179688,1407.38693857193
D4:22:CD:00:05:6B,-73.39359283447266,-33.1927604675293,2.4410290718078613,-5.237964630126953,4.08760929107666,2.1113719940185547,1407.38693857193
D4:22:CD:00:49:AA,176.57386779785156,-68.1248779296875,110.9744873046875,0.3393915295600891,-0.31865036487579346,-9.667987823486328,1407.38693857193
D4:22:CD:00:05:6E,17.381988525390625,37.31318664550781,115.15267181396484,0.8941954374313354,-3.025630474090576,-7.817771911621094,1407.38693857193
D4:22:CD:00:05:5E,-6.85200309753418,-66.20792388916016,148.30181884765625,-15.222982406616211,7.421134948730469,-17.38512420654297,1407.38693857193
D4:22:CD:00:05:5D,163.17616271972656,-30.3106689453125,-121.58552551269531,-4.042891502380371,-1.1594984531402588,-23.511703491210938,1407.417146205902
D4:22:CD:00:05:6B,-75.55696105957031,-40.35264587402344,-0.7400923371315002,-3.2084450721740723,4.216845512390137,-3.3247227668762207,1407.417146205902
D4:22:CD:00:49:AA,177.95631408691406,-67.58926391601562,109.99187469482422,-2.391996383666992,-1.7370381355285645,-7.976675987243652,1407.417146205902
D4:22:CD:00:05:6E,26.724103927612305,42.42847442626953,121.96320343017578,4.7176971435546875,-4.198268890380859,-10.345678329467773,1407.417146205902
D4:22:CD:00:05:5E,-21.899383544921875,-71.79976654052734,161.18283081054688,0.3512362241744995,-4.459001541137695,-6.682892799377441,1407.417146205902
D4:22:CD:00:05:5D,159.16714477539062,-42.425941467285156,-118.40298461914062,-3.130826473236084,-3.928168773651123,-16.128005981445312,1407.447404384613
D4:22:CD:00:05:6B,-81.76512145996094,-45.20820999145508,-2.021648406982422,-1.9730045795440674,2.5893330574035645,-7.318647384643555,1407.447404384613
D4:22:CD:00:49:AA,-179.53794860839844,-68.81956481933594,108.71417999267578,-0.5247501134872437,1.1916990280151367,-7.655248641967773,1407.447404384613
D4:22:CD:00:05:6E,40.121639251708984,40.4570426940918,132.71969604492188,-4.261463165283203,-0.7667413949966431,-11.352363586425781,1407.447404384613
D4:22:CD:00:05:5E,-38.1770133972168,-73.61661529541016,170.73736572265625,9.433408737182617,-12.408790588378906,-2.0044684410095215,1407.447404384613
D4:22:CD:00:05:5D,153.9386749267578,-57.361488342285156,-113.43405151367188,-1.7155041694641113,-4.565838813781738,-5.302818298339844,1407.4779472351074
D4:22:CD:00:05:6B,-92.34420776367188,-47.372718811035156,-0.8351233601570129,-2.6668009757995605,4.447492599487305,-6.800046920776367,1407.4779472351074
D4:22:CD:00:49:AA,-179.40321350097656,-70.56086730957031,108.22634887695312,3.5108251571655273,3.565438747406006,-7.990952491760254,1407.4779472351074
D4:22:CD:00:05:6E,48.96784973144531,33.53413009643555,145.51390075683594,-16.45636749267578,3.85513973236084,-10.487632751464844,1407.4779472351074
D4:22:CD:00:05:5E,-37.31215286254883,-73.36471557617188,168.0962371826172,-5.780935287475586,-0.0675026923418045,3.7847061157226562,1407.4779472351074
D4:22:CD:00:05:5D,140.52093505859375,-73.64900207519531,-99.98997497558594,2.777109146118164,-1.9257702827453613,12.526657104492188,1407.5069370269775
D4:22:CD:00:05:6B,-100.52289581298828,-48.06484603881836,0.8429042100906372,-2.4710946083068848,8.12850570678711,-5.578948974609375,1407.5069370269775
D4:22:CD:00:49:AA,177.97525024414062,-71.64786529541016,108.85396575927734,2.2863621711730957,1.3497052192687988,-5.33256721496582,1407.5069370269775
D4:22:CD:00:05:6E,50.31972122192383,25.7994384765625,157.5341033935547,-33.002716064453125,4.402840614318848,-12.36164665222168,1407.5069370269775
D4:22:CD:00:05:5E,-39.86195373535156,-73.69982147216797,170.49005126953125,-0.673371434211731,-1.390899658203125,-2.960659980773926,1407.5069370269775
D4:22:CD:00:05:5D,65.98430633544922,-81.96867370605469,-21.309873580932617,23.139995574951172,3.9048609733581543,21.818504333496094,1407.5372133255005
D4:22:CD:00:05:6B,-102.84632110595703,-48.59741973876953,-0.39840224385261536,0.01442575454711914,15.138174057006836,-4.330348014831543,1407.5372133255005
D4:22:CD:00:49:AA,176.83193969726562,-71.23026275634766,108.64160919189453,0.020015805959701538,-1.852919578552246,0.13033199310302734,1407.5372133255005
D4:22:CD:00:05:6E,45.3551139831543,25.557308197021484,160.6210174560547,-3.194915771484375,-11.751800537109375,-8.588886260986328,1407.5372133255005
D4:22:CD:00:05:5E,-53.78353500366211,-74.24510955810547,-178.80987548828125,-5.451607704162598,-2.8192362785339355,-0.30040645599365234,1407.5372133255005
D4:22:CD:00:05:5D,40.31418991088867,-76.79557037353516,11.468116760253906,11.967796325683594,29.79068374633789,-13.033514022827148,1407.5968797206879
D4:22:CD:00:05:6B,-97.95545959472656,-49.72439193725586,-5.1032867431640625,-1.7013897895812988,7.410687446594238,-3.9355244636535645,1407.5968797206879
D4:22:CD:00:49:AA,-178.90557861328125,-71.96153259277344,106.35591888427734,2.1827659606933594,-0.2663724422454834,-1.380640983581543,1407.5968797206879
D4:22:CD:00:05:6E,40.59224319458008,30.57819366455078,150.91091918945312,2.2687315940856934,7.199836730957031,-13.053464889526367,1407.5968797206879
D4:22:CD:00:05:5E,-63.697120666503906,-74.08960723876953,-170.71788024902344,-6.978387832641602,-2.2426881790161133,4.701418876647949,1407.5968797206879
D4:22:CD:00:05:5D,54.83798599243164,-78.87020111083984,-3.8979134559631348,15.23482894897461,-7.737793922424316,7.318553924560547,1407.6274201869965
D4:22:CD:00:05:6B,-91.20421600341797,-50.270042419433594,-8.311355590820312,-1.6545374393463135,4.156808853149414,1.8905467987060547,1407.6274201869965
D4:22:CD:00:49:AA,-170.72271728515625,-71.79344177246094,101.23934173583984,7.533961296081543,0.27729666233062744,2.8899526596069336,1407.6274201869965
D4:22:CD:00:05:6E,42.6954460144043,38.096839904785156,134.53697204589844,-5.645048141479492,1.0653021335601807,-13.823034286499023,1407.6274201869965
D4:22:CD:00:05:5E,-68.2144775390625,-72.80709075927734,-166.5186004638672,-5.650577545166016,1.1661674976348877,5.2639055252075195,1407.6274201869965
D4:22:CD:00:05:5D,82.16551971435547,-81.48369598388672,-32.69932174682617,-2.7352967262268066,-19.10678482055664,11.726720809936523,1407.657457113266
D4:22:CD:00:05:6B,-83.5953140258789,-50.57693099975586,-8.580119132995605,2.3433990478515625,2.843684673309326,6.004508018493652,1407.657457113266
D4:22:CD:00:49:AA,-166.26730346679688,-70.32904815673828,96.90604400634766,8.201726913452148,4.720944404602051,12.407493591308594,1407.657457113266
D4:22:CD:00:05:6E,39.31440353393555,44.3167610168457,110.749755859375,-1.1899404525756836,12.638858795166016,-7.050885200500488,1407.657457113266
D4:22:CD:00:05:5E,-67.44801330566406,-70.4693603515625,-166.15457153320312,-6.256702423095703,-1.0577399730682373,5.739167213439941,1407.657457113266
D4:22:CD:00:05:5D,106.8575210571289,-81.7118911743164,-58.14286804199219,1.6425549983978271,0.7740534543991089,6.455934524536133,1407.6872761249542
D4:22:CD:00:05:6B,-78.01852416992188,-51.195369720458984,-6.307742595672607,5.433252334594727,2.4283251762390137,11.053955078125,1407.6872761249542
D4:22:CD:00:49:AA,-168.635498046875,-70.14195251464844,97.73273468017578,0.25846320390701294,-1.3204286098480225,4.7071733474731445,1407.6872761249542
D4:22:CD:00:05:6E,40.851318359375,46.04523468017578,86.8372573852539,-6.406064987182617,-8.43025016784668,-5.10926628112793,1407.6872761249542
D4:22:CD:00:05:5E,-62.96588897705078,-67.30252075195312,-168.046630859375,-5.439000129699707,-3.482052803039551,4.433104515075684,1407.6872761249542
D4:22:CD:00:05:5D,132.7462921142578,-81.02957153320312,-80.2353515625,-8.65809440612793,13.748283386230469,-0.5746192932128906,1407.7174367904663
D4:22:CD:00:05:6B,-76.60578918457031,-51.40065002441406,-2.412693500518799,6.137713432312012,1.4901885986328125,8.098896026611328,1407.7174367904663
D4:22:CD:00:49:AA,-170.86090087890625,-70.72439575195312,100.46174621582031,-5.428180694580078,-0.7232056856155396,-0.9761686325073242,1407.7174367904663
D4:22:CD:00:05:6E,38.35881042480469,39.65864181518555,65.46614837646484,-5.012123107910156,-3.491168975830078,-3.527468681335449,1407.7174367904663
D4:22:CD:00:05:5E,-63.15414810180664,-64.25135803222656,-163.9921112060547,-9.26565933227539,-6.76821231842041,1.7962284088134766,1407.7174367904663
D4:22:CD:00:05:5D,152.25596618652344,-79.99712371826172,-99.58700561523438,5.26263427734375,-6.6877899169921875,1.969374656677246,1407.7474358081818
D4:22:CD:00:05:6B,-79.53388977050781,-49.89704513549805,2.550595283508301,5.51678466796875,0.8341770172119141,0.9468517303466797,1407.7474358081818
D4:22:CD:00:49:AA,-169.86773681640625,-70.47190856933594,103.7150650024414,-4.735535621643066,-4.659665107727051,-1.8687305450439453,1407.7474358081818
D4:22:CD:00:05:6E,37.260841369628906,30.575769424438477,50.23208236694336,23.08205795288086,-15.979606628417969,1.302231788635254,1407.7474358081818
D4:22:CD:00:05:5E,-63.72785949707031,-62.472900390625,-156.33958435058594,-29.34307861328125,2.4627885818481445,-11.275590896606445,1407.7474358081818
D4:22:CD:00:05:5D,167.51162719726562,-77.87793731689453,-112.35781860351562,1.9215507507324219,-1.3250949382781982,0.5975742340087891,1407.7770476341248
D4:22:CD:00:05:6B,-85.97422790527344,-47.27882385253906,7.370700359344482,2.071017265319824,0.029751121997833252,-2.103604316711426,1407.7770476341248
D4:22:CD:00:49:AA,-167.67710876464844,-69.99850463867188,106.64681243896484,0.08311797678470612,0.2388342022895813,-4.031821250915527,1407.7770476341248
D4:22:CD:00:05:6E,47.526676177978516,22.505172729492188,42.5628662109375,19.562271118164062,-17.13919448852539,-8.21042251586914,1407.7770476341248
D4:22:CD:00:05:5E,-75.03829956054688,-63.325477600097656,-140.64962768554688,-22.08045196533203,-1.915201187133789,-5.058208465576172,1407.7770476341248
D4:22:CD:00:05:5D,175.5463104248047,-76.16614532470703,-118.31114196777344,0.4063599705696106,0.900492787361145,1.2654743194580078,1407.8075325489044
D4:22:CD:00:05:6B,-88.84428405761719,-45.67801284790039,10.469286918640137,-3.6673197746276855,1.0978083610534668,-1.683211326599121,1407.8075325489044
D4:22:CD:00:49:AA,-170.7742156982422,-69.1632308959961,111.32623291015625,4.4740495681762695,2.091038227081299,3.173233985900879,1407.8075325489044
D4:22:CD:00:05:6E,63.318359375,14.700469017028809,40.82587814331055,9.30328369140625,-0.4632585048675537,-5.194953918457031,1407.8075325489044
D4:22:CD:00:05:5E,-87.39768981933594,-64.62252044677734,-122.23324584960938,-14.688987731933594,-0.9324889183044434,-7.913829803466797,1407.8075325489044
D4:22:CD:00:05:5D,-179.42332458496094,-74.95796966552734,-122.86099243164062,-0.8289748430252075,0.5261774063110352,0.08896160125732422,1407.8375022411346
D4:22:CD:00:05:6B,-85.03144073486328,-46.87049102783203,11.586134910583496,-3.6015915870666504,-0.4019920825958252,-2.851046085357666,1407.8375022411346
D4:22:CD:00:49:AA,-176.21742248535156,-68.93514251708984,116.703369140625,-4.658501625061035,0.10932286083698273,0.7225894927978516,1407.8375022411346
D4:22:CD:00:05:6E,73.68412780761719,7.63445520401001,40.12913513183594,-4.3237104415893555,5.388319969177246,-0.9438581466674805,1407.8375022411346
D4:22:CD:00:05:5E,-101.42964172363281,-65.7245101928711,-102.09750366210938,-8.454416275024414,0.6973555088043213,-12.858200073242188,1407.8375022411346
D4:22:CD:00:05:5D,-174.76719665527344,-73.89520263671875,-127.18689727783203,-0.2119414508342743,0.9131350517272949,0.7088775634765625,1407.897439956665
D4:22:CD:00:05:6B,-80.74214172363281,-49.78940200805664,10.802862167358398,-2.180142402648926,-0.957162618637085,-0.7734737396240234,1407.897439956665
D4:22:CD:00:49:AA,178.50735473632812,-68.9311294555664,122.70018005371094,-7.407231330871582,0.6839344501495361,-0.0018291473388671875,1407.897439956665
D4:22:CD:00:05:6E,79.25892639160156,2.813840389251709,36.286746978759766,-5.9741621017456055,-0.10072141885757446,-1.8984346389770508,1407.897439956665
D4:22:CD:00:05:5E,-118.30662536621094,-65.67696380615234,-80.47355651855469,-3.222944736480713,4.068460464477539,-16.548187255859375,1407.897439956665
D4:22:CD:00:05:5D,-170.32923889160156,-73.3065185546875,-131.8791961669922,-0.0847628116607666,0.33024173974990845,0.3358182907104492,1407.9274451732635
D4:22:CD:00:05:6B,-78.14488983154297,-52.17348098754883,7.73967170715332,-1.4327261447906494,-1.3586013317108154,-0.004023551940917969,1407.9274451732635
D4:22:CD:00:49:AA,174.07801818847656,-69.35769653320312,127.66122436523438,-1.9165351390838623,2.904615879058838,-0.1196146011352539,1407.9274451732635
D4:22:CD:00:05:6E,88.92925262451172,1.5020161867141724,30.234973907470703,-7.975125312805176,2.211705207824707,-4.755265235900879,1407.9274451732635
D4:22:CD:00:05:5E,-135.96368408203125,-63.52547836303711,-61.31024932861328,-1.3657090663909912,5.9362382888793945,-15.49151611328125,1407.9274451732635
D4:22:CD:00:05:5D,-167.8245391845703,-72.80074310302734,-135.6304931640625,-0.016913224011659622,-1.2779383659362793,-0.3552064895629883,1407.9574496746063
D4:22:CD:00:05:6B,-78.33281707763672,-52.85781478881836,3.7245306968688965,-1.761646032333374,0.30674242973327637,0.11829853057861328,1407.9574496746063
D4:22:CD:00:49:AA,168.46194458007812,-69.19034576416016,133.0612335205078,-0.37759876251220703,2.777926445007324,-3.3897757530212402,1407.9574496746063
D4:22:CD:00:05:6E,100.96617889404297,1.5769603252410889,24.69378089904785,-6.317849159240723,4.856686592102051,-0.6828079223632812,1407.9574496746063
D4:22:CD:00:05:5E,-151.4635467529297,-60.450740814208984,-47.57207107543945,-1.7295868396759033,4.668535232543945,-9.31425666809082,1407.9574496746063
D4:22:CD:00:05:5D,-168.8772430419922,-71.40573120117188,-134.94712829589844,1.398866891860962,-2.3962340354919434,-0.9096250534057617,1407.9871711730957
D4:22:CD:00:05:6B,-78.73033142089844,-52.40754699707031,-1.7595969438552856,-1.8769404888153076,1.816598892211914,-0.16627979278564453,1407.9871711730957
D4:22:CD:00:49:AA,161.50335693359375,-69.08911895751953,138.8461456298828,-2.059725761413574,0.8189728260040283,-5.317910194396973,1407.9871711730957
D4:22:CD:00:05:6E,110.3966293334961,0.3064284920692444,21.12369155883789,-1.8650422096252441,1.3163554668426514,-0.04907417297363281,1407.9871711730957
D4:22:CD:00:05:5E,-165.61424255371094,-57.96888732910156,-38.29799270629883,-4.337969779968262,2.7150726318359375,-3.634856700897217,1407.9871711730957
D4:22:CD:00:05:5D,-172.52822875976562,-69.10746765136719,-130.9517364501953,1.8184056282043457,-3.728644847869873,-1.3083915710449219,1408.0171723365784
D4:22:CD:00:05:6B,-76.54397583007812,-51.43930435180664,-9.183609962463379,-0.49774593114852905,1.6158196926116943,-3.5121378898620605,1408.0171723365784
D4:22:CD:00:49:AA,155.3776397705078,-69.02318572998047,143.41229248046875,-2.524933338165283,-0.10847239196300507,-4.2957868576049805,1408.0171723365784
D4:22:CD:00:05:6E,115.37541961669922,-4.047138214111328,19.460847854614258,1.9434788227081299,-2.693979263305664,-0.13825321197509766,1408.0171723365784
D4:22:CD:00:05:5E,-176.95799255371094,-57.668270111083984,-31.136402130126953,6.301796913146973,-0.7149348258972168,-3.0558857917785645,1408.0171723365784
D4:22:CD:00:05:5D,-176.8097686767578,-65.85344696044922,-125.44503021240234,0.8888953924179077,-0.6676406860351562,-0.7138710021972656,1408.0473935604095
D4:22:CD:00:05:6B,-73.52410888671875,-49.96949005126953,-17.367145538330078,0.0003739595413208008,2.054239273071289,-4.960375785827637,1408.0473935604095
D4:22:CD:00:49:AA,150.5257110595703,-69.0782699584961,146.998046875,-1.5582616329193115,-0.3142011761665344,-3.072944164276123,1408.0473935604095
D4:22:CD:00:05:6E,117.25735473632812,-13.302802085876465,18.70895767211914,5.356157302856445,-0.8402862548828125,-0.37854957580566406,1408.0473935604095
D4:22:CD:00:05:5E,-177.69921875,-61.8204460144043,-26.799968719482422,7.594965934753418,7.533514976501465,4.745821952819824,1408.0473935604095
D4:22:CD:00:05:5D,178.5791015625,-61.72816467285156,-119.58824157714844,0.253873348236084,-0.9861106872558594,-0.23934364318847656,1408.077172279358
D4:22:CD:00:05:6B,-70.6239242553711,-48.01795196533203,-25.188989639282227,-0.9889168739318848,2.6126022338867188,-3.8633666038513184,1408.077172279358
D4:22:CD:00:49:AA,145.8231964111328,-69.36709594726562,151.03387451171875,-0.5776246786117554,-0.9843146800994873,-1.995880126953125,1408.077172279358
D4:22:CD:00:05:6E,115.88700103759766,-27.568378448486328,15.810211181640625,9.366294860839844,-1.792280673980713,13.604398727416992,1408.077172279358
D4:22:CD:00:05:5E,-170.7603759765625,-65.26237487792969,-26.11728858947754,-4.189765930175781,8.669111251831055,14.160507202148438,1408.077172279358
D4:22:CD:00:05:5D,175.4590301513672,-57.38595962524414,-115.50003051757812,-0.1543859839439392,0.8647580146789551,0.749852180480957,1408.10795378685
D4:22:CD:00:05:6B,-68.11488342285156,-45.90327072143555,-31.878583908081055,-3.241185188293457,2.7154297828674316,0.24708843231201172,1408.10795378685
D4:22:CD:00:49:AA,142.1399383544922,-69.37393188476562,155.15805053710938,0.844022274017334,0.25116628408432007,-3.1078882217407227,1408.10795378685
D4:22:CD:00:05:6E,98.60517120361328,-44.904327392578125,12.145100593566895,18.489276885986328,-10.20319938659668,40.18730163574219,1408.10795378685
D4:22:CD:00:05:5E,-172.8456573486328,-65.07225036621094,-26.644664764404297,13.091447830200195,-1.6421151161193848,2.849283218383789,1408.10795378685
D4:22:CD:00:05:5D,174.08132934570312,-53.713436126708984,-113.22783660888672,1.5757932662963867,0.6239365339279175,-0.5300493240356445,1408.1370241641998
D4:22:CD:00:05:6B,-63.05280303955078,-41.686790466308594,-37.50381088256836,-5.8260345458984375,4.914263725280762,14.774328231811523,1408.1370241641998
D4:22:CD:00:49:AA,143.1198272705078,-68.30074310302734,155.49368286132812,0.7857851982116699,1.9925851821899414,4.401695251464844,1408.1370241641998
D4:22:CD:00:05:6E,51.42197036743164,-49.02851104736328,12.13131046295166,20.979537963867188,8.781429290771484,5.122163772583008,1408.1370241641998
D4:22:CD:00:05:5E,-174.71185302734375,-65.02713012695312,-27.72968292236328,3.5188474655151367,-0.9269850254058838,15.869081497192383,1408.1370241641998
D4:22:CD:00:05:5D,174.25132751464844,-51.00242233276367,-112.4050521850586,0.4071706533432007,0.7861014604568481,1.3516616821289062,1408.1975693702698
D4:22:CD:00:05:6B,-59.855926513671875,-33.26083755493164,-41.88483428955078,3.0706143379211426,9.821414947509766,7.681192398071289,1408.1975693702698
D4:22:CD:00:49:AA,143.79278564453125,-67.09358978271484,156.14273071289062,-5.109631538391113,-2.3786911964416504,11.823678970336914,1408.1975693702698
D4:22:CD:00:05:6E,44.65141296386719,-39.4345588684082,11.815350532531738,43.11457824707031,-39.28321838378906,-10.467508316040039,1408.1975693702698
D4:22:CD:00:05:5E,-173.5146026611328,-63.46495056152344,-30.961050033569336,-4.807805061340332,-9.637706756591797,10.668437957763672,1408.1975693702698
D4:22:CD:00:05:5D,174.88087463378906,-49.75662612915039,-112.3038330078125,0.36504513025283813,1.9097940921783447,1.9170255661010742,1408.2276668548584
D4:22:CD:00:05:6B,-63.126617431640625,-21.173290252685547,-42.56463623046875,0.12578582763671875,20.43122100830078,20.296768188476562,1408.2276668548584
D4:22:CD:00:49:AA,143.6370391845703,-66.55996704101562,157.52113342285156,-3.2307310104370117,-1.89263916015625,11.280691146850586,1408.2276668548584
D4:22:CD:00:05:6E,69.25345611572266,-24.539777755737305,13.959540367126465,9.09337043762207,15.848901748657227,34.05552673339844,1408.2276668548584
D4:22:CD:00:05:5E,-169.49755859375,-62.645206451416016,-32.09665298461914,-1.7513031959533691,-7.089840888977051,11.687751770019531,1408.2276668548584
D4:22:CD:00:05:5D,175.70510864257812,-50.46559524536133,-112.66170501708984,-0.40894848108291626,1.9380533695220947,2.2847604751586914,1408.2573010921478
D4:22:CD:00:05:6B,-55.54540252685547,-8.906457901000977,-40.69136047363281,6.788492202758789,15.648702621459961,19.808452606201172,1408.2573010921478
D4:22:CD:00:49:AA,142.17694091796875,-67.14169311523438,159.139404296875,-1.486879587173462,2.173445224761963,8.929876327514648,1408.2573010921478
D4:22:CD:00:05:6E,60.573184967041016,-12.226215362548828,16.907373428344727,18.524761199951172,13.593948364257812,2.515944480895996,1408.2573010921478
D4:22:CD:00:05:5E,-165.37481689453125,-61.22563171386719,-32.75992965698242,5.910092353820801,-5.634890556335449,13.399785995483398,1408.2573010921478
D4:22:CD:00:05:5D,177.73822021484375,-52.772342681884766,-113.80542755126953,-1.3397319316864014,2.2590627670288086,2.560209274291992,1408.28688788414
D4:22:CD:00:05:6B,-44.772151947021484,2.622865915298462,-36.31467819213867,3.700291633605957,5.848841667175293,18.441307067871094,1408.28688788414
D4:22:CD:00:49:AA,142.93136596679688,-66.58858489990234,158.53793334960938,-2.4557104110717773,-2.434619426727295,7.127382278442383,1408.28688788414
D4:22:CD:00:05:6E,58.86243438720703,-1.8510830402374268,19.85176658630371,16.656658172607422,0.8578910827636719,-14.321229934692383,1408.28688788414
D4:22:CD:00:05:5E,-165.69691467285156,-59.88512420654297,-36.00894546508789,5.969067573547363,-8.092063903808594,8.520757675170898,1408.28688788414
