Device,EulerX,EulerY,EulerZ,FreeAccX,FreeAccY,FreeAccZ,Timestamp
D4:22:CD:00:05:5D,-177.5206756591797,-63.61675262451172,-127.2739486694336,-0.33209288120269775,-0.12867897748947144,0.12893962860107422,1481.3942985534668
D4:22:CD:00:05:6B,-65.4273452758789,-53.57061004638672,-58.80597686767578,-6.641043663024902,11.993865966796875,20.65493392944336,1481.3942985534668
D4:22:CD:00:49:AA,132.02944946289062,-73.96484375,136.095947265625,-1.042710304260254,-0.5896649360656738,0.5936250686645508,1481.3942985534668
D4:22:CD:00:05:6E,105.43738555908203,-27.390567779541016,7.329386234283447,4.383135795593262,0.899728536605835,-1.615809440612793,1481.3942985534668
D4:22:CD:00:05:5E,-175.7726593017578,-31.246978759765625,-25.348163604736328,10.497419357299805,3.872305393218994,-4.589498519897461,1481.3942985534668
D4:22:CD:00:05:5D,-174.9717254638672,-66.02771759033203,-130.17701721191406,0.3675652742385864,-0.5165703296661377,0.2047901153564453,1481.406487941742
D4:22:CD:00:05:6B,-54.089988708496094,-39.33857345581055,-53.305782318115234,-3.591987133026123,-4.0292205810546875,15.056095123291016,1481.406487941742
D4:22:CD:00:49:AA,136.19471740722656,-74.14427185058594,131.51954650878906,-1.7312655448913574,1.849388837814331,0.2362375259399414,1481.406487941742
D4:22:CD:00:05:6E,108.06112670898438,-34.121551513671875,9.489951133728027,5.004922866821289,-2.512624740600586,0.0572967529296875,1481.406487941742
D4:22:CD:00:05:5E,-172.5833740234375,-35.08400344848633,-28.451393127441406,6.828326225280762,2.120391845703125,-6.636834144592285,1481.406487941742
D4:22:CD:00:05:6B,-41.062522888183594,-25.374597549438477,-53.32246780395508,-1.3868303298950195,-13.610200881958008,5.536822319030762,1481.417484998703
D4:22:CD:00:49:AA,138.70811462402344,-75.29048156738281,129.1481475830078,-3.020521640777588,2.2683043479919434,-0.03735828399658203,1481.417484998703
D4:22:CD:00:05:6E,107.59578704833984,-42.41217803955078,11.836033821105957,7.663829803466797,-2.1349191665649414,-0.9374580383300781,1481.417484998703
D4:22:CD:00:05:5E,-168.2513885498047,-41.93153381347656,-32.33652877807617,4.139186859130859,0.3891294002532959,-7.1561431884765625,1481.417484998703
D4:22:CD:00:05:5D,177.83766174316406,-63.30588150024414,-111.54911041259766,0.6971943378448486,-0.5802595615386963,0.12310028076171875,1481.424807548523
D4:22:CD:00:49:AA,142.4983673095703,-76.63213348388672,127.1409912109375,-2.8224854469299316,1.6115901470184326,-2.310642719268799,1481.424807548523
D4:22:CD:00:05:6E,109.44530487060547,-51.06625747680664,15.833693504333496,5.4627180099487305,0.03761342912912369,-0.768035888671875,1481.424807548523
D4:22:CD:00:05:5E,-163.81280517578125,-50.96510314941406,-36.996253967285156,2.3174991607666016,-1.9160351753234863,-5.8998308181762695,1481.424807548523
D4:22:CD:00:05:5D,176.8498077392578,-57.854225158691406,-109.89682006835938,-0.4470002055168152,0.054777659475803375,0.7029647827148438,1481.431134223938
D4:22:CD:00:05:6B,-77.42882537841797,-26.230606079101562,-35.519981384277344,-0.2506868839263916,1.9751076698303223,8.694501876831055,1481.431134223938
D4:22:CD:00:49:AA,-157.53575134277344,-82.72611236572266,82.94104766845703,1.987598180770874,0.4263764023780823,2.5069990158081055,1481.431134223938
D4:22:CD:00:05:6E,103.53252410888672,-60.59086990356445,43.62248611450195,0.5648865699768066,3.8311767578125,0.6132059097290039,1481.431134223938
D4:22:CD:00:05:5D,176.9791717529297,-59.2066764831543,-110.6887435913086,1.3080081939697266,-0.46718645095825195,0.6448888778686523,1481.4571723937988
D4:22:CD:00:05:6B,-74.48595428466797,-11.634637832641602,-30.88880729675293,0.8369534015655518,-1.9094786643981934,5.9529008865356445,1481.4571723937988
D4:22:CD:00:49:AA,-162.0080108642578,-81.54107666015625,86.74540710449219,1.619565725326538,1.5926353931427002,1.6364574432373047,1481.4571723937988
D4:22:CD:00:05:6E,116.69285583496094,-66.11931610107422,46.72494888305664,-2.899742603302002,0.22560670971870422,-1.8271198272705078,1481.4571723937988
D4:22:CD:00:05:5E,-105.03713989257812,-69.1543960571289,-77.14164733886719,-0.7793360948562622,0.6657249927520752,3.5718231201171875,1481.4571723937988
D4:22:CD:00:05:5D,177.6079559326172,-61.34751510620117,-111.53728485107422,1.5257153511047363,-0.6555558443069458,0.5320682525634766,1481.4870553016663
D4:22:CD:00:05:6B,-72.01240539550781,0.8336420655250549,-24.78863525390625,4.5574493408203125,-2.7055845260620117,6.698566436767578,1481.4870553016663
D4:22:CD:00:49:AA,-167.72628784179688,-81.88274383544922,92.19102478027344,-0.801776647567749,0.2498537302017212,1.6578350067138672,1481.4870553016663
D4:22:CD:00:05:6E,119.56895446777344,-71.13455200195312,56.90926742553711,-4.474287986755371,-2.1262760162353516,-3.291900157928467,1481.4870553016663
D4:22:CD:00:05:5E,-102.12845611572266,-65.60094451904297,-80.89128112792969,-0.43017059564590454,-0.6068979501724243,1.371098518371582,1481.4870553016663
D4:22:CD:00:05:5D,178.3567352294922,-64.06084442138672,-112.7291030883789,0.097895547747612,-0.49245959520339966,0.3375415802001953,1481.5171751976013
D4:22:CD:00:05:6B,-64.87860870361328,11.591733932495117,-18.708669662475586,8.201776504516602,-2.269758701324463,9.475341796875,1481.5171751976013
D4:22:CD:00:49:AA,-164.63967895507812,-82.3951187133789,89.6771240234375,-2.062300205230713,-0.04476584494113922,0.8511276245117188,1481.5171751976013
D4:22:CD:00:05:6E,120.40824890136719,-76.7434310913086,65.64722442626953,-3.5798521041870117,-4.81443977355957,-5.7642927169799805,1481.5171751976013
D4:22:CD:00:05:5E,-95.88693237304688,-60.94804763793945,-90.73711395263672,-0.2968507409095764,-2.0450100898742676,-3.2650156021118164,1481.5171751976013
D4:22:CD:00:05:5D,179.12388610839844,-66.98103332519531,-114.2463607788086,0.02304328978061676,-1.1046912670135498,0.18361663818359375,1481.5471816062927
D4:22:CD:00:05:6B,-50.88814163208008,20.674474716186523,-13.029684066772461,8.56414794921875,-6.119121551513672,5.441435813903809,1481.5471816062927
D4:22:CD:00:49:AA,-152.1320343017578,-83.15184020996094,78.40985870361328,-1.6021606922149658,-0.05608788877725601,-1.5301408767700195,1481.5471816062927
D4:22:CD:00:05:6E,123.53240203857422,-83.81880187988281,69.11445617675781,-0.4277019500732422,-5.0314741134643555,-6.888381004333496,1481.5471816062927
D4:22:CD:00:05:5E,-87.96875,-57.75770568847656,-103.26799774169922,-1.116649866104126,-2.9585866928100586,-6.128949165344238,1481.5471816062927
D4:22:CD:00:05:5D,179.58975219726562,-69.82675170898438,-115.4398422241211,0.2946808338165283,-0.9591540098190308,-0.4352102279663086,1481.5766611099243
D4:22:CD:00:05:6B,-34.35544204711914,27.91590690612793,-7.935956001281738,6.399611473083496,-8.342451095581055,-0.20216846466064453,1481.5766611099243
D4:22:CD:00:49:AA,-135.09375,-83.41619873046875,63.0105094909668,0.37932753562927246,-0.5265194177627563,-3.3073225021362305,1481.5766611099243
D4:22:CD:00:05:6E,-65.57762908935547,-87.123291015625,-95.5878677368164,0.9277094602584839,-5.275727272033691,-5.078666687011719,1481.5766611099243
D4:22:CD:00:05:5E,-77.5478744506836,-54.87281799316406,-117.20745086669922,-3.068182945251465,-3.8726611137390137,-6.202193260192871,1481.5766611099243
D4:22:CD:00:05:5D,179.57968139648438,-72.25432586669922,-116.15101623535156,0.2948763966560364,-2.0770983695983887,-1.2679176330566406,1481.606617450714
D4:22:CD:00:05:6B,-17.604721069335938,33.333953857421875,-4.095263481140137,0.529198169708252,-11.080102920532227,-5.404125213623047,1481.606617450714
D4:22:CD:00:49:AA,-121.65245819091797,-83.37274169921875,51.74924850463867,0.4562227725982666,0.3845038414001465,-3.9471492767333984,1481.606617450714
D4:22:CD:00:05:6E,-58.436927795410156,-77.233642578125,-97.08027648925781,2.5990633964538574,-9.291013717651367,-3.9027223587036133,1481.606617450714
D4:22:CD:00:05:5E,-64.33183288574219,-52.30034255981445,-132.2183837890625,-9.62104606628418,-4.277494430541992,-10.162971496582031,1481.606617450714
D4:22:CD:00:05:5D,178.63182067871094,-73.80976867675781,-115.146484375,0.23440831899642944,-2.144441604614258,-1.261423110961914,1481.6410701274872
D4:22:CD:00:05:6B,-4.323152542114258,37.25222396850586,-2.335740566253662,-4.886604309082031,-4.769406318664551,-8.72216796875,1481.6410701274872
D4:22:CD:00:49:AA,-110.28500366210938,-83.5199203491211,42.036773681640625,0.5386648178100586,0.9413250684738159,-2.7314987182617188,1481.6410701274872
D4:22:CD:00:05:6E,-59.669837951660156,-67.89154052734375,-93.61460876464844,2.245518684387207,-10.370763778686523,-2.7835745811462402,1481.6410701274872
D4:22:CD:00:05:5E,-57.320682525634766,-51.57096862792969,-144.8779754638672,-14.36373519897461,-6.043569564819336,-13.004825592041016,1481.6410701274872
D4:22:CD:00:05:5D,176.2906494140625,-74.49422454833984,-112.28079223632812,0.8681204319000244,-2.252469062805176,-0.5937824249267578,1481.676094532013
D4:22:CD:00:05:6B,0.6756613850593567,41.18513488769531,-3.9268805980682373,-2.5808324813842773,-0.4095592498779297,-8.586135864257812,1481.676094532013
D4:22:CD:00:49:AA,-98.89247131347656,-83.77156066894531,31.94769859313965,0.29815107583999634,1.0186123847961426,-1.2282257080078125,1481.676094532013
D4:22:CD:00:05:6E,-62.057003021240234,-60.41762161254883,-89.9594497680664,2.1487269401550293,-11.038398742675781,-1.2439556121826172,1481.676094532013
D4:22:CD:00:05:5E,-57.28396987915039,-53.624168395996094,-155.8463897705078,-19.228763580322266,-2.2099223136901855,-11.447084426879883,1481.676094532013
D4:22:CD:00:05:5D,173.26832580566406,-74.67623901367188,-108.16084289550781,-0.3640509843826294,-0.4686988592147827,0.53125,1481.7415974140167
D4:22:CD:00:05:6B,-1.0430852174758911,46.156436920166016,-11.40296745300293,1.8673095703125,2.0348458290100098,-8.559659957885742,1481.7415974140167
D4:22:CD:00:49:AA,-84.10111999511719,-84.40472412109375,18.072465896606445,-0.665340781211853,0.10986556112766266,-0.0739297866821289,1481.7415974140167
D4:22:CD:00:05:6E,-62.49301528930664,-56.6047477722168,-87.66119384765625,3.9769701957702637,-11.980316162109375,-2.861107349395752,1481.7415974140167
D4:22:CD:00:05:5E,-59.40800857543945,-57.72667694091797,-162.9275360107422,-13.549034118652344,6.016950607299805,-8.636138916015625,1481.7415974140167
D4:22:CD:00:05:5D,169.18316650390625,-74.72607421875,-103.22944641113281,-0.5759419202804565,-0.33955061435699463,0.5582122802734375,1481.7566769123077
D4:22:CD:00:05:6B,-8.242912292480469,51.39155197143555,-30.78824234008789,3.9906606674194336,4.709023475646973,-9.905597686767578,1481.7566769123077
D4:22:CD:00:49:AA,-62.05481719970703,-84.99034881591797,-3.77896785736084,-0.9300422668457031,0.0762878805398941,0.3931131362915039,1481.7566769123077
D4:22:CD:00:05:6E,-61.711360931396484,-58.40363693237305,-87.47705078125,3.998175621032715,-9.46879768371582,-3.8638362884521484,1481.7566769123077
D4:22:CD:00:05:5E,-53.51753616333008,-62.4667854309082,-166.7667236328125,-25.83161163330078,19.034931182861328,-16.588489532470703,1481.7566769123077
D4:22:CD:00:05:5D,164.2860107421875,-74.53060150146484,-97.54174041748047,-0.1284101903438568,-1.0343420505523682,0.011948585510253906,1481.786667585373
D4:22:CD:00:05:6B,-23.31886863708496,49.39032745361328,-65.13700103759766,1.799983024597168,-0.628207802772522,-18.778263092041016,1481.786667585373
D4:22:CD:00:49:AA,-38.679744720458984,-84.91485595703125,-27.880535125732422,-1.2235534191131592,0.5620372295379639,-1.7911853790283203,1481.786667585373
D4:22:CD:00:05:6E,-60.36243438720703,-64.06639862060547,-88.36797332763672,3.65083646774292,-7.673164367675781,-3.4577040672302246,1481.786667585373
D4:22:CD:00:05:5E,-59.18987274169922,-70.08006286621094,-156.91969299316406,-12.890758514404297,-12.617298126220703,-7.135345458984375,1481.786667585373
D4:22:CD:00:05:5D,157.5423126220703,-74.0433349609375,-90.46212768554688,-1.63230299949646,-0.3128693699836731,0.29818248748779297,1481.8193056583405
D4:22:CD:00:05:6B,-39.08167266845703,36.47130584716797,-91.01458740234375,-2.829960823059082,-25.285770416259766,-30.715255737304688,1481.8193056583405
D4:22:CD:00:49:AA,-25.26718521118164,-84.57054138183594,-42.43504333496094,-0.39207011461257935,-1.4814379215240479,-0.8321189880371094,1481.8193056583405
D4:22:CD:00:05:6E,-55.246524810791016,-71.19721984863281,-92.5821304321289,3.8675537109375,-5.650322914123535,-2.037637710571289,1481.8193056583405
D4:22:CD:00:05:5E,-78.1013412475586,-76.99209594726562,-139.20272827148438,4.756542205810547,-10.885810852050781,7.186868667602539,1481.8193056583405
D4:22:CD:00:05:5D,149.4704132080078,-73.32139587402344,-82.01139068603516,0.15565842390060425,-0.4508131146430969,1.1628437042236328,1481.8463187217712
D4:22:CD:00:05:6B,-67.85014343261719,34.26434326171875,-93.80963134765625,7.663568496704102,36.66603088378906,-25.528427124023438,1481.8463187217712
D4:22:CD:00:49:AA,-24.462434768676758,-84.9486312866211,-43.7307243347168,0.78597092628479,-2.365241527557373,2.010892868041992,1481.8463187217712
D4:22:CD:00:05:6E,-45.0123405456543,-77.9746322631836,-101.7033462524414,0.904822826385498,-1.5454323291778564,-1.240107536315918,1481.8463187217712
D4:22:CD:00:05:5E,-118.7552719116211,-78.62854766845703,-102.81436157226562,-2.016371726989746,1.03369140625,1.896677017211914,1481.8463187217712
D4:22:CD:00:05:5D,141.26544189453125,-72.64447784423828,-74.0544662475586,1.9828662872314453,0.07926663756370544,1.2511167526245117,1481.876808643341
D4:22:CD:00:05:6B,-85.10961151123047,42.01853561401367,-89.46693420410156,-0.025449275970458984,-14.257360458374023,25.094284057617188,1481.876808643341
D4:22:CD:00:49:AA,-31.306861877441406,-85.82820129394531,-37.34291076660156,3.1106185913085938,-2.440977096557617,2.556332588195801,1481.876808643341
D4:22:CD:00:05:6E,-29.30466079711914,-83.03767395019531,-115.21324157714844,3.1851816177368164,-3.0724802017211914,4.112357139587402,1481.876808643341
D4:22:CD:00:05:5E,-145.44676208496094,-78.1452407836914,-77.4269027709961,-2.0046825408935547,6.805530548095703,-1.317540168762207,1481.876808643341
D4:22:CD:00:05:5D,130.05093383789062,-72.93914031982422,-66.31916809082031,1.3169476985931396,-1.9080305099487305,0.9166584014892578,1481.9067857265472
D4:22:CD:00:05:6B,-61.33770751953125,46.4231071472168,-78.72987365722656,-8.125349044799805,4.221480369567871,-17.51361846923828,1481.9067857265472
D4:22:CD:00:49:AA,-36.884700775146484,-85.61885070800781,-33.163089752197266,8.978157043457031,1.7223575115203857,0.34799957275390625,1481.9067857265472
D4:22:CD:00:05:6E,-7.797260284423828,-85.27462005615234,-136.11337280273438,4.411861419677734,-0.8101933002471924,4.831300735473633,1481.9067857265472
D4:22:CD:00:05:5E,-165.02906799316406,-78.44329833984375,-58.09819793701172,-1.2591075897216797,-1.2626385688781738,4.040353775024414,1481.9067857265472
D4:22:CD:00:05:5D,117.82598114013672,-72.373779296875,-61.82075500488281,5.938361167907715,-2.755953311920166,0.6036605834960938,1481.9371695518494
D4:22:CD:00:05:6B,-50.4296760559082,48.32441711425781,-55.40941619873047,-13.655941009521484,-9.873136520385742,-3.3336849212646484,1481.9371695518494
D4:22:CD:00:49:AA,-45.4778938293457,-85.60123443603516,-28.63382911682129,11.512430191040039,1.9653151035308838,-2.1960010528564453,1481.9371695518494
D4:22:CD:00:05:6E,18.402854919433594,-85.44052124023438,-162.39642333984375,0.40994542837142944,1.3251111507415771,2.5990705490112305,1481.9371695518494
D4:22:CD:00:05:5E,179.58718872070312,-79.9514389038086,-41.81991195678711,-0.8326267004013062,0.2664194107055664,0.3305635452270508,1481.9371695518494
D4:22:CD:00:05:5D,113.71477508544922,-70.85881805419922,-67.04486083984375,12.852262496948242,1.0238699913024902,1.349125862121582,1481.9666893482208
D4:22:CD:00:05:6B,-35.86872863769531,40.461029052734375,-34.44100570678711,-10.989166259765625,-1.802664041519165,-2.1946473121643066,1481.9666893482208
D4:22:CD:00:49:AA,-90.8270034790039,-85.59526824951172,12.618108749389648,2.5309090614318848,-0.9408931732177734,-0.2163686752319336,1481.9666893482208
D4:22:CD:00:05:6E,36.93391418457031,-84.386474609375,-179.33139038085938,-2.305258274078369,2.306075096130371,-1.9442710876464844,1481.9666893482208
D4:22:CD:00:05:5E,168.08021545410156,-80.60066223144531,-30.493349075317383,-1.2700839042663574,-0.49991440773010254,-0.32628726959228516,1481.9666893482208
D4:22:CD:00:05:5D,119.36656188964844,-68.2188720703125,-83.06432342529297,15.340654373168945,5.529273986816406,5.835417747497559,1482.0270774364471
D4:22:CD:00:05:6B,-27.625926971435547,25.572399139404297,-18.386486053466797,-8.152179718017578,1.5280723571777344,-14.932979583740234,1482.0270774364471
D4:22:CD:00:49:AA,-111.87821960449219,-84.50638580322266,33.0726203918457,-1.180006980895996,-2.8057732582092285,0.15334320068359375,1482.0270774364471
D4:22:CD:00:05:6E,45.05655288696289,-83.16112518310547,176.6144561767578,-2.647308826446533,-1.1283848285675049,-2.607271194458008,1482.0270774364471
D4:22:CD:00:05:5E,159.33248901367188,-80.57047271728516,-21.694753646850586,-1.0663917064666748,-1.268228530883789,-0.020780563354492188,1482.0270774364471
D4:22:CD:00:05:5D,131.30645751953125,-60.8392333984375,-100.06661224365234,11.686311721801758,3.1007962226867676,6.564487457275391,1482.0573003292084
D4:22:CD:00:05:6B,-29.224538803100586,7.1550469398498535,-3.92688250541687,6.537872314453125,4.087818145751953,-13.764177322387695,1482.0573003292084
D4:22:CD:00:49:AA,-118.14298248291016,-84.18634796142578,39.285682678222656,2.4875011444091797,1.133087158203125,0.15782737731933594,1482.0573003292084
D4:22:CD:00:05:6E,45.34223175048828,-82.26409149169922,-179.7955322265625,-3.0660085678100586,-4.286020278930664,-0.1436290740966797,1482.0573003292084
D4:22:CD:00:05:5E,151.26553344726562,-80.73269653320312,-11.701745986938477,0.057346999645233154,-0.4920351505279541,0.22445201873779297,1482.0573003292084
D4:22:CD:00:05:5D,142.45460510253906,-50.99158477783203,-112.51961517333984,6.277115821838379,-0.43095529079437256,1.5069265365600586,1482.0870106220245
D4:22:CD:00:05:6B,-37.60154342651367,-10.171158790588379,10.08749008178711,12.315744400024414,6.861563682556152,-9.08770751953125,1482.0870106220245
D4:22:CD:00:49:AA,-123.58253479003906,-84.331298828125,43.31562042236328,5.270299911499023,2.964419364929199,0.2509450912475586,1482.0870106220245
D4:22:CD:00:05:6E,44.25900650024414,-81.7540054321289,-177.1534881591797,-1.7777531147003174,-5.150495529174805,0.03571796417236328,1482.0870106220245
D4:22:CD:00:05:5E,145.8079376220703,-80.74842071533203,-4.594069480895996,-0.7848628759384155,0.2593170404434204,0.45515918731689453,1482.0870106220245
D4:22:CD:00:05:5D,150.30543518066406,-41.00407028198242,-121.30915832519531,-2.7707748413085938,2.0661754608154297,-2.722532272338867,1482.1167197227478
D4:22:CD:00:05:6B,-50.83194351196289,-23.698898315429688,22.810359954833984,7.728725433349609,8.93362045288086,-1.2941856384277344,1482.1167197227478
D4:22:CD:00:49:AA,-129.64422607421875,-84.97679901123047,47.3055534362793,4.81443977355957,0.15406513214111328,0.2871379852294922,1482.1167197227478
D4:22:CD:00:05:6E,45.695465087890625,-81.77543640136719,-179.66651916503906,-1.1259355545043945,-2.758708953857422,-0.5933256149291992,1482.1167197227478
D4:22:CD:00:05:5E,142.7581787109375,-80.9756851196289,0.18236449360847473,1.6334335803985596,3.140697956085205,0.6439437866210938,1482.1167197227478
D4:22:CD:00:05:5D,154.790771484375,-32.13224411010742,-127.44400787353516,-5.419524192810059,1.7118701934814453,-9.685495376586914,1482.1467645168304
D4:22:CD:00:05:6B,-57.41164016723633,-31.478105545043945,29.9748592376709,-1.7868170738220215,3.5342273712158203,8.370235443115234,1482.1467645168304
D4:22:CD:00:49:AA,-126.68387603759766,-85.71293640136719,43.11240005493164,2.0828089714050293,0.31608957052230835,-0.48532676696777344,1482.1467645168304
D4:22:CD:00:05:6E,51.073490142822266,-81.86341857910156,172.70425415039062,-0.3429931402206421,-2.201508045196533,-1.3764228820800781,1482.1467645168304
D4:22:CD:00:05:5E,138.71780395507812,-81.19828796386719,7.6938581466674805,0.14815571904182434,0.6829159259796143,0.08250999450683594,1482.1467645168304
D4:22:CD:00:05:5D,159.33779907226562,-25.782241821289062,-132.1215362548828,-6.153816223144531,1.7776224613189697,-10.42393684387207,1482.1767966747284
D4:22:CD:00:05:6B,-55.534393310546875,-34.9393310546875,29.165782928466797,-2.025773048400879,6.011441230773926,-2.884428024291992,1482.1767966747284
D4:22:CD:00:49:AA,-107.2869873046875,-86.70426177978516,23.010650634765625,0.8171991109848022,1.2759454250335693,-3.587383270263672,1482.1767966747284
D4:22:CD:00:05:6E,57.47079086303711,-81.44388580322266,163.83555603027344,-0.28798240423202515,-2.425960063934326,-1.6789169311523438,1482.1767966747284
D4:22:CD:00:05:5E,137.69334411621094,-81.15555572509766,12.028897285461426,-3.4132328033447266,-3.4649224281311035,-1.2786540985107422,1482.1767966747284
D4:22:CD:00:05:5D,162.12725830078125,-23.07317543029785,-135.80392456054688,-4.552885055541992,1.132580280303955,-8.670429229736328,1482.2073554992676
D4:22:CD:00:05:6B,-58.034217834472656,-36.80870056152344,25.189908981323242,-0.22237539291381836,-2.7016806602478027,-0.6563968658447266,1482.2073554992676
D4:22:CD:00:49:AA,-96.73265075683594,-86.98338317871094,12.293347358703613,0.1193845272064209,0.6339640617370605,-4.164539337158203,1482.2073554992676
D4:22:CD:00:05:6E,62.26323318481445,-80.49568939208984,157.30850219726562,-0.5392948389053345,-1.9280097484588623,-1.6648406982421875,1482.2073554992676
D4:22:CD:00:05:5E,142.31170654296875,-80.1513442993164,8.0839204788208,-2.4220495223999023,-4.101158142089844,-1.6903676986694336,1482.2073554992676
D4:22:CD:00:05:5D,164.01148986816406,-23.78453254699707,-139.1741943359375,-7.59543514251709,-0.450947642326355,-5.935565948486328,1482.2365334033966
D4:22:CD:00:05:6B,-58.76308822631836,-41.172977447509766,21.283098220825195,1.8378510475158691,-2.811807632446289,-0.25606727600097656,1482.2365334033966
D4:22:CD:00:49:AA,-106.8973159790039,-86.91815185546875,22.805988311767578,1.1071770191192627,-0.043820492923259735,-3.539590358734131,1482.2365334033966
D4:22:CD:00:05:6E,65.11363220214844,-79.5416488647461,154.26104736328125,0.7765357494354248,-1.8688032627105713,-1.6628236770629883,1482.2365334033966
D4:22:CD:00:05:5E,150.30007934570312,-78.64667510986328,0.16703340411186218,-1.236342430114746,-2.543545722961426,-1.5378971099853516,1482.2365334033966
D4:22:CD:00:05:5D,164.45205688476562,-27.823984146118164,-141.5032501220703,-10.571937561035156,-1.7195384502410889,8.782537460327148,1482.2668330669403
D4:22:CD:00:05:6B,-56.418643951416016,-51.34909439086914,15.626632690429688,8.168342590332031,-1.1254899501800537,9.030738830566406,1482.2668330669403
D4:22:CD:00:49:AA,-107.79560089111328,-86.60950469970703,23.715391159057617,2.7000174522399902,-0.7961089611053467,-2.876370906829834,1482.2668330669403
D4:22:CD:00:05:6E,63.172611236572266,-78.86857604980469,156.9817352294922,2.0262351036071777,-2.1411800384521484,-0.7429122924804688,1482.2668330669403
D4:22:CD:00:05:5E,158.8867645263672,-76.80963134765625,-9.397082328796387,-1.4481098651885986,-0.40945279598236084,-0.47290897369384766,1482.2668330669403
D4:22:CD:00:05:5D,161.58006286621094,-26.652259826660156,-139.7990264892578,-9.99962043762207,-1.84989333152771,10.144140243530273,1482.3270075321198
D4:22:CD:00:05:6B,-34.593101501464844,-64.78904724121094,1.586915373802185,2.1397271156311035,-7.739954948425293,33.651458740234375,1482.3270075321198
D4:22:CD:00:49:AA,-105.78557586669922,-86.42379760742188,21.351694107055664,2.7215042114257812,-1.2489213943481445,-0.8691177368164062,1482.3270075321198
D4:22:CD:00:05:6E,57.361454010009766,-78.10577392578125,164.49258422851562,1.1882145404815674,-2.8997716903686523,-1.0881338119506836,1482.3270075321198
D4:22:CD:00:05:5E,165.38787841796875,-74.94607543945312,-17.200355529785156,-1.0492336750030518,0.38727229833602905,0.9365873336791992,1482.3270075321198
D4:22:CD:00:05:5D,163.54534912109375,-25.525468826293945,-136.57562255859375,-11.665960311889648,-10.672172546386719,-6.885988235473633,1482.3572657108307
D4:22:CD:00:05:6B,-13.529858589172363,-67.71924591064453,-6.267852306365967,10.898317337036133,18.74365997314453,6.972373962402344,1482.3572657108307
D4:22:CD:00:49:AA,-107.79716491699219,-86.68412780761719,23.214088439941406,0.3059118986129761,1.334437370300293,3.944340705871582,1482.3572657108307
D4:22:CD:00:05:6E,57.06456756591797,-76.78425598144531,167.82574462890625,0.8391933441162109,-5.713004112243652,0.008317947387695312,1482.3572657108307
D4:22:CD:00:05:5E,167.9403839111328,-73.67768096923828,-20.7459716796875,-1.8102662563323975,0.16287946701049805,0.9031486511230469,1482.3572657108307
D4:22:CD:00:05:5D,169.123291015625,-24.509798049926758,-133.57188415527344,-12.877676010131836,-7.797031402587891,-0.21271514892578125,1482.3870587348938
D4:22:CD:00:05:6B,-42.660255432128906,-62.53620147705078,16.650768280029297,7.7495222091674805,13.146402359008789,10.454635620117188,1482.3870587348938
D4:22:CD:00:49:AA,-120.51382446289062,-86.34928894042969,36.41557693481445,1.0486383438110352,1.9118387699127197,3.52524471282959,1482.3870587348938
D4:22:CD:00:05:6E,69.54803466796875,-73.23675537109375,158.513427734375,2.13600492477417,-7.167713165283203,9.364627838134766,1482.3870587348938
D4:22:CD:00:05:5E,167.62351989746094,-73.11919403076172,-21.006250381469727,-1.7310023307800293,0.6299103498458862,1.1209077835083008,1482.3870587348938
D4:22:CD:00:05:5D,172.8566436767578,-23.886980056762695,-132.82785034179688,-9.454410552978516,-9.698593139648438,1.8236408233642578,1482.4165925979614
D4:22:CD:00:05:6B,-50.752254486083984,-57.07256317138672,22.909273147583008,8.047529220581055,10.067380905151367,5.641824722290039,1482.4165925979614
D4:22:CD:00:49:AA,-139.80931091308594,-85.05209350585938,56.15131759643555,3.5499753952026367,0.65038001537323,4.443754196166992,1482.4165925979614
D4:22:CD:00:05:6E,82.81683349609375,-64.27784729003906,147.17124938964844,4.678119659423828,-8.486135482788086,19.265384674072266,1482.4165925979614
D4:22:CD:00:05:5E,166.63571166992188,-72.80596923828125,-21.455007553100586,-1.8516359329223633,0.08433680236339569,0.5314207077026367,1482.4165925979614
D4:22:CD:00:05:5D,172.91209411621094,-23.359891891479492,-133.07565307617188,-13.297752380371094,-2.2907652854919434,6.414836883544922,1482.4466018676758
D4:22:CD:00:05:6B,-50.81071853637695,-52.7288703918457,22.578750610351562,12.517316818237305,7.255395889282227,3.2485809326171875,1482.4466018676758
D4:22:CD:00:49:AA,-149.68887329101562,-84.22586059570312,66.23554229736328,3.7982749938964844,0.12220145761966705,4.841440200805664,1482.4466018676758
D4:22:CD:00:05:6E,90.33380889892578,-50.13752365112305,140.25294494628906,5.369056701660156,-6.69316291809082,23.08504867553711,1482.4466018676758
D4:22:CD:00:05:5E,166.6581573486328,-72.90076446533203,-23.494861602783203,-2.1306190490722656,-1.3003106117248535,0.7741184234619141,1482.4466018676758
D4:22:CD:00:05:5D,164.81407165527344,-24.07193374633789,-133.0864715576172,-9.131549835205078,-4.971965789794922,-0.5373954772949219,1482.4777116775513
D4:22:CD:00:05:6B,-53.0181770324707,-45.79903030395508,22.222003936767578,15.909708023071289,2.089470386505127,4.762470245361328,1482.4777116775513
D4:22:CD:00:49:AA,-157.5900115966797,-84.5452651977539,73.81726837158203,0.8139684200286865,2.4307799339294434,2.7971744537353516,1482.4777116775513
D4:22:CD:00:05:6E,90.45858764648438,-32.442806243896484,136.48614501953125,2.9252986907958984,-1.7640089988708496,20.45075225830078,1482.4777116775513
D4:22:CD:00:05:5E,165.63723754882812,-74.34408569335938,-24.14388656616211,-1.669079303741455,-0.5303950309753418,0.8502645492553711,1482.4777116775513
D4:22:CD:00:05:5D,158.1084747314453,-26.362045288085938,-133.18829345703125,-7.547616004943848,-3.2972960472106934,-2.489572048187256,1482.507298707962
D4:22:CD:00:05:6B,-55.72887420654297,-37.03799819946289,21.09766960144043,12.690370559692383,-2.987919330596924,3.4511566162109375,1482.507298707962
D4:22:CD:00:49:AA,-169.89859008789062,-84.43524932861328,85.19583129882812,2.382962226867676,1.4725918769836426,1.4834918975830078,1482.507298707962
D4:22:CD:00:05:6E,82.83612823486328,-12.135602951049805,135.18405151367188,-0.637582540512085,3.858715534210205,13.028663635253906,1482.507298707962
D4:22:CD:00:05:5E,162.03536987304688,-76.73713684082031,-21.854446411132812,-1.1200976371765137,0.23996862769126892,0.7542533874511719,1482.507298707962
D4:22:CD:00:05:5D,154.32437133789062,-30.694040298461914,-132.57135009765625,-8.38792610168457,-1.5051093101501465,-5.195169448852539,1482.5467417240143
D4:22:CD:00:05:6B,-56.26305389404297,-30.074993133544922,17.856163024902344,6.487515449523926,-3.075260639190674,-3.11680269241333,1482.5467417240143
D4:22:CD:00:49:AA,-178.36692810058594,-84.2601089477539,93.08177185058594,2.4247703552246094,1.1572351455688477,-0.984492301940918,1482.5467417240143
D4:22:CD:00:05:6E,68.59337615966797,8.492055892944336,133.962158203125,-7.267495155334473,5.358502388000488,-2.5610995292663574,1482.5467417240143
D4:22:CD:00:05:5E,154.45594787597656,-79.51023864746094,-15.144028663635254,-0.42411839962005615,0.43967676162719727,0.5846319198608398,1482.5467417240143
D4:22:CD:00:05:5D,152.27334594726562,-36.8843879699707,-130.6180419921875,-6.551749229431152,-0.3333793878555298,-5.259233474731445,1482.5667572021484
D4:22:CD:00:05:6B,-58.27679443359375,-26.335552215576172,13.663228988647461,0.8489440679550171,-2.5498147010803223,-5.962719917297363,1482.5667572021484
D4:22:CD:00:49:AA,175.7626190185547,-83.91214752197266,98.90243530273438,1.5407185554504395,0.6542553901672363,-3.064615249633789,1482.5667572021484
D4:22:CD:00:05:6E,52.801116943359375,27.806636810302734,131.3875274658203,-1.069758653640747,5.254949569702148,-13.324270248413086,1482.5667572021484
D4:22:CD:00:05:5E,141.80384826660156,-82.03936004638672,-2.7115588188171387,-0.8385037183761597,-0.8699016571044922,-0.4569549560546875,1482.5667572021484
D4:22:CD:00:05:5D,149.64993286132812,-44.80649948120117,-126.9459228515625,-3.824110984802246,-1.2800214290618896,-5.17926025390625,1482.626273393631
D4:22:CD:00:05:6B,-61.03422927856445,-25.97606086730957,8.86128044128418,-1.5125479698181152,-1.1737418174743652,-7.882879257202148,1482.626273393631
D4:22:CD:00:49:AA,172.66737365722656,-83.68509674072266,102.04310607910156,1.8682818412780762,-0.49865156412124634,-4.181327819824219,1482.626273393631
D4:22:CD:00:05:6E,37.62968063354492,45.548736572265625,126.09955596923828,-1.704127311706543,-1.2112116813659668,-11.534276962280273,1482.626273393631
D4:22:CD:00:05:5E,125.40766906738281,-83.79300689697266,13.548864364624023,-0.7409510612487793,-1.6307618618011475,-1.5060529708862305,1482.626273393631
D4:22:CD:00:05:5D,144.80967712402344,-54.24614334106445,-120.843017578125,-1.785935878753662,-2.768937110900879,-3.6511178016662598,1482.6574974060059
D4:22:CD:00:05:6B,-62.98302459716797,-28.85662841796875,3.335521697998047,-1.5568664073944092,0.9574308395385742,-8.908418655395508,1482.6574974060059
D4:22:CD:00:49:AA,171.42481994628906,-83.68388366699219,103.32730102539062,2.2990245819091797,0.32551461458206177,-5.129804611206055,1482.6574974060059
D4:22:CD:00:05:6E,20.364730834960938,60.60993957519531,115.2218246459961,-2.5549116134643555,-4.463594436645508,-8.495429992675781,1482.6574974060059
D4:22:CD:00:05:5E,113.61868286132812,-84.94432830810547,25.286672592163086,-0.7342239618301392,-2.185537338256836,-2.2233242988586426,1482.6574974060059
D4:22:CD:00:05:5D,134.62255859375,-64.69212341308594,-109.41614532470703,0.92578125,-3.747979164123535,1.0021600723266602,1482.6865692138672
D4:22:CD:00:05:6B,-64.69398498535156,-34.984134674072266,-2.722364664077759,-1.488560438156128,1.6585030555725098,-9.015073776245117,1482.6865692138672
D4:22:CD:00:49:AA,174.06529235839844,-83.29308319091797,100.60016632080078,3.2606396675109863,0.7151364088058472,-4.180585861206055,1482.6865692138672
D4:22:CD:00:05:6E,-1.6470749378204346,70.24708557128906,94.17691040039062,-1.0169644355773926,-4.764004707336426,-5.842794418334961,1482.6865692138672
D4:22:CD:00:05:5E,116.39716339111328,-85.99015045166016,22.168846130371094,0.08279931545257568,-2.3283839225769043,-0.5261039733886719,1482.6865692138672
D4:22:CD:00:05:5D,115.68218994140625,-73.3572998046875,-85.67107391357422,7.961565017700195,-2.612302780151367,4.619563102722168,1482.7169964313507
D4:22:CD:00:05:6B,-68.29479217529297,-43.83958435058594,-8.461474418640137,-1.3344833850860596,1.1431617736816406,-9.251169204711914,1482.7169964313507
D4:22:CD:00:49:AA,178.0845184326172,-82.94013977050781,96.26483154296875,4.874213218688965,0.5107882022857666,-1.4688634872436523,1482.7169964313507
D4:22:CD:00:05:6E,-19.285118103027344,73.60777282714844,71.30523681640625,3.4966492652893066,-6.528159141540527,-1.648085594177246,1482.7169964313507
D4:22:CD:00:05:5E,145.95970153808594,-86.65438079833984,-7.7043375968933105,-0.4380521774291992,-1.8753101825714111,-1.0474014282226562,1482.7169964313507
D4:22:CD:00:05:5D,95.52251434326172,-75.86109161376953,-54.08818054199219,24.4337158203125,8.640426635742188,0.14968490600585938,1482.747130393982
D4:22:CD:00:05:6B,-72.99392700195312,-54.95376968383789,-13.49791431427002,-2.2732810974121094,2.2341113090515137,-5.000467300415039,1482.747130393982
D4:22:CD:00:49:AA,-175.26564025878906,-82.82679748535156,89.39308166503906,4.259531021118164,-1.2507712841033936,0.36416053771972656,1482.747130393982
D4:22:CD:00:05:6E,-12.826770782470703,75.42556762695312,75.77297973632812,8.947027206420898,-4.605181694030762,2.313673973083496,1482.747130393982
D4:22:CD:00:05:5E,-171.00743103027344,-85.56446838378906,-50.55987548828125,-1.3069193363189697,-1.8767712116241455,0.48072338104248047,1482.747130393982
D4:22:CD:00:05:5D,103.41594696044922,-73.84075927734375,-48.44684982299805,19.217937469482422,25.65311050415039,-7.255058288574219,1482.7763586044312
D4:22:CD:00:05:6B,-74.84587860107422,-68.12152099609375,-18.1446475982666,-2.3027777671813965,3.619926929473877,0.25627994537353516,1482.7763586044312
D4:22:CD:00:49:AA,-171.63323974609375,-82.55081176757812,85.35408782958984,4.36528205871582,-1.8746380805969238,0.03333282470703125,1482.7763586044312
D4:22:CD:00:05:6E,24.296459197998047,72.88755798339844,115.78976440429688,11.19521713256836,-1.1635735034942627,1.6082077026367188,1482.7763586044312
D4:22:CD:00:05:5E,-146.46881103515625,-83.29094696044922,-74.81580352783203,-0.6602722406387329,2.222911834716797,1.862100601196289,1482.7763586044312
D4:22:CD:00:05:5D,121.2577133178711,-71.4951400756836,-63.88446044921875,6.676356315612793,-8.71922492980957,-0.3969736099243164,1482.806965827942
D4:22:CD:00:05:6B,-90.85850524902344,-80.67034912109375,-10.098432540893555,-1.8313522338867188,2.53117036819458,3.675945281982422,1482.806965827942
D4:22:CD:00:49:AA,-176.24827575683594,-82.60641479492188,89.41203308105469,3.2847795486450195,-0.5165349245071411,1.2879858016967773,1482.806965827942
D4:22:CD:00:05:6E,49.82175064086914,58.6844482421875,147.49114990234375,-7.548377990722656,-1.1424353122711182,-8.300180435180664,1482.806965827942
D4:22:CD:00:05:5E,-130.27740478515625,-81.5836410522461,-91.8926773071289,-2.099611282348633,1.1584463119506836,2.956719398498535,1482.806965827942
D4:22:CD:00:05:5D,131.57528686523438,-71.1655044555664,-76.05005645751953,3.8021559715270996,-1.1769976615905762,8.895854949951172,1482.8369574546814
D4:22:CD:00:05:6B,169.12120056152344,-83.3183364868164,79.03431701660156,-4.346373558044434,9.317680358886719,11.744199752807617,1482.8369574546814
D4:22:CD:00:49:AA,176.94338989257812,-83.10530853271484,96.21990203857422,-3.760159492492676,0.12747344374656677,3.281087875366211,1482.8369574546814
D4:22:CD:00:05:6E,48.537410736083984,38.417728424072266,164.0210723876953,-41.29090881347656,-10.877862930297852,-26.493144989013672,1482.8369574546814
D4:22:CD:00:05:5E,-113.4609146118164,-80.68892669677734,-109.10874938964844,-3.174161434173584,-4.0538530349731445,6.233602523803711,1482.8369574546814
D4:22:CD:00:05:5D,143.8988800048828,-69.3587417602539,-84.67748260498047,2.3297629356384277,0.03649161756038666,0.600071907043457,1482.8669698238373
D4:22:CD:00:05:6B,135.3138427734375,-75.15677642822266,108.86537170410156,-6.548514366149902,10.513269424438477,12.74809455871582,1482.8669698238373
D4:22:CD:00:49:AA,171.08009338378906,-82.61770629882812,103.47818756103516,-2.9568991661071777,-0.9490681886672974,3.8834495544433594,1482.8669698238373
D4:22:CD:00:05:6E,14.722339630126953,32.32948684692383,169.99002075195312,2.8086323738098145,8.338117599487305,-12.05072021484375,1482.8669698238373
D4:22:CD:00:05:5E,-91.77538299560547,-79.79049682617188,-128.5535430908203,-2.273181438446045,-7.369478225708008,1.6105060577392578,1482.8669698238373
D4:22:CD:00:05:5D,152.83714294433594,-69.02565002441406,-92.11467742919922,0.6938223838806152,2.562978744506836,-0.07594585418701172,1482.9268672466278
D4:22:CD:00:05:6B,136.78131103515625,-70.59136199951172,117.40831756591797,-6.603734016418457,5.56160831451416,6.033020973205566,1482.9268672466278
D4:22:CD:00:49:AA,168.11190795898438,-81.5932388305664,108.61502075195312,-1.027869462966919,-1.9015388488769531,1.7240142822265625,1482.9268672466278
D4:22:CD:00:05:6E,17.3812255859375,33.815059661865234,164.75448608398438,9.302679061889648,15.572223663330078,-9.883325576782227,1482.9268672466278
D4:22:CD:00:05:5E,-71.58338928222656,-78.86516571044922,-142.21376037597656,-10.629657745361328,-2.6942367553710938,-2.3974361419677734,1482.9268672466278
D4:22:CD:00:05:5D,158.7837677001953,-69.38763427734375,-97.30366516113281,2.636375904083252,-0.9154212474822998,1.3080682754516602,1482.9568679332733
D4:22:CD:00:05:6B,149.02505493164062,-71.29656219482422,112.80223846435547,0.5122115612030029,3.332961082458496,4.6175994873046875,1482.9568679332733
D4:22:CD:00:49:AA,174.44259643554688,-81.14608001708984,104.92765808105469,-4.20233154296875,0.7508364915847778,-1.6152524948120117,1482.9568679332733
D4:22:CD:00:05:6E,30.045486450195312,35.08273696899414,151.18377685546875,-8.61433219909668,-11.43229866027832,1.177018165588379,1482.9568679332733
D4:22:CD:00:05:5E,-84.35816192626953,-78.32445526123047,-124.5400619506836,-23.10845947265625,3.414368152618408,0.46930885314941406,1482.9568679332733
D4:22:CD:00:05:5D,163.7165069580078,-70.12100982666016,-101.27774047851562,0.3172864317893982,0.4284548759460449,0.7135477066040039,1482.9868743419647
D4:22:CD:00:05:6B,165.36204528808594,-73.10205078125,99.03485870361328,-1.7042150497436523,3.687407970428467,0.5175466537475586,1482.9868743419647
D4:22:CD:00:49:AA,177.7316131591797,-79.12406158447266,103.5438003540039,-2.0104575157165527,2.965247631072998,0.6359748840332031,1482.9868743419647
D4:22:CD:00:05:6E,36.17306900024414,35.214111328125,134.20724487304688,-1.2620830535888672,-13.092731475830078,-5.922812461853027,1482.9868743419647
D4:22:CD:00:05:5E,-122.14779663085938,-74.17425537109375,-86.59757995605469,-16.229957580566406,-0.5941541194915771,4.323102951049805,1482.9868743419647
D4:22:CD:00:05:5D,168.19810485839844,-71.41407775878906,-105.6755599975586,-0.8457474708557129,1.3948936462402344,1.237569808959961,1483.016492843628
D4:22:CD:00:05:6B,-179.58895874023438,-73.91558074951172,89.7251968383789,-2.477005958557129,-0.6007963418960571,-1.9864487648010254,1483.016492843628
D4:22:CD:00:49:AA,176.13401794433594,-77.81048583984375,105.92815399169922,-1.3314855098724365,1.323350429534912,1.6527299880981445,1483.016492843628
D4:22:CD:00:05:6E,37.08140563964844,29.399200439453125,116.40743255615234,-4.147473335266113,-9.003602981567383,-10.744209289550781,1483.016492843628
D4:22:CD:00:05:5E,-144.978515625,-66.0256576538086,-63.575225830078125,-4.857351303100586,-2.137843132019043,1.4909677505493164,1483.016492843628
D4:22:CD:00:05:5D,173.40374755859375,-73.62957763671875,-112.44768524169922,-0.9401699304580688,0.7082506418228149,0.8943681716918945,1483.046481370926
D4:22:CD:00:05:6B,-172.3773651123047,-75.17330932617188,87.81501770019531,2.27115535736084,-5.227835655212402,-3.4510269165039062,1483.046481370926
D4:22:CD:00:49:AA,172.43490600585938,-77.38141632080078,109.87726593017578,-2.061096668243408,0.18964269757270813,0.02711200714111328,1483.046481370926
D4:22:CD:00:05:6E,35.0648193359375,19.401119232177734,99.95394897460938,-6.741098403930664,-1.865177869796753,-11.398689270019531,1483.046481370926
D4:22:CD:00:05:5E,-155.07786560058594,-58.217533111572266,-51.0126953125,-2.1071395874023438,-3.69925594329834,-5.828827857971191,1483.046481370926
D4:22:CD:00:05:5D,179.93264770507812,-76.06907653808594,-122.58457946777344,-0.6187707185745239,0.5016897916793823,-0.33907413482666016,1483.0820293426514
D4:22:CD:00:05:6B,-176.21075439453125,-76.73109436035156,88.79170227050781,1.1624956130981445,-5.989384651184082,-2.9692282676696777,1483.0820293426514
D4:22:CD:00:49:AA,167.99488830566406,-76.97441864013672,114.15579223632812,-1.4607353210449219,0.9885936975479126,-1.1136102676391602,1483.0820293426514
D4:22:CD:00:05:6E,31.186931610107422,6.771078586578369,84.32534790039062,-2.238553524017334,8.098814010620117,-12.021993637084961,1483.0820293426514
D4:22:CD:00:05:5E,-160.21755981445312,-52.30263900756836,-42.03292465209961,0.7927196025848389,-0.4988842010498047,-9.313308715820312,1483.0820293426514
D4:22:CD:00:05:5D,-173.63978576660156,-77.00141906738281,-131.67123413085938,-0.16251468658447266,-0.13043823838233948,-0.35759735107421875,1483.106906414032
D4:22:CD:00:05:6B,175.8505859375,-78.07838439941406,89.44847869873047,-2.647552013397217,-4.488807678222656,-1.8132295608520508,1483.106906414032
D4:22:CD:00:49:AA,164.10891723632812,-76.95830535888672,117.39606475830078,-0.06014443188905716,0.22538352012634277,-1.8383679389953613,1483.106906414032
D4:22:CD:00:05:6E,24.303775787353516,-4.909523963928223,67.89321899414062,2.4395480155944824,14.526750564575195,0.3201761245727539,1483.106906414032
D4:22:CD:00:05:5E,-162.7603302001953,-48.366973876953125,-34.855403900146484,-0.17687693238258362,0.2904219627380371,-10.166492462158203,1483.106906414032
D4:22:CD:00:05:5D,-168.7993927001953,-77.09178924560547,-138.82281494140625,1.386155366897583,-2.3084216117858887,-0.6813545227050781,1483.1371865272522
D4:22:CD:00:05:6B,171.9484100341797,-78.9342041015625,87.08134460449219,-3.4539475440979004,-1.3818349838256836,-1.2951993942260742,1483.1371865272522
D4:22:CD:00:49:AA,159.18228149414062,-76.9192886352539,122.08032989501953,-0.6343063116073608,0.444405198097229,-2.366262435913086,1483.1371865272522
D4:22:CD:00:05:6E,18.800888061523438,-9.736505508422852,51.6865119934082,30.39084243774414,-6.398072242736816,6.731573104858398,1483.1371865272522
D4:22:CD:00:05:5E,-166.6797332763672,-45.51438522338867,-28.41061019897461,-0.37218815088272095,-0.158085435628891,-7.083715438842773,1483.1371865272522
D4:22:CD:00:05:5D,-166.19100952148438,-76.28993225097656,-142.66360473632812,0.19421622157096863,-1.8564627170562744,-0.8483304977416992,1483.166666507721
D4:22:CD:00:05:6B,175.32106018066406,-79.52397918701172,79.8119125366211,-2.258798122406006,0.30158543586730957,-1.3581533432006836,1483.166666507721
D4:22:CD:00:49:AA,153.47743225097656,-76.4865493774414,127.71070098876953,-2.0700316429138184,0.5174694061279297,-2.1126198768615723,1483.166666507721
D4:22:CD:00:05:6E,34.9230842590332,-5.736972808837891,40.79814910888672,17.17135238647461,-19.381725311279297,-8.163824081420898,1483.166666507721
D4:22:CD:00:05:5E,-173.15928649902344,-43.610435485839844,-22.245939254760742,-0.3105056881904602,-0.747193455696106,-3.806399345397949,1483.166666507721
D4:22:CD:00:05:5D,-167.11627197265625,-74.59933471679688,-142.353515625,1.0058882236480713,-2.862405300140381,-0.615234375,1483.2268371582031
D4:22:CD:00:05:6B,-174.09120178222656,-79.7115707397461,66.33831024169922,-1.477046012878418,0.6717925071716309,-1.8823299407958984,1483.2268371582031
D4:22:CD:00:49:AA,148.37576293945312,-76.21488189697266,132.63735961914062,-3.003356456756592,-0.6962788105010986,-1.2597951889038086,1483.2268371582031
D4:22:CD:00:05:6E,50.945430755615234,1.4006246328353882,36.74291229248047,-14.097282409667969,4.905035018920898,-3.9148879051208496,1483.2268371582031
D4:22:CD:00:05:5E,178.6273956298828,-42.852333068847656,-15.70555591583252,1.9332642555236816,-0.889316201210022,-0.40646934509277344,1483.2268371582031
D4:22:CD:00:05:5D,-170.0019989013672,-72.30282592773438,-139.1291046142578,1.4722373485565186,-1.434079647064209,-0.6109848022460938,1483.2568428516388
D4:22:CD:00:05:6B,-159.4833221435547,-79.27410125732422,50.2493896484375,-1.658740520477295,1.3959405422210693,-1.8023042678833008,1483.2568428516388
D4:22:CD:00:49:AA,142.23883056640625,-76.45854187011719,138.98147583007812,-2.9009718894958496,-0.6215394735336304,-1.4077520370483398,1483.2568428516388
D4:22:CD:00:05:6E,50.50273132324219,5.857748031616211,35.8655891418457,-8.765329360961914,-2.239438056945801,-8.623041152954102,1483.2568428516388
D4:22:CD:00:05:5E,171.54127502441406,-43.54689407348633,-9.290335655212402,7.946717262268066,0.7221713066101074,-0.4425544738769531,1483.2568428516388
D4:22:CD:00:05:5D,-173.02487182617188,-69.82530212402344,-134.8358917236328,1.770028829574585,-0.7606284618377686,-0.24730873107910156,1483.287056684494
D4:22:CD:00:05:6B,-143.30052185058594,-78.66270446777344,35.62247848510742,-2.205580711364746,2.1980929374694824,-0.9917068481445312,1483.287056684494
D4:22:CD:00:49:AA,134.96542358398438,-76.44842529296875,146.25137329101562,-1.145831823348999,-0.005261494778096676,-2.141083240509033,1483.287056684494
D4:22:CD:00:05:6E,54.863189697265625,5.8671555519104,37.21326446533203,-3.910653591156006,-10.782571792602539,-11.388206481933594,1483.287056684494
D4:22:CD:00:05:5E,170.48947143554688,-45.80453109741211,-4.993416786193848,2.801462173461914,13.00291633605957,9.166118621826172,1483.287056684494
D4:22:CD:00:05:5D,-176.793212890625,-67.26453399658203,-130.11656188964844,0.6752630472183228,-1.8755662441253662,0.1800069808959961,1483.3169612884521
D4:22:CD:00:05:6B,-125.91792297363281,-77.5992431640625,17.675010681152344,5.533543586730957,2.39510440826416,-1.3098125457763672,1483.3169612884521
D4:22:CD:00:49:AA,128.14759826660156,-75.99761962890625,153.16470336914062,-0.790321946144104,0.004365431144833565,-4.47602653503418,1483.3169612884521
D4:22:CD:00:05:6E,68.68199920654297,-0.7289084792137146,40.54737091064453,-5.852438926696777,1.9217157363891602,-7.727890968322754,1483.3169612884521
D4:22:CD:00:05:5E,172.7949981689453,-45.955657958984375,-4.966083526611328,3.0344080924987793,-2.980381965637207,4.884426116943359,1483.3169612884521
D4:22:CD:00:05:5D,-179.71693420410156,-64.61557006835938,-125.70448303222656,0.09919057786464691,1.7488372325897217,-0.3392524719238281,1483.3469591140747
D4:22:CD:00:05:6B,-107.28153228759766,-75.46172332763672,-3.4091711044311523,-2.5988197326660156,7.511666297912598,1.425079345703125,1483.3469591140747
D4:22:CD:00:49:AA,125.68881225585938,-74.84532928466797,156.52731323242188,-3.165419101715088,0.8447442054748535,-2.666433811187744,1483.3469591140747
D4:22:CD:00:05:6E,74.16654968261719,-15.406962394714355,42.04192352294922,-0.7848083972930908,5.951814651489258,2.074141502380371,1483.3469591140747
D4:22:CD:00:05:5E,167.14480590820312,-46.63706970214844,-2.9223363399505615,9.012945175170898,-1.454566478729248,0.6396942138671875,1483.3469591140747
D4:22:CD:00:05:5D,177.97377014160156,-62.19015121459961,-122.49156188964844,-1.684274673461914,0.8389592170715332,1.6108112335205078,1483.376981973648
D4:22:CD:00:05:6B,-91.94209289550781,-71.56549835205078,-18.2152099609375,-2.557577610015869,2.9874377250671387,2.633151054382324,1483.376981973648
D4:22:CD:00:49:AA,126.8555908203125,-73.7170181274414,157.3075714111328,-3.1631479263305664,-0.6533169746398926,3.7548532485961914,1483.376981973648
D4:22:CD:00:05:6E,68.7271957397461,-37.81922912597656,43.35889434814453,14.451370239257812,12.6929931640625,10.289791107177734,1483.376981973648
D4:22:CD:00:05:5E,162.94976806640625,-48.907432556152344,-0.6451242566108704,12.214704513549805,3.0763697624206543,4.547428131103516,1483.376981973648
D4:22:CD:00:05:5D,176.02157592773438,-59.9797248840332,-119.41560363769531,-0.33460426330566406,0.7868564128875732,0.018798828125,1483.4071116447449
D4:22:CD:00:05:6B,-85.3542251586914,-65.64176940917969,-24.663915634155273,-6.191898345947266,6.410539627075195,7.139972686767578,1483.4071116447449
D4:22:CD:00:49:AA,126.20555877685547,-73.31060791015625,160.1269073486328,0.12205237150192261,0.6210074424743652,4.140854835510254,1483.4071116447449
D4:22:CD:00:05:6E,48.81291961669922,-58.891136169433594,55.14592361450195,15.57796859741211,13.522294998168945,54.025482177734375,1483.4071116447449
D4:22:CD:00:05:5E,160.850341796875,-50.50600814819336,1.2531837224960327,8.07109260559082,-1.0989160537719727,7.372976303100586,1483.4071116447449
D4:22:CD:00:05:5D,175.3875274658203,-58.76389694213867,-116.4014663696289,3.0259108543395996,0.9886455535888672,0.38137149810791016,1483.43714761734
D4:22:CD:00:05:6B,-83.11210632324219,-57.76372146606445,-25.50886344909668,-7.656130790710449,5.483628273010254,11.221912384033203,1483.43714761734
D4:22:CD:00:49:AA,126.9604721069336,-73.53840637207031,159.9002227783203,4.289536476135254,2.924515724182129,5.525921821594238,1483.43714761734
D4:22:CD:00:05:6E,33.254905700683594,-61.84744644165039,61.60206985473633,10.782861709594727,2.734647274017334,8.471502304077148,1483.43714761734
D4:22:CD:00:05:5E,160.86410522460938,-49.99797439575195,1.7028827667236328,8.031492233276367,-2.3343372344970703,9.4224853515625,1483.43714761734
D4:22:CD:00:05:5D,175.33787536621094,-58.9342041015625,-115.48674011230469,1.8210148811340332,0.8067348003387451,2.073807716369629,1483.46710896492
D4:22:CD:00:05:6B,-87.59063720703125,-46.414791107177734,-21.417627334594727,-4.928767204284668,5.784015655517578,15.365821838378906,1483.46710896492
D4:22:CD:00:49:AA,129.92689514160156,-73.60946655273438,156.52389526367188,-2.894723415374756,0.04763329029083252,7.267618179321289,1483.46710896492
D4:22:CD:00:05:6E,54.8076171875,-56.62578582763672,50.675785064697266,28.908538818359375,-0.1747416853904724,4.673677444458008,1483.46710896492
D4:22:CD:00:05:5E,166.38592529296875,-49.82876968383789,2.990025520324707,15.222660064697266,-3.1277637481689453,8.83172607421875,1483.46710896492
D4:22:CD:00:05:5D,175.37576293945312,-60.39848327636719,-114.92559814453125,1.0660808086395264,0.5735864639282227,1.189626693725586,1483.5267271995544
D4:22:CD:00:05:6B,-87.51835632324219,-33.692569732666016,-15.254280090332031,-1.987828254699707,6.871804237365723,15.638450622558594,1483.5267271995544
D4:22:CD:00:49:AA,135.48532104492188,-73.02708435058594,150.9862060546875,-3.6329383850097656,-0.665905237197876,5.2845048904418945,1483.5267271995544
D4:22:CD:00:05:6E,72.610107421875,-50.57613754272461,53.087623596191406,-4.268902778625488,9.708877563476562,4.570321083068848,1483.5267271995544
D4:22:CD:00:05:5E,177.134033203125,-48.48960494995117,1.864745855331421,9.603141784667969,1.7240769863128662,6.267400741577148,1483.5267271995544
D4:22:CD:00:05:5D,176.20382690429688,-62.709373474121094,-113.91334533691406,2.3613181114196777,-1.2722210884094238,-0.04888343811035156,1483.5567297935486
D4:22:CD:00:05:6B,-81.63880920410156,-20.936120986938477,-8.417399406433105,6.185529708862305,6.361230850219727,15.464136123657227,1483.5567297935486
D4:22:CD:00:49:AA,137.7294158935547,-73.15768432617188,148.75244140625,-0.6984248161315918,0.02416308969259262,0.5347118377685547,1483.5567297935486
D4:22:CD:00:05:6E,76.98221588134766,-48.68497085571289,59.98472213745117,2.355052947998047,8.85017204284668,-3.114464282989502,1483.5567297935486
D4:22:CD:00:05:5E,178.53070068359375,-44.772216796875,-1.5442440509796143,9.686994552612305,-2.8203554153442383,0.7893257141113281,1483.5567297935486
D4:22:CD:00:05:5D,177.63723754882812,-65.38037109375,-112.39960479736328,0.7910114526748657,0.44070911407470703,0.39206504821777344,1483.5868031978607
D4:22:CD:00:05:6B,-70.37239074707031,-9.372440338134766,-2.9009814262390137,9.13221549987793,6.115629196166992,10.448169708251953,1483.5868031978607
D4:22:CD:00:49:AA,139.368408203125,-73.37184143066406,147.82177734375,-2.2705163955688477,1.1659033298492432,0.4493064880371094,1483.5868031978607
D4:22:CD:00:05:6E,80.14346313476562,-49.244510650634766,67.1860122680664,-0.7867368459701538,5.681554794311523,-1.902876377105713,1483.5868031978607
D4:22:CD:00:05:5E,178.9518280029297,-44.05956268310547,-4.977540493011475,10.470962524414062,6.709878921508789,-2.516876697540283,1483.5868031978607
D4:22:CD:00:05:5D,177.90164184570312,-68.34767150878906,-110.08160400390625,0.8533393144607544,1.1738622188568115,0.2705812454223633,1483.61652135849
D4:22:CD:00:05:6B,-56.75695037841797,0.14446023106575012,0.102074533700943,6.266857147216797,1.5741069316864014,7.744745254516602,1483.61652135849
D4:22:CD:00:49:AA,140.90919494628906,-74.53228759765625,148.15090942382812,-4.60091495513916,1.6102313995361328,-0.6772098541259766,1483.61652135849
D4:22:CD:00:05:6E,81.63964080810547,-52.0321159362793,75.0446548461914,-1.8639588356018066,3.916592597961426,-2.578993320465088,1483.61652135849
D4:22:CD:00:05:5E,-175.8402099609375,-47.40216064453125,-9.79757022857666,7.170682907104492,6.192634582519531,-4.6194257736206055,1483.61652135849
D4:22:CD:00:05:5D,177.3544921875,-71.42364501953125,-107.39915466308594,-1.0069313049316406,0.5357180833816528,0.08838939666748047,1483.64652633667
D4:22:CD:00:05:6B,-42.190555572509766,7.514728546142578,0.21708382666110992,1.9192795753479004,-4.523050308227539,-0.6948480606079102,1483.64652633667
D4:22:CD:00:49:AA,143.89927673339844,-75.73393249511719,147.90821838378906,-2.8554019927978516,1.5951964855194092,-2.826272964477539,1483.64652633667
D4:22:CD:00:05:6E,82.29574584960938,-57.203399658203125,84.05892944335938,-3.8969292640686035,1.272465705871582,-1.2748136520385742,1483.64652633667
D4:22:CD:00:05:5E,-169.3566131591797,-53.65711975097656,-15.873610496520996,3.4636402130126953,1.7033734321594238,-6.458989143371582,1483.64652633667
D4:22:CD:00:05:5D,176.3622283935547,-74.15411376953125,-105.08453369140625,-2.3162589073181152,0.035376958549022675,-0.16799640655517578,1483.6914675235748
D4:22:CD:00:05:6B,-33.750892639160156,14.335166931152344,-2.5041286945343018,-0.09906721115112305,-7.848175048828125,-4.519660949707031,1483.6914675235748
D4:22:CD:00:49:AA,148.0002899169922,-76.59244537353516,146.99327087402344,-0.8187507390975952,1.3413879871368408,-3.596609115600586,1483.6914675235748
D4:22:CD:00:05:6E,79.94918823242188,-63.96599197387695,95.74742126464844,-3.1722941398620605,-1.8236072063446045,0.17832565307617188,1483.6914675235748
D4:22:CD:00:05:5E,-162.7105712890625,-61.86446762084961,-23.540517807006836,1.5832560062408447,-1.1590187549591064,-6.761330604553223,1483.6914675235748
D4:22:CD:00:05:5D,175.32766723632812,-76.33671569824219,-103.59466552734375,-0.8861731290817261,-0.7069674730300903,-0.5796585083007812,1483.7066059112549
D4:22:CD:00:05:6B,-29.69336700439453,21.55470085144043,-6.822973728179932,-1.654087781906128,-6.105198860168457,-9.797740936279297,1483.7066059112549
D4:22:CD:00:49:AA,150.62652587890625,-77.07537841796875,146.6025390625,-0.21224543452262878,1.1610465049743652,-4.410513877868652,1483.7066059112549
D4:22:CD:00:05:6E,72.94940948486328,-70.93708801269531,112.7660903930664,-3.7168760299682617,-3.152466297149658,-0.7670068740844727,1483.7066059112549
D4:22:CD:00:05:5E,-153.25494384765625,-71.22314453125,-35.63241958618164,-0.9969037771224976,-3.0984086990356445,-3.541623592376709,1483.7066059112549
D4:22:CD:00:05:5D,172.66722106933594,-77.72795104980469,-101.44359588623047,-0.6423871517181396,-1.0653727054595947,-0.7834291458129883,1483.7466022968292
D4:22:CD:00:05:6B,-25.118539810180664,28.896514892578125,-12.623083114624023,-3.2341580390930176,-7.100947380065918,-13.061981201171875,1483.7466022968292
D4:22:CD:00:49:AA,150.57644653320312,-76.94136810302734,147.3233642578125,-0.24501913785934448,0.5889562368392944,-3.2808022499084473,1483.7466022968292
D4:22:CD:00:05:6E,59.14060592651367,-76.55413055419922,137.7227020263672,-2.9412693977355957,-3.911255359649658,-1.5959405899047852,1483.7466022968292
D4:22:CD:00:05:5E,-133.5829315185547,-78.97547149658203,-61.80576705932617,-11.070259094238281,-2.9957327842712402,-1.8420906066894531,1483.7466022968292
D4:22:CD:00:05:5D,167.20657348632812,-77.8238525390625,-97.12206268310547,1.9248261451721191,-3.0093021392822266,-1.1425905227661133,1483.7667388916016
D4:22:CD:00:05:6B,-17.70032501220703,36.06845474243164,-22.460124969482422,0.8792294263839722,2.8454737663269043,-12.932893753051758,1483.7667388916016
D4:22:CD:00:49:AA,147.91140747070312,-77.05486297607422,149.38262939453125,-1.3146007061004639,0.061780430376529694,-1.5261602401733398,1483.7667388916016
D4:22:CD:00:05:6E,35.831504821777344,-79.51428985595703,172.0509796142578,-0.04331256449222565,-7.471484184265137,-1.2867908477783203,1483.7667388916016
D4:22:CD:00:05:5E,-98.20708465576172,-81.5290298461914,-108.33326721191406,-23.42117691040039,-3.4362945556640625,0.5146455764770508,1483.7667388916016
D4:22:CD:00:05:5D,160.51800537109375,-76.30592346191406,-90.7178726196289,1.023606777191162,-2.047121524810791,-0.888737678527832,1483.8273377418518
D4:22:CD:00:05:6B,-20.879592895507812,42.552947998046875,-39.762611389160156,4.997701644897461,7.853516578674316,-15.480707168579102,1483.8273377418518
D4:22:CD:00:49:AA,143.6195526123047,-77.48929595947266,152.0971221923828,-0.9205342531204224,-0.46103745698928833,-1.8479933738708496,1483.8273377418518
D4:22:CD:00:05:6E,6.983154296875,-79.53307342529297,-151.1038055419922,1.2072043418884277,-7.219191551208496,-2.2360358238220215,1483.8273377418518
D4:22:CD:00:05:5E,-95.65853118896484,-79.0575942993164,-123.62743377685547,-22.95160675048828,5.577917098999023,-6.335716247558594,1483.8273377418518
D4:22:CD:00:05:5D,154.43629455566406,-73.78562927246094,-84.42076873779297,-0.43775391578674316,1.139394760131836,-0.14588260650634766,1483.8573400974274
D4:22:CD:00:05:6B,-38.99842071533203,42.51750564575195,-65.75200653076172,1.8621282577514648,-2.7255921363830566,-23.35538101196289,1483.8573400974274
D4:22:CD:00:49:AA,136.97048950195312,-78.18235778808594,155.94961547851562,-1.46671724319458,-0.6926701068878174,-1.6659355163574219,1483.8573400974274
D4:22:CD:00:05:6E,-15.918259620666504,-77.55133819580078,-122.2535400390625,2.481459617614746,-6.879965782165527,-1.439732551574707,1483.8573400974274
D4:22:CD:00:05:5E,-116.56641387939453,-76.24964904785156,-109.45558166503906,-24.086124420166016,-6.030657768249512,-2.7954726219177246,1483.8573400974274
D4:22:CD:00:05:5D,149.0068817138672,-71.72895050048828,-78.32823944091797,-0.6688327789306641,2.731131076812744,1.4890851974487305,1483.8864161968231
D4:22:CD:00:05:6B,-54.3027229309082,32.16453170776367,-88.5732192993164,-2.6524877548217773,-21.949485778808594,-25.506046295166016,1483.8864161968231
D4:22:CD:00:49:AA,130.28855895996094,-79.03667449951172,159.45901489257812,-5.3075103759765625,-1.12900972366333,0.36632728576660156,1483.8864161968231
D4:22:CD:00:05:6E,-31.51773452758789,-74.6045150756836,-102.58442687988281,3.932215690612793,-8.305973052978516,0.07473278045654297,1483.8864161968231
D4:22:CD:00:05:5E,-133.2288818359375,-75.54658508300781,-92.40371704101562,6.543765068054199,-11.787282943725586,1.2869062423706055,1483.8864161968231
