Device,EulerX,EulerY,EulerZ,FreeAccX,FreeAccY,FreeAccZ,Timestamp
D4:22:CD:00:05:5D,176.10047912597656,-49.941368103027344,-117.69161987304688,-0.7660408020019531,2.587719440460205,3.0784120559692383,1493.8711671829224
D4:22:CD:00:05:6B,-48.15634536743164,-4.553799629211426,-70.15349578857422,8.02811050415039,2.371178150177002,22.56360626220703,1493.8711671829224
D4:22:CD:00:49:AA,138.98275756835938,-72.93071746826172,129.9121551513672,-3.6870999336242676,0.6032922267913818,9.066251754760742,1493.8711671829224
D4:22:CD:00:05:6E,74.62954711914062,-30.499000549316406,56.43421173095703,0.37221866846084595,13.232980728149414,6.520307540893555,1493.8711671829224
D4:22:CD:00:05:5E,-165.0625762939453,-49.38064193725586,-16.156078338623047,4.828411102294922,0.026241984218358994,6.953407287597656,1493.8711671829224
D4:22:CD:00:05:6B,-31.20209312438965,12.738669395446777,-62.544857025146484,2.460655689239502,-5.863866806030273,12.30282211303711,1493.8801710605621
D4:22:CD:00:49:AA,143.59742736816406,-72.34334564208984,125.84601593017578,-4.764409065246582,-0.0660284012556076,9.338361740112305,1493.8801710605621
D4:22:CD:00:05:6E,82.09986877441406,-36.98326873779297,58.39542007446289,-0.5801118612289429,5.039036750793457,9.786128997802734,1493.8801710605621
D4:22:CD:00:05:5E,-161.23602294921875,-49.71196746826172,-17.82422637939453,-0.8816730976104736,1.6155014038085938,-2.7971925735473633,1493.8801710605621
D4:22:CD:00:05:5D,133.5236053466797,-66.0558090209961,-142.15240478515625,4.501458168029785,-8.675973892211914,1.250258445739746,1493.8841743469238
D4:22:CD:00:49:AA,148.87791442871094,-73.3314208984375,121.83639526367188,-3.709062099456787,4.254744529724121,6.166529655456543,1493.8841743469238
D4:22:CD:00:05:6E,90.9349594116211,-45.191165924072266,60.186275482177734,2.2413907051086426,-2.528773307800293,10.896673202514648,1493.8841743469238
D4:22:CD:00:05:5E,-159.59609985351562,-54.42644500732422,-19.52189064025879,1.4099080562591553,2.566065788269043,-10.378686904907227,1493.8841743469238
D4:22:CD:00:05:5D,159.27537536621094,-60.256160736083984,-165.2106170654297,-0.6433632373809814,-7.436653137207031,2.637904167175293,1493.8885881900787
D4:22:CD:00:05:6B,-68.17981719970703,-12.09183406829834,-65.28966522216797,0.2789798974990845,4.160567283630371,15.604555130004883,1493.8885881900787
D4:22:CD:00:05:5D,-172.36268615722656,-46.62744140625,173.9167022705078,0.4448678493499756,2.3044261932373047,0.7662639617919922,1493.9365406036377
D4:22:CD:00:05:6B,-49.01119613647461,17.832448959350586,-59.965091705322266,6.508373260498047,-9.278129577636719,18.719032287597656,1493.9365406036377
D4:22:CD:00:49:AA,120.52261352539062,-71.12911987304688,164.69725036621094,-1.6349802017211914,-1.368065595626831,13.568168640136719,1493.9365406036377
D4:22:CD:00:05:6E,-73.024169921875,-67.71167755126953,-151.8565216064453,-4.045001983642578,-0.8565523624420166,14.874639511108398,1493.9365406036377
D4:22:CD:00:05:5E,162.458740234375,-72.29499816894531,6.188567161560059,-1.52797269821167,5.468358039855957,4.292118072509766,1493.9365406036377
D4:22:CD:00:05:5D,-170.4867401123047,-45.05829620361328,174.09169006347656,1.0766141414642334,3.693991184234619,1.9127082824707031,1493.9665384292603
D4:22:CD:00:05:6B,-29.98967742919922,25.703855514526367,-51.870731353759766,8.17245864868164,-10.635049819946289,11.389108657836914,1493.9665384292603
D4:22:CD:00:49:AA,118.14356994628906,-71.93248748779297,166.5518341064453,-4.82265567779541,-1.9519634246826172,3.885666847229004,1493.9665384292603
D4:22:CD:00:05:6E,-84.13468170166016,-71.18187713623047,-139.29139709472656,-10.969873428344727,-4.553508758544922,12.566001892089844,1493.9665384292603
D4:22:CD:00:05:5E,-176.93023681640625,-71.72783660888672,-13.130705833435059,-2.6129088401794434,3.783721446990967,-0.30996227264404297,1493.9665384292603
D4:22:CD:00:05:5D,-169.8389892578125,-45.26593780517578,173.44190979003906,-0.21417412161827087,5.009044647216797,2.5192718505859375,1493.9965896606445
D4:22:CD:00:05:6B,-10.978727340698242,31.399551391601562,-44.29496383666992,6.589600563049316,-9.922782897949219,6.702053070068359,1493.9965896606445
D4:22:CD:00:49:AA,132.9720458984375,-75.29473114013672,152.1319122314453,-3.5731401443481445,-0.1484040915966034,8.037569046020508,1493.9965896606445
D4:22:CD:00:05:6E,-102.73594665527344,-77.53516387939453,-116.38798522949219,-13.982198715209961,-3.676604747772217,9.506425857543945,1493.9965896606445
D4:22:CD:00:05:5E,-159.64834594726562,-68.96675872802734,-33.20368957519531,-0.970754861831665,1.133385419845581,-6.3175764083862305,1493.9965896606445
D4:22:CD:00:05:5D,-169.63095092773438,-47.385353088378906,172.66180419921875,0.5529830455780029,1.7271146774291992,2.8465023040771484,1494.0265636444092
D4:22:CD:00:05:6B,1.277249813079834,36.705589294433594,-39.4171028137207,4.841259956359863,-9.998847961425781,3.290477752685547,1494.0265636444092
D4:22:CD:00:49:AA,153.75375366210938,-77.37812805175781,133.05860900878906,-3.9458208084106445,0.9252282381057739,9.394905090332031,1494.0265636444092
D4:22:CD:00:05:6E,-131.8396453857422,-76.90351104736328,-80.24203491210938,-10.829776763916016,-8.593925476074219,6.119341850280762,1494.0265636444092
D4:22:CD:00:05:5E,-149.59619140625,-72.98248291015625,-48.09030532836914,2.43631649017334,1.7314660549163818,-8.262208938598633,1494.0265636444092
D4:22:CD:00:05:5D,-168.2346649169922,-51.588233947753906,171.49136352539062,0.5771971940994263,3.179605007171631,4.503864288330078,1494.0565786361694
D4:22:CD:00:05:6B,7.5360107421875,41.358848571777344,-36.45051574707031,1.1736860275268555,-10.957693099975586,1.0085554122924805,1494.0565786361694
D4:22:CD:00:49:AA,172.98544311523438,-78.74061584472656,117.16116333007812,-3.083256721496582,1.932769536972046,6.2577056884765625,1494.0565786361694
D4:22:CD:00:05:6E,-142.49560546875,-73.18165588378906,-60.72624206542969,-6.773167610168457,-9.687610626220703,3.599909782409668,1494.0565786361694
D4:22:CD:00:05:5E,-103.10941314697266,-79.87997436523438,-94.9710464477539,3.5039238929748535,3.0325255393981934,-6.186077117919922,1494.0565786361694
D4:22:CD:00:05:5D,-166.9451446533203,-57.56839370727539,170.29249572753906,-5.831320762634277,7.539039611816406,8.481487274169922,1494.0876429080963
D4:22:CD:00:05:6B,12.815666198730469,43.860843658447266,-35.08944320678711,-2.1642022132873535,-6.737720489501953,-2.038200855255127,1494.0876429080963
D4:22:CD:00:49:AA,-166.9951629638672,-80.00251007080078,101.5591049194336,-3.0004072189331055,0.46934235095977783,2.501659393310547,1494.0876429080963
D4:22:CD:00:05:6E,-141.16876220703125,-69.4936752319336,-52.06370162963867,-2.9806318283081055,-9.355510711669922,0.5785350799560547,1494.0876429080963
D4:22:CD:00:05:5E,-36.26832580566406,-73.92872619628906,-160.4048614501953,-1.7895400524139404,3.3701934814453125,-5.289373397827148,1494.0876429080963
D4:22:CD:00:05:5D,-167.23681640625,-64.68387603759766,168.49380493164062,-13.312650680541992,3.2909231185913086,4.141139030456543,1494.11669754982
D4:22:CD:00:05:6B,18.290115356445312,44.89210510253906,-35.02581024169922,-2.9945902824401855,-4.215785026550293,-4.219209671020508,1494.11669754982
D4:22:CD:00:49:AA,-144.91802978515625,-79.6719741821289,84.75210571289062,-0.8925164937973022,-0.7123845815658569,-3.7732596397399902,1494.11669754982
D4:22:CD:00:05:6E,-135.57986450195312,-67.06387329101562,-47.02781677246094,-1.4517920017242432,-8.438493728637695,-3.108856201171875,1494.11669754982
D4:22:CD:00:05:5E,-16.959381103515625,-62.114013671875,178.96522521972656,-7.618906021118164,1.8587582111358643,-6.66310977935791,1494.11669754982
D4:22:CD:00:05:5D,-174.3634033203125,-70.88562774658203,168.67227172851562,-0.21699687838554382,-3.8003921508789062,-6.431879997253418,1494.1771454811096
D4:22:CD:00:05:6B,25.93279457092285,45.68930435180664,-37.185604095458984,-4.490755081176758,-0.059461116790771484,-6.280158042907715,1494.1771454811096
D4:22:CD:00:49:AA,-132.92129516601562,-77.84391021728516,77.24250030517578,1.0223946571350098,1.5507638454437256,-6.438633918762207,1494.1771454811096
D4:22:CD:00:05:6E,-131.4899444580078,-65.82337951660156,-42.503265380859375,0.22088024020195007,-7.976619720458984,-7.3016357421875,1494.1771454811096
D4:22:CD:00:05:5E,-13.413163185119629,-51.77898025512695,169.3901824951172,-13.467737197875977,5.922779083251953,-6.835738182067871,1494.1771454811096
D4:22:CD:00:05:5D,-178.68934631347656,-74.9794692993164,175.06675720214844,2.4355835914611816,-1.9677340984344482,-5.675323486328125,1494.206164598465
D4:22:CD:00:05:6B,32.984954833984375,46.04791259765625,-41.56962966918945,-3.3775906562805176,2.4665355682373047,-7.659839630126953,1494.206164598465
D4:22:CD:00:49:AA,-127.24895477294922,-77.04878234863281,72.82421875,2.825291156768799,2.5890698432922363,-9.375284194946289,1494.206164598465
D4:22:CD:00:05:6E,-131.27931213378906,-65.895751953125,-36.95896530151367,0.35727453231811523,-6.387336730957031,-10.330278396606445,1494.206164598465
D4:22:CD:00:05:5E,-19.05516815185547,-44.64594268798828,165.10845947265625,-20.752758026123047,3.4301810264587402,-14.501659393310547,1494.206164598465
D4:22:CD:00:05:5D,174.18833923339844,-78.81722259521484,-176.42236328125,-2.9680309295654297,-4.341337203979492,-5.698315620422363,1494.23676943779
D4:22:CD:00:05:6B,35.48393249511719,45.929229736328125,-48.30918502807617,0.5272238254547119,3.094761371612549,-7.668379783630371,1494.23676943779
D4:22:CD:00:49:AA,-118.87698364257812,-77.44086456298828,65.90257263183594,1.0981862545013428,-0.5034275054931641,-10.367521286010742,1494.23676943779
D4:22:CD:00:05:6E,-135.5320587158203,-66.2984390258789,-29.938276290893555,0.40536338090896606,-6.67318058013916,-9.926542282104492,1494.23676943779
D4:22:CD:00:05:5E,-30.090883255004883,-43.46308517456055,164.7400360107422,-11.048280715942383,10.864376068115234,-18.494892120361328,1494.23676943779
D4:22:CD:00:05:5D,165.66891479492188,-81.8887939453125,-167.85879516601562,6.114411354064941,-5.301112174987793,-11.424306869506836,1494.2668437957764
D4:22:CD:00:05:6B,29.94037628173828,44.5615119934082,-58.58403396606445,3.9746012687683105,6.478588104248047,-8.42869758605957,1494.2668437957764
D4:22:CD:00:49:AA,-106.94194793701172,-78.51341247558594,56.48966598510742,-0.2171671986579895,-0.7079198360443115,-9.650199890136719,1494.2668437957764
D4:22:CD:00:05:6E,-144.368896484375,-66.39859008789062,-21.990259170532227,1.0892317295074463,-6.158819198608398,-10.018253326416016,1494.2668437957764
D4:22:CD:00:05:5E,-31.085853576660156,-46.23407745361328,165.09034729003906,-11.467077255249023,11.375988006591797,-17.86569595336914,1494.2668437957764
D4:22:CD:00:05:5D,160.5332794189453,-80.29586791992188,-161.04513549804688,12.294475555419922,-0.6574671268463135,-6.319657325744629,1494.296854019165
D4:22:CD:00:05:6B,19.9171085357666,40.88322448730469,-74.75597381591797,4.039838790893555,0.594933032989502,-10.502933502197266,1494.296854019165
D4:22:CD:00:49:AA,-99.13834381103516,-78.93553924560547,49.11844253540039,0.5086568593978882,-0.25686508417129517,-7.868242263793945,1494.296854019165
D4:22:CD:00:05:6E,-154.57533264160156,-66.1943359375,-15.183171272277832,2.466708183288574,-4.043018341064453,-9.341287612915039,1494.296854019165
D4:22:CD:00:05:5E,-39.49950408935547,-54.21863555908203,173.65228271484375,-19.32238006591797,-1.4395174980163574,-16.337356567382812,1494.296854019165
D4:22:CD:00:05:5D,159.3766326904297,-76.66905212402344,-157.8959197998047,-1.277906894683838,2.1345653533935547,-2.9723258018493652,1494.3266537189484
D4:22:CD:00:05:6B,8.451329231262207,32.57979202270508,-93.10273742675781,-0.9991674423217773,-15.40203857421875,-18.247203826904297,1494.3266537189484
D4:22:CD:00:49:AA,-92.50914764404297,-79.140869140625,42.34629821777344,0.5060569047927856,-2.1532254219055176,-5.958538055419922,1494.3266537189484
D4:22:CD:00:05:6E,-161.46292114257812,-66.22718811035156,-11.141990661621094,4.115511894226074,-3.7870869636535645,-8.483268737792969,1494.3266537189484
D4:22:CD:00:05:5E,-65.30989074707031,-63.86235809326172,-165.0673065185547,-12.950736999511719,4.160898208618164,3.4021224975585938,1494.3266537189484
D4:22:CD:00:05:5D,156.126220703125,-73.01583099365234,-152.98365783691406,-5.184684753417969,0.5774228572845459,2.95949649810791,1494.356404542923
D4:22:CD:00:05:6B,-1.6929539442062378,20.327390670776367,-108.09549713134766,-4.754145622253418,-27.470325469970703,-29.880428314208984,1494.356404542923
D4:22:CD:00:49:AA,-85.29981231689453,-79.19342041015625,35.470481872558594,-2.0559420585632324,-0.07578004896640778,1.4439620971679688,1494.356404542923
D4:22:CD:00:05:6E,-162.64334106445312,-66.86653900146484,-11.317615509033203,5.096175193786621,-3.8076910972595215,-5.778264999389648,1494.356404542923
D4:22:CD:00:05:5E,-88.61474609375,-67.49365997314453,-140.76722717285156,12.73630142211914,-21.834026336669922,8.843027114868164,1494.356404542923
D4:22:CD:00:05:5D,152.66261291503906,-69.17105102539062,-147.41375732421875,-4.710382461547852,-2.7875685691833496,0.4575977325439453,1494.3867666721344
D4:22:CD:00:05:6B,-14.839138984680176,18.57208251953125,-104.97181701660156,6.952005386352539,15.210664749145508,-7.354331970214844,1494.3867666721344
D4:22:CD:00:49:AA,-83.22381591796875,-78.6102294921875,33.77408981323242,0.9903581142425537,-1.1848671436309814,2.0316457748413086,1494.3867666721344
D4:22:CD:00:05:6E,-156.65084838867188,-67.49601745605469,-16.041601181030273,5.9668378829956055,-3.6963367462158203,1.1436433792114258,1494.3867666721344
D4:22:CD:00:05:5E,-94.3997802734375,-70.79705810546875,-128.9226531982422,-8.042449951171875,-18.427154541015625,1.813650131225586,1494.3867666721344
D4:22:CD:00:05:5D,150.13711547851562,-66.21037292480469,-141.7167205810547,0.5565695762634277,1.8516223430633545,8.259586334228516,1494.4163358211517
D4:22:CD:00:05:6B,-18.587852478027344,23.407955169677734,-95.19441223144531,-10.108234405517578,-9.054740905761719,-2.80615234375,1494.4163358211517
D4:22:CD:00:49:AA,-84.2301254272461,-79.2466049194336,34.61662673950195,-0.7548425197601318,-0.12124302983283997,2.374117851257324,1494.4163358211517
D4:22:CD:00:05:6E,-147.33135986328125,-65.7042465209961,-21.43245506286621,10.868431091308594,-9.261272430419922,2.650954246520996,1494.4163358211517
D4:22:CD:00:05:5E,-102.56108856201172,-73.21673583984375,-118.85780334472656,6.552457809448242,10.033906936645508,6.3387298583984375,1494.4163358211517
D4:22:CD:00:05:5D,144.9847869873047,-64.66059875488281,-136.11282348632812,-1.6495609283447266,3.2671937942504883,6.5758209228515625,1494.476369857788
D4:22:CD:00:05:6B,-11.537705421447754,27.705381393432617,-81.21481323242188,-3.3981270790100098,-9.330842971801758,-12.155111312866211,1494.476369857788
D4:22:CD:00:49:AA,-82.54640197753906,-80.26031494140625,32.006553649902344,-3.555579662322998,-3.0015578269958496,9.675407409667969,1494.476369857788
D4:22:CD:00:05:6E,-151.75921630859375,-63.26124572753906,-20.049945831298828,17.01850128173828,-16.968788146972656,3.970728874206543,1494.476369857788
D4:22:CD:00:05:5E,-112.2525634765625,-74.61103057861328,-109.40223693847656,-3.8169755935668945,-13.173547744750977,13.765880584716797,1494.476369857788
D4:22:CD:00:05:5D,139.07720947265625,-63.929630279541016,-130.99807739257812,-0.9305438995361328,-1.0150609016418457,3.3706226348876953,1494.506548166275
D4:22:CD:00:05:6B,-10.22598934173584,28.01786994934082,-62.54603576660156,-1.8649044036865234,-9.452116012573242,-7.821340560913086,1494.506548166275
D4:22:CD:00:49:AA,-86.18122100830078,-81.14889526367188,35.93394088745117,3.691514015197754,0.7033096551895142,2.6731138229370117,1494.506548166275
D4:22:CD:00:05:6E,-175.15052795410156,-61.96864700317383,-9.6365327835083,9.259963989257812,0.3918670415878296,3.7302703857421875,1494.506548166275
D4:22:CD:00:05:5E,-117.03675079345703,-76.66898345947266,-102.51022338867188,-2.187155246734619,4.156250953674316,1.0124788284301758,1494.506548166275
D4:22:CD:00:05:5D,130.13262939453125,-64.18631744384766,-126.38885498046875,-3.4352893829345703,-5.734496116638184,4.608735084533691,1494.5372488498688
D4:22:CD:00:05:6B,-8.60871696472168,24.105316162109375,-46.55752182006836,-7.814275741577148,-3.537747859954834,-1.827479362487793,1494.5372488498688
D4:22:CD:00:49:AA,-95.99113464355469,-81.270263671875,44.176822662353516,13.282432556152344,4.538043022155762,-0.3295164108276367,1494.5372488498688
D4:22:CD:00:05:6E,164.19271850585938,-59.92163848876953,3.218061923980713,7.16581916809082,11.24203109741211,1.0985307693481445,1494.5372488498688
D4:22:CD:00:05:5E,-122.19425964355469,-78.19650268554688,-97.191162109375,-4.783391952514648,-1.7081587314605713,-1.5727882385253906,1494.5372488498688
D4:22:CD:00:05:5D,123.40242004394531,-63.382755279541016,-127.2479248046875,1.238910436630249,-12.711557388305664,4.938779830932617,1494.5666670799255
D4:22:CD:00:05:6B,-5.809447765350342,17.21510887145996,-33.47694396972656,-5.8023834228515625,7.655827522277832,-4.132228851318359,1494.5666670799255
D4:22:CD:00:49:AA,-111.49886322021484,-80.80514526367188,54.60765838623047,12.844715118408203,0.7874089479446411,3.7379627227783203,1494.5666670799255
D4:22:CD:00:05:6E,152.13763427734375,-57.58820724487305,12.674386978149414,5.517244338989258,3.320413589477539,2.025383949279785,1494.5666670799255
D4:22:CD:00:05:5E,-127.10016632080078,-78.60968017578125,-93.60914611816406,-5.154448509216309,-2.2317757606506348,-0.9174690246582031,1494.5666670799255
D4:22:CD:00:05:5D,126.13444519042969,-60.591976165771484,-136.37832641601562,17.73983383178711,-11.292436599731445,5.0953826904296875,1494.5966670513153
D4:22:CD:00:05:6B,-9.700557708740234,8.13512134552002,-20.396987915039062,-5.1223859786987305,11.788909912109375,-4.949058532714844,1494.5966670513153
D4:22:CD:00:49:AA,-122.47612762451172,-80.24248504638672,60.77968215942383,1.8904368877410889,-2.7222418785095215,2.65866756439209,1494.5966670513153
D4:22:CD:00:05:6E,140.786865234375,-56.09763717651367,19.22994613647461,2.5054421424865723,5.337924003601074,0.6265468597412109,1494.5966670513153
D4:22:CD:00:05:5E,-131.66864013671875,-78.45127868652344,-91.62026977539062,-2.423863410949707,-2.203481674194336,-0.08016490936279297,1494.5966670513153
D4:22:CD:00:05:5D,136.552001953125,-55.10760498046875,-150.3474578857422,13.677389144897461,-6.63880729675293,3.7422637939453125,1494.6261727809906
D4:22:CD:00:05:6B,-26.214332580566406,-1.7645562887191772,-7.128861904144287,-3.4479689598083496,16.090518951416016,-13.675260543823242,1494.6261727809906
D4:22:CD:00:49:AA,-123.6977767944336,-80.79478454589844,60.73392105102539,-0.583061933517456,-1.3034539222717285,0.840789794921875,1494.6261727809906
D4:22:CD:00:05:6E,135.42190551757812,-55.0649299621582,23.5980167388916,0.12198847532272339,9.591304779052734,-1.5872421264648438,1494.6261727809906
D4:22:CD:00:05:5E,-130.30023193359375,-79.81024169921875,-92.88605499267578,-1.9056732654571533,-2.810187816619873,-0.7415733337402344,1494.6261727809906
D4:22:CD:00:05:5D,142.9673309326172,-48.0413818359375,-163.8911895751953,5.418964385986328,-4.573146820068359,-3.0816874504089355,1494.6570551395416
D4:22:CD:00:05:6B,-45.4438362121582,-9.983269691467285,5.222629070281982,4.039809226989746,-5.185991287231445,21.802135467529297,1494.6570551395416
D4:22:CD:00:49:AA,-120.49024963378906,-81.41596984863281,57.50373840332031,3.478325843811035,1.92948579788208,2.125764846801758,1494.6570551395416
D4:22:CD:00:05:6E,133.90406799316406,-54.105777740478516,26.877544403076172,-0.14952167868614197,4.629019737243652,-0.2419137954711914,1494.6570551395416
D4:22:CD:00:05:5E,-131.20298767089844,-80.28852081298828,-91.55751037597656,-2.1776466369628906,-3.1071114540100098,-1.737380027770996,1494.6570551395416
D4:22:CD:00:05:5D,148.21376037597656,-40.09264373779297,-174.1805877685547,-0.08406724035739899,-1.0037641525268555,-6.47074031829834,1494.6870512962341
D4:22:CD:00:05:6B,-48.55220031738281,-15.067595481872559,13.555047988891602,-2.0332798957824707,17.43423843383789,-0.8127985000610352,1494.6870512962341
D4:22:CD:00:49:AA,-114.94756317138672,-82.51879119873047,51.54444122314453,5.339385032653809,1.6481382846832275,-3.9684572219848633,1494.6870512962341
D4:22:CD:00:05:6E,131.7758026123047,-53.0589714050293,30.330684661865234,1.8586771488189697,3.1648573875427246,-2.740792751312256,1494.6870512962341
D4:22:CD:00:05:5E,-134.49554443359375,-79.38150024414062,-87.50198364257812,-1.520021677017212,-2.3216657638549805,-1.9898362159729004,1494.6870512962341
D4:22:CD:00:05:5D,153.94871520996094,-32.751609802246094,178.7218475341797,-1.1953120231628418,-0.23492327332496643,-9.99981689453125,1494.716576576233
D4:22:CD:00:05:6B,-56.11817169189453,-20.146093368530273,19.735309600830078,-4.441167831420898,9.099555969238281,-2.5956621170043945,1494.716576576233
D4:22:CD:00:49:AA,-113.4666519165039,-83.34693145751953,48.44866180419922,4.565345764160156,0.8467063903808594,-7.500741958618164,1494.716576576233
D4:22:CD:00:05:6E,129.41525268554688,-51.844905853271484,35.06582260131836,2.186777114868164,2.41324520111084,-5.498815536499023,1494.716576576233
D4:22:CD:00:05:5E,-140.6055145263672,-76.37678527832031,-81.12359619140625,-2.4207777976989746,-2.231668472290039,-2.3959298133850098,1494.716576576233
D4:22:CD:00:05:5D,161.56118774414062,-27.027332305908203,173.53036499023438,-0.02813331037759781,0.030938230454921722,-10.48324203491211,1494.7469594478607
D4:22:CD:00:05:6B,-59.556209564208984,-27.216585159301758,24.940509796142578,-1.9433815479278564,4.356069564819336,-4.981500625610352,1494.7469594478607
D4:22:CD:00:49:AA,-116.5140151977539,-83.21163940429688,49.65100860595703,1.0989079475402832,-0.35943418741226196,-6.721864700317383,1494.7469594478607
D4:22:CD:00:05:6E,127.7606430053711,-50.4346923828125,40.86250305175781,2.3666229248046875,1.402634620666504,-6.763121604919434,1494.7469594478607
D4:22:CD:00:05:5E,-145.5997772216797,-72.4683609008789,-75.29354858398438,-2.7032437324523926,-3.2348155975341797,-2.5191049575805664,1494.7469594478607
D4:22:CD:00:05:5D,169.10293579101562,-23.443195343017578,168.89483642578125,-1.4955081939697266,5.791386604309082,-9.384998321533203,1494.8071956634521
D4:22:CD:00:05:6B,-60.96129608154297,-39.61127853393555,30.576555252075195,4.932653427124023,5.799716949462891,-12.044303894042969,1494.8071956634521
D4:22:CD:00:49:AA,-116.68647766113281,-82.97188568115234,48.503334045410156,0.011894017457962036,0.10005903244018555,-5.935569763183594,1494.8071956634521
D4:22:CD:00:05:6E,126.2775650024414,-48.897926330566406,47.74809646606445,2.929941177368164,-1.4532599449157715,-4.658430099487305,1494.8071956634521
D4:22:CD:00:05:5E,-149.7707977294922,-67.62809753417969,-70.68658447265625,-4.320461273193359,-0.9260376691818237,-1.6487407684326172,1494.8071956634521
D4:22:CD:00:05:5D,170.89498901367188,-23.12261962890625,164.7366943359375,-0.3549320697784424,9.774858474731445,-5.624510765075684,1494.8372266292572
D4:22:CD:00:05:6B,-57.79058074951172,-58.49534606933594,34.655643463134766,8.379644393920898,16.686187744140625,13.40670394897461,1494.8372266292572
D4:22:CD:00:49:AA,-110.4598617553711,-82.72161102294922,41.06105422973633,3.2558627128601074,0.9373023509979248,-4.7095136642456055,1494.8372266292572
D4:22:CD:00:05:6E,121.22883605957031,-46.45097732543945,56.125213623046875,4.097916603088379,-5.772710800170898,1.9103641510009766,1494.8372266292572
D4:22:CD:00:05:5E,-152.27471923828125,-62.935604095458984,-68.52455139160156,-3.7891950607299805,-2.484312057495117,0.45623111724853516,1494.8372266292572
D4:22:CD:00:05:5D,166.00503540039062,-22.145151138305664,162.44512939453125,-5.03873348236084,11.811738967895508,2.210108757019043,1494.867305278778
D4:22:CD:00:05:6B,-42.68886184692383,-75.4735336303711,23.740478515625,6.380794525146484,13.745244979858398,31.930179595947266,1494.867305278778
D4:22:CD:00:49:AA,-102.14313507080078,-82.5815658569336,30.807437896728516,2.7512307167053223,-0.4181455373764038,-2.4508538246154785,1494.867305278778
D4:22:CD:00:05:6E,111.5911636352539,-41.87513732910156,66.2850570678711,8.413692474365234,-4.43171501159668,10.595407485961914,1494.867305278778
D4:22:CD:00:05:5E,-153.79441833496094,-59.625633239746094,-67.4219741821289,-2.995356559753418,-0.9165949821472168,1.581782341003418,1494.867305278778
D4:22:CD:00:05:5D,166.79774475097656,-20.692678451538086,163.1317138671875,-18.84726333618164,10.479198455810547,-6.255885124206543,1494.8965849876404
D4:22:CD:00:05:6B,-29.879032135009766,-73.6642837524414,13.62500286102295,16.048545837402344,13.553682327270508,0.18302631378173828,1494.8965849876404
D4:22:CD:00:49:AA,-98.58131408691406,-82.70633697509766,25.977731704711914,-3.9564242362976074,-0.22976595163345337,2.8861160278320312,1494.8965849876404
D4:22:CD:00:05:6E,102.13523864746094,-33.529457092285156,77.42715454101562,15.428924560546875,6.193102836608887,10.788766860961914,1494.8965849876404
D4:22:CD:00:05:5E,-155.3345947265625,-58.255653381347656,-66.49442291259766,-3.3237252235412598,-0.7321604490280151,1.623000144958496,1494.8965849876404
D4:22:CD:00:05:5D,172.2545928955078,-20.761808395385742,164.70082092285156,-20.978683471679688,19.45956039428711,11.349306106567383,1494.926598072052
D4:22:CD:00:05:6B,-46.66465377807617,-63.05158615112305,21.683015823364258,14.164764404296875,7.024828910827637,11.428466796875,1494.926598072052
D4:22:CD:00:49:AA,-104.00515747070312,-82.91445922851562,30.972620010375977,3.8855628967285156,1.0246715545654297,8.182306289672852,1494.926598072052
D4:22:CD:00:05:6E,103.39973449707031,-21.595741271972656,88.47016906738281,22.308124542236328,-0.4766520857810974,16.717121124267578,1494.926598072052
D4:22:CD:00:05:5E,-156.70257568359375,-58.695777893066406,-65.82826232910156,-3.3924612998962402,-0.6703811883926392,1.3132543563842773,1494.926598072052
D4:22:CD:00:05:5D,171.38616943359375,-19.44923973083496,168.4308624267578,-19.936710357666016,18.50988006591797,14.708051681518555,1494.956894159317
D4:22:CD:00:05:6B,-50.20001220703125,-51.378578186035156,17.76454734802246,18.896076202392578,4.599029541015625,13.002689361572266,1494.956894159317
D4:22:CD:00:49:AA,-116.56954193115234,-82.8381576538086,42.15256118774414,4.13986873626709,-0.4122830629348755,7.947032928466797,1494.956894159317
D4:22:CD:00:05:6E,106.46293640136719,-6.235594749450684,98.13401794433594,20.397533416748047,-2.755824089050293,16.343948364257812,1494.956894159317
D4:22:CD:00:05:5E,-157.97438049316406,-60.53600311279297,-65.4920654296875,-3.9532103538513184,-1.2857236862182617,1.0409040451049805,1494.956894159317
D4:22:CD:00:05:5D,168.0731964111328,-15.349666595458984,172.3037109375,-17.00766372680664,3.4984240531921387,5.858010292053223,1494.9868967533112
D4:22:CD:00:05:6B,-56.35401153564453,-41.122440338134766,13.804973602294922,15.67652702331543,-1.6404290199279785,4.140169143676758,1494.9868967533112
D4:22:CD:00:49:AA,-128.237548828125,-82.5964126586914,52.74332809448242,0.9916661977767944,0.081825852394104,9.203102111816406,1494.9868967533112
D4:22:CD:00:05:6E,111.9021987915039,13.613105773925781,104.40665435791016,15.53445816040039,1.9008748531341553,13.063497543334961,1494.9868967533112
D4:22:CD:00:05:5E,-159.09970092773438,-63.83196258544922,-65.91073608398438,-4.717808723449707,-1.1316401958465576,1.8037214279174805,1494.9868967533112
D4:22:CD:00:05:5D,168.5017852783203,-11.732264518737793,173.2588653564453,-8.261062622070312,2.8708887100219727,13.247926712036133,1495.0164160728455
D4:22:CD:00:05:6B,-60.05722427368164,-34.93914794921875,10.338798522949219,2.6549787521362305,-2.515547275543213,3.2877578735351562,1495.0164160728455
D4:22:CD:00:49:AA,-145.37841796875,-81.73889923095703,68.79991912841797,3.0628018379211426,-0.34936636686325073,7.65875244140625,1495.0164160728455
D4:22:CD:00:05:6E,107.6001968383789,35.60514450073242,108.5034408569336,8.697071075439453,15.291862487792969,12.930225372314453,1495.0164160728455
D4:22:CD:00:05:5E,-159.2050018310547,-69.115478515625,-68.34166717529297,-4.9098358154296875,-0.6515308618545532,3.2927656173706055,1495.0164160728455
D4:22:CD:00:05:5D,165.89625549316406,-9.454557418823242,172.64315795898438,-1.2477023601531982,4.237044334411621,8.30422592163086,1495.0467836856842
D4:22:CD:00:05:6B,-62.131874084472656,-33.493839263916016,7.480651378631592,-2.7461180686950684,1.4036929607391357,-0.4553260803222656,1495.0467836856842
D4:22:CD:00:49:AA,-160.3999786376953,-81.05789184570312,82.27275085449219,6.858165740966797,2.175098419189453,7.7387847900390625,1495.0467836856842
D4:22:CD:00:05:6E,94.83232879638672,54.887535095214844,111.26864624023438,-3.6762290000915527,9.213102340698242,-0.513920783996582,1495.0467836856842
D4:22:CD:00:05:5E,-153.06800842285156,-76.96484375,-76.1415786743164,-1.6833257675170898,-7.109885215759277,11.380025863647461,1495.0467836856842
D4:22:CD:00:05:5D,163.93670654296875,-8.732505798339844,172.3329620361328,2.498690128326416,-1.4807014465332031,-0.9062290191650391,1495.1068902015686
D4:22:CD:00:05:6B,-67.78700256347656,-35.599464416503906,5.2928385734558105,-3.8924851417541504,1.5578513145446777,-1.2652883529663086,1495.1068902015686
D4:22:CD:00:49:AA,-172.7662811279297,-80.47341918945312,92.16344451904297,5.300222396850586,1.177276611328125,5.6982574462890625,1495.1068902015686
D4:22:CD:00:05:6E,82.82878112792969,67.75594329833984,116.01692199707031,-5.18804931640625,0.8359862565994263,-5.834403991699219,1495.1068902015686
D4:22:CD:00:05:5E,-106.19666290283203,-85.2436752319336,-116.77164459228516,-4.203455924987793,0.6399365663528442,1.8325777053833008,1495.1068902015686
D4:22:CD:00:05:5D,165.04788208007812,-10.47194766998291,172.40957641601562,5.509437561035156,-3.046581745147705,-9.97172737121582,1495.1366176605225
D4:22:CD:00:05:6B,-73.34129333496094,-40.52189254760742,3.0235650539398193,-5.0167341232299805,2.8743271827697754,-0.9394159317016602,1495.1366176605225
D4:22:CD:00:49:AA,175.77308654785156,-79.80061340332031,101.02751922607422,1.8661425113677979,0.25237828493118286,-0.38432788848876953,1495.1366176605225
D4:22:CD:00:05:6E,79.5542984008789,75.892333984375,124.75627899169922,-0.14933368563652039,-2.962830066680908,-4.764474868774414,1495.1366176605225
D4:22:CD:00:05:5E,-56.92726135253906,-85.8778305053711,-160.15213012695312,-11.851835250854492,13.791891098022461,-8.348682403564453,1495.1366176605225
D4:22:CD:00:05:5D,165.71372985839844,-15.058512687683105,172.48512268066406,2.465590476989746,1.114786148071289,-17.830337524414062,1495.166936159134
D4:22:CD:00:05:6B,-78.21390533447266,-46.53355026245117,0.41061821579933167,-5.020712852478027,3.7099123001098633,-4.051938056945801,1495.166936159134
D4:22:CD:00:49:AA,166.99765014648438,-78.43822479248047,108.16545104980469,1.5135505199432373,-0.2062535583972931,-5.4465436935424805,1495.166936159134
D4:22:CD:00:05:6E,92.40000915527344,81.22642517089844,140.1767578125,6.505583763122559,0.5834916830062866,-3.9186525344848633,1495.166936159134
D4:22:CD:00:05:5E,-107.25748443603516,-84.12397003173828,-110.25128936767578,-9.310821533203125,2.2420754432678223,-7.714061737060547,1495.166936159134
D4:22:CD:00:05:5D,162.83407592773438,-22.49238395690918,172.64215087890625,-0.208321213722229,3.4486098289489746,-19.798690795898438,1495.1970751285553
D4:22:CD:00:05:6B,-82.07959747314453,-52.6544303894043,-2.443197727203369,-4.732936859130859,4.032533645629883,-6.1810808181762695,1495.1970751285553
D4:22:CD:00:49:AA,164.38047790527344,-77.27914428710938,109.78497314453125,0.07302229106426239,-1.2328851222991943,-6.713852882385254,1495.1970751285553
D4:22:CD:00:05:6E,131.07232666015625,83.36673736572266,172.33831787109375,-4.881132125854492,3.636770248413086,-4.55678653717041,1495.1970751285553
D4:22:CD:00:05:5E,-138.806396484375,-79.18568420410156,-86.40347290039062,2.981606960296631,-4.828217506408691,-9.563255310058594,1495.1970751285553
D4:22:CD:00:05:5D,157.2728271484375,-32.38022994995117,172.99856567382812,-2.5474581718444824,3.6184639930725098,-17.065570831298828,1495.227164030075
D4:22:CD:00:05:6B,-84.23855590820312,-58.06001663208008,-5.504988670349121,-3.2228293418884277,5.425602912902832,-7.311515808105469,1495.227164030075
D4:22:CD:00:49:AA,163.4295196533203,-77.42052459716797,110.8107681274414,-0.6707165241241455,0.9827513694763184,-9.509336471557617,1495.227164030075
D4:22:CD:00:05:6E,151.69955444335938,81.98269653320312,-172.093017578125,-1.2813091278076172,1.2048985958099365,-9.099754333496094,1495.227164030075
D4:22:CD:00:05:5E,-147.66722106933594,-76.56407928466797,-86.13296508789062,4.659512519836426,-11.122856140136719,-7.739095687866211,1495.227164030075
D4:22:CD:00:05:5D,150.8347930908203,-44.278560638427734,174.2884063720703,-4.766640663146973,2.241705894470215,-13.685646057128906,1495.2573487758636
D4:22:CD:00:05:6B,-84.50895690917969,-62.084022521972656,-9.081180572509766,-1.9817566871643066,4.649327278137207,-8.179309844970703,1495.2573487758636
D4:22:CD:00:49:AA,158.59756469726562,-78.34545135498047,114.609130859375,-0.0802624374628067,1.8991484642028809,-9.456253051757812,1495.2573487758636
D4:22:CD:00:05:6E,147.44117736816406,78.4385986328125,179.76271057128906,-4.385403633117676,2.18385648727417,-10.663057327270508,1495.2573487758636
D4:22:CD:00:05:5E,-150.75672912597656,-76.02505493164062,-85.02555847167969,3.217224597930908,-1.0830261707305908,0.03444671630859375,1495.2573487758636
D4:22:CD:00:05:5D,144.85340881347656,-57.60895919799805,177.4869842529297,-3.537350654602051,1.408764123916626,-5.117240905761719,1495.286301612854
D4:22:CD:00:05:6B,-81.4331283569336,-64.74992370605469,-13.907864570617676,-2.0304312705993652,5.067583084106445,-6.603755950927734,1495.286301612854
D4:22:CD:00:49:AA,151.297119140625,-79.38726043701172,119.08685302734375,0.8783180713653564,1.5622515678405762,-8.142702102661133,1495.286301612854
D4:22:CD:00:05:6E,133.2422332763672,72.19962310791016,164.2351531982422,-3.784949779510498,-0.7679215669631958,-12.51806640625,1495.286301612854
D4:22:CD:00:05:5E,-153.05545043945312,-73.56745147705078,-84.52262115478516,0.5896393060684204,-5.097555160522461,-4.855332374572754,1495.286301612854
D4:22:CD:00:05:5D,133.04568481445312,-71.90452575683594,-173.24774169921875,2.719639301300049,-2.2884469032287598,4.414434432983398,1495.316822052002
D4:22:CD:00:05:6B,-74.38211059570312,-66.27156066894531,-21.215072631835938,-0.03815019130706787,4.408421516418457,-6.797969818115234,1495.316822052002
D4:22:CD:00:49:AA,145.6063232421875,-79.95877838134766,121.43668365478516,3.0846352577209473,-0.07313011586666107,-7.502418518066406,1495.316822052002
D4:22:CD:00:05:6E,117.74687194824219,62.16991424560547,148.981689453125,-8.861690521240234,2.975294589996338,-16.664432525634766,1495.316822052002
D4:22:CD:00:05:5E,-158.43092346191406,-68.54244995117188,-84.70524597167969,-4.132763862609863,-7.111419677734375,-3.0324435234069824,1495.316822052002
D4:22:CD:00:05:5D,90.0515365600586,-82.4106216430664,-124.44916534423828,0.5831716060638428,-10.990306854248047,9.59675407409668,1495.3471763134003
D4:22:CD:00:05:6B,-67.37815856933594,-67.1946029663086,-29.462738037109375,-0.05436539649963379,4.146990776062012,-6.619794845581055,1495.3471763134003
D4:22:CD:00:49:AA,143.26571655273438,-80.12311553955078,120.61731719970703,2.0535101890563965,-0.5098553895950317,-3.580549716949463,1495.3471763134003
D4:22:CD:00:05:6E,103.52509307861328,51.17668914794922,139.93740844726562,-12.614358901977539,16.49675750732422,-17.354141235351562,1495.3471763134003
D4:22:CD:00:05:5E,-160.11387634277344,-64.9519271850586,-85.22554779052734,-4.9261369705200195,-5.060859680175781,3.9656314849853516,1495.3471763134003
D4:22:CD:00:05:5D,39.88218688964844,-77.07457733154297,-63.23189163208008,27.117576599121094,-2.299469470977783,11.770980834960938,1495.4068593978882
D4:22:CD:00:05:6B,-61.64324188232422,-68.21158599853516,-36.6559944152832,-0.4840819835662842,5.534825325012207,-5.814421653747559,1495.4068593978882
D4:22:CD:00:49:AA,148.03750610351562,-80.253173828125,116.38107299804688,-5.087798118591309,-2.1891002655029297,-0.7120532989501953,1495.4068593978882
D4:22:CD:00:05:6E,91.95530700683594,48.69841766357422,137.9457550048828,-3.4294357299804688,-2.4960474967956543,-8.613811492919922,1495.4068593978882
D4:22:CD:00:05:5E,-157.3649444580078,-63.38668441772461,-87.40645599365234,-2.372133731842041,-5.743207931518555,9.019174575805664,1495.4068593978882
D4:22:CD:00:05:5D,38.45663833618164,-74.72806549072266,-59.89169692993164,32.32759094238281,-7.1227617263793945,-11.693317413330078,1495.4370658397675
D4:22:CD:00:05:6B,-57.6273307800293,-69.5285415649414,-41.530643463134766,-0.4299123287200928,4.851291656494141,-5.167721748352051,1495.4370658397675
D4:22:CD:00:49:AA,156.18869018554688,-81.0761489868164,111.56402587890625,0.4290078282356262,0.4414977431297302,1.1476373672485352,1495.4370658397675
D4:22:CD:00:05:6E,91.41030883789062,56.3843879699707,133.4207305908203,11.547306060791016,-3.215240478515625,-10.618785858154297,1495.4370658397675
D4:22:CD:00:05:5E,-154.50662231445312,-62.24525451660156,-90.66177368164062,-2.217435359954834,-2.48250150680542,6.700883865356445,1495.4370658397675
D4:22:CD:00:05:5D,60.0820198059082,-78.62249755859375,-84.17235565185547,-2.733839511871338,-19.183372497558594,11.122472763061523,1495.4672133922577
D4:22:CD:00:05:6B,-58.396034240722656,-71.94309997558594,-41.23534393310547,-2.786834239959717,5.922090530395508,1.0820226669311523,1495.4672133922577
D4:22:CD:00:49:AA,166.1756134033203,-81.7774887084961,101.68045043945312,12.24459457397461,0.09574970602989197,10.884784698486328,1495.4672133922577
D4:22:CD:00:05:6E,94.62001037597656,70.93195343017578,124.40081787109375,-1.0336880683898926,8.92380142211914,-8.786600112915039,1495.4672133922577
D4:22:CD:00:05:5E,-147.7898712158203,-63.247047424316406,-95.32392120361328,-2.9235587120056152,-7.238508224487305,4.688321113586426,1495.4672133922577
D4:22:CD:00:05:5D,91.85821533203125,-79.69454193115234,-113.82254028320312,-17.078571319580078,-0.4361730217933655,9.611478805541992,1495.4972183704376
D4:22:CD:00:05:6B,-65.039306640625,-75.64604187011719,-32.399024963378906,-2.9801440238952637,6.64321231842041,8.07467269897461,1495.4972183704376
D4:22:CD:00:49:AA,171.4567108154297,-82.2137451171875,95.33839416503906,9.55048942565918,-0.6731923818588257,10.416557312011719,1495.4972183704376
D4:22:CD:00:05:6E,33.7274055480957,84.25724029541016,56.46317672729492,3.0017828941345215,12.396551132202148,-16.399913787841797,1495.4972183704376
D4:22:CD:00:05:5E,-138.58226013183594,-63.9784049987793,-100.39511108398438,-2.1180410385131836,-8.40512466430664,2.968273162841797,1495.4972183704376
D4:22:CD:00:05:5D,104.59375,-80.8157958984375,-125.35340881347656,-6.860886573791504,6.965900421142578,8.899084091186523,1495.5267324447632
D4:22:CD:00:05:6B,-83.61431121826172,-78.74691009521484,-9.665568351745605,-1.019587516784668,4.495616912841797,12.036855697631836,1495.5267324447632
D4:22:CD:00:49:AA,175.3928985595703,-81.89632415771484,91.38477325439453,-3.883131504058838,-1.1842401027679443,1.8850994110107422,1495.5267324447632
D4:22:CD:00:05:6E,-37.026611328125,74.57233428955078,-19.33161163330078,6.631772041320801,4.620889663696289,-7.915942192077637,1495.5267324447632
D4:22:CD:00:05:5E,-125.65023803710938,-64.79451751708984,-105.24966430664062,-4.784119606018066,-7.166740417480469,-0.5947856903076172,1495.5267324447632
D4:22:CD:00:05:5D,118.12628173828125,-81.92443084716797,-137.7338104248047,5.30027961730957,9.971637725830078,1.3527851104736328,1495.5567348003387
D4:22:CD:00:05:6B,-106.94670104980469,-78.19032287597656,17.22338104248047,0.2948324680328369,3.6249537467956543,8.247169494628906,1495.5567348003387
D4:22:CD:00:49:AA,-179.23709106445312,-80.60893249511719,88.76239776611328,-3.7887425422668457,-1.811122179031372,-2.114737033843994,1495.5567348003387
D4:22:CD:00:05:6E,-42.22513198852539,63.021610260009766,-30.883544921875,9.904067993164062,-5.49112606048584,2.9678688049316406,1495.5567348003387
D4:22:CD:00:05:5E,-115.01493835449219,-63.52085494995117,-106.91035461425781,-23.883617401123047,12.285860061645508,1.3512706756591797,1495.5567348003387
D4:22:CD:00:05:5D,133.14657592773438,-83.66070556640625,-152.5750274658203,1.863600730895996,0.2545638680458069,-1.9812488555908203,1495.5867328643799
D4:22:CD:00:05:6B,-118.73990631103516,-74.70218658447266,31.267322540283203,1.1596956253051758,3.731673240661621,2.376439094543457,1495.5867328643799
D4:22:CD:00:49:AA,-174.18077087402344,-77.89136505126953,88.25834655761719,-0.2515462636947632,1.2307684421539307,-4.316912651062012,1495.5867328643799
D4:22:CD:00:05:6E,-29.925622940063477,56.213111877441406,-36.605281829833984,3.848952293395996,-19.472537994384766,10.934499740600586,1495.5867328643799
D4:22:CD:00:05:5E,-110.618408203125,-60.697479248046875,-100.53690338134766,-23.22934341430664,3.989800453186035,-1.2207965850830078,1495.5867328643799
D4:22:CD:00:05:5D,154.25759887695312,-84.6102066040039,-172.77212524414062,-5.4080610275268555,-6.378118515014648,-0.7580461502075195,1495.6162774562836
D4:22:CD:00:05:6B,-121.93782806396484,-70.55563354492188,35.412784576416016,-0.31806695461273193,3.322995662689209,-1.4387941360473633,1495.6162774562836
D4:22:CD:00:49:AA,-171.52490234375,-75.25431823730469,90.330322265625,-1.1528782844543457,1.6252095699310303,-4.546916961669922,1495.6162774562836
D4:22:CD:00:05:6E,-9.69112491607666,54.68191909790039,-42.493873596191406,0.11977969110012054,-5.072227478027344,-1.3203134536743164,1495.6162774562836
D4:22:CD:00:05:5E,-117.76746368408203,-55.92267608642578,-87.14484405517578,-15.03099250793457,1.1715409755706787,-7.359674453735352,1495.6162774562836
D4:22:CD:00:05:5D,173.92286682128906,-84.17809295654297,170.3512420654297,-0.07513074576854706,-2.142670154571533,0.804194450378418,1495.6464343070984
D4:22:CD:00:05:6B,-123.6989517211914,-67.48245239257812,37.408668518066406,-0.8634747266769409,1.4036860466003418,-3.0495171546936035,1495.6464343070984
D4:22:CD:00:49:AA,-174.4483642578125,-72.63944244384766,94.8069076538086,4.168180465698242,2.7700142860412598,1.6897802352905273,1495.6464343070984
D4:22:CD:00:05:6E,7.338305950164795,58.142127990722656,-45.707969665527344,1.0651984214782715,0.3131389617919922,1.3730764389038086,1495.6464343070984
D4:22:CD:00:05:5E,-128.85028076171875,-49.7926139831543,-73.64163970947266,-7.791712760925293,2.838026523590088,-12.063573837280273,1495.6464343070984
D4:22:CD:00:05:5D,-174.05242919921875,-83.65789031982422,160.29244995117188,1.2909777164459229,2.857008457183838,1.4354848861694336,1495.7064261436462
D4:22:CD:00:05:6B,-126.60137939453125,-66.66590118408203,39.06220626831055,-1.9975335597991943,-0.22787964344024658,-0.4689178466796875,1495.7064261436462
D4:22:CD:00:49:AA,179.4328155517578,-70.90937042236328,98.45972442626953,-2.2485337257385254,1.0677790641784668,1.877197265625,1495.7064261436462
D4:22:CD:00:05:6E,19.8786678314209,63.506710052490234,-43.290409088134766,1.9622719287872314,0.9936882257461548,2.281235694885254,1495.7064261436462
D4:22:CD:00:05:5E,-139.24269104003906,-43.35958480834961,-63.2125358581543,-1.3367033004760742,4.811075210571289,-13.13548469543457,1495.7064261436462
D4:22:CD:00:05:5D,-163.19119262695312,-83.09008026123047,150.81761169433594,-0.5967961549758911,-0.014249341562390327,0.030803680419921875,1495.7369539737701
D4:22:CD:00:05:6B,-127.58807373046875,-68.04878997802734,38.11936950683594,-2.347808361053467,6.379265785217285,0.37543678283691406,1495.7369539737701
D4:22:CD:00:49:AA,176.74232482910156,-68.88446044921875,101.36546325683594,-7.765840530395508,2.846006393432617,1.2681808471679688,1495.7369539737701
D4:22:CD:00:05:6E,36.24538803100586,68.5261001586914,-32.488616943359375,-7.506340980529785,2.789094924926758,-0.5828619003295898,1495.7369539737701
D4:22:CD:00:05:5E,-147.60264587402344,-38.23677062988281,-55.71555709838867,-0.17280170321464539,2.1723146438598633,-10.59061050415039,1495.7369539737701
D4:22:CD:00:05:5D,-155.06976318359375,-82.38362121582031,143.2823486328125,0.39597779512405396,1.1767520904541016,0.1261453628540039,1495.7667183876038
D4:22:CD:00:05:6B,-127.11587524414062,-70.16614532470703,31.815855026245117,-4.035919189453125,2.9898266792297363,-0.7897300720214844,1495.7667183876038
D4:22:CD:00:49:AA,175.25677490234375,-68.08049774169922,103.32747650146484,-3.441537380218506,2.722278594970703,-0.18719100952148438,1495.7667183876038
D4:22:CD:00:05:6E,68.30545806884766,68.14106750488281,-9.007913589477539,-8.58432388305664,4.456089019775391,-4.87562370300293,1495.7667183876038
D4:22:CD:00:05:5E,-155.5001983642578,-35.1647834777832,-49.9808235168457,-1.2796385288238525,-1.142326831817627,-5.62420654296875,1495.7667183876038
D4:22:CD:00:05:5D,-152.1142578125,-81.1929931640625,139.6732940673828,-2.4585347175598145,0.6154147386550903,-1.201955795288086,1495.7971677780151
D4:22:CD:00:05:6B,-122.28970336914062,-72.34407043457031,21.37285041809082,-5.188239097595215,1.6349365711212158,-2.2308244705200195,1495.7971677780151
D4:22:CD:00:49:AA,172.0583953857422,-67.67671203613281,105.73653411865234,1.941178798675537,2.311573028564453,-2.2169694900512695,1495.7971677780151
D4:22:CD:00:05:6E,96.77705383300781,58.37958908081055,7.704254627227783,2.364685535430908,8.613168716430664,-7.69708251953125,1495.7971677780151
D4:22:CD:00:05:5E,-162.3160400390625,-34.31046676635742,-45.061988830566406,1.54258131980896,-2.6327056884765625,-2.6417274475097656,1495.7971677780151
D4:22:CD:00:05:5D,-157.10093688964844,-78.89488220214844,143.09278869628906,-4.531238555908203,-1.8860316276550293,-1.857231616973877,1495.8268632888794
D4:22:CD:00:05:6B,-110.3392105102539,-74.50592803955078,5.41227912902832,-3.169435977935791,1.186427116394043,-4.803702354431152,1495.8268632888794
D4:22:CD:00:49:AA,165.66738891601562,-67.22866821289062,109.99192810058594,1.421091079711914,1.441115140914917,-3.7943344116210938,1495.8268632888794
D4:22:CD:00:05:6E,107.75592803955078,43.16975402832031,10.721806526184082,11.639034271240234,5.604545593261719,-1.5853948593139648,1495.8268632888794
D4:22:CD:00:05:5E,-167.22708129882812,-36.090476989746094,-41.22618865966797,7.6586503982543945,-8.370407104492188,-6.879392623901367,1495.8268632888794
D4:22:CD:00:05:5D,-165.87026977539062,-75.1061782836914,152.37574768066406,-4.328118324279785,-6.356060028076172,-2.3062100410461426,1495.857220172882
D4:22:CD:00:05:6B,-91.62401580810547,-75.31548309326172,-17.567970275878906,-1.7803571224212646,0.6630927324295044,-6.867155075073242,1495.857220172882
D4:22:CD:00:49:AA,157.26205444335938,-66.7577133178711,114.776123046875,-0.5766870975494385,-0.8283402919769287,-5.676372528076172,1495.857220172882
D4:22:CD:00:05:6E,100.14124298095703,25.720741271972656,7.896300792694092,9.564176559448242,-3.036346435546875,3.311099052429199,1495.857220172882
D4:22:CD:00:05:5E,-165.70401000976562,-41.601959228515625,-40.27045822143555,3.4606266021728516,7.868793487548828,12.270893096923828,1495.857220172882
D4:22:CD:00:05:5D,-172.30845642089844,-70.26730346679688,161.15980529785156,2.6014862060546875,3.345183849334717,1.5113935470581055,1495.8862171173096
D4:22:CD:00:05:6B,-71.79137420654297,-73.57366943359375,-42.04661560058594,0.7004913091659546,0.4852752089500427,-9.359163284301758,1495.8862171173096
D4:22:CD:00:49:AA,149.54173278808594,-66.72236633300781,119.6914291381836,-3.3863120079040527,0.45313161611557007,-3.6073055267333984,1495.8862171173096
D4:22:CD:00:05:6E,80.18036651611328,4.621288776397705,6.592838287353516,8.668663024902344,-2.8501968383789062,-8.223573684692383,1495.8862171173096
D4:22:CD:00:05:5E,-162.69140625,-42.4987907409668,-41.33161926269531,14.055068969726562,-18.115673065185547,-9.31157112121582,1495.8862171173096
D4:22:CD:00:05:5D,-178.24905395507812,-64.15213012695312,169.13722229003906,-0.763826847076416,1.961533546447754,1.8265018463134766,1495.9165744781494
D4:22:CD:00:05:6B,-64.12578582763672,-69.59992980957031,-58.92543411254883,2.197025775909424,0.2688210606575012,-11.868900299072266,1495.9165744781494
D4:22:CD:00:49:AA,142.11048889160156,-67.42838287353516,126.6772689819336,-4.391121864318848,-1.0152924060821533,-2.1085333824157715,1495.9165744781494
D4:22:CD:00:05:6E,57.96920394897461,-20.287918090820312,10.871016502380371,46.18120574951172,-1.6748955249786377,1.0787172317504883,1495.9165744781494
D4:22:CD:00:05:5E,-163.61465454101562,-45.95127868652344,-42.15257263183594,16.98788070678711,-11.465459823608398,9.319570541381836,1495.9165744781494
D4:22:CD:00:05:5D,177.92640686035156,-57.71797561645508,175.32843017578125,3.736429214477539,-1.367048740386963,-4.798328399658203,1495.9465372562408
D4:22:CD:00:05:6B,-72.51056671142578,-63.99519348144531,-69.1732406616211,-3.529308795928955,3.24281644821167,-9.423999786376953,1495.9465372562408
D4:22:CD:00:49:AA,135.69302368164062,-68.15101623535156,133.74520874023438,-1.1859304904937744,0.9018248319625854,-3.350259304046631,1495.9465372562408
D4:22:CD:00:05:6E,44.9797248840332,-28.698129653930664,15.700505256652832,-3.058767318725586,10.88058090209961,18.78860855102539,1495.9465372562408
D4:22:CD:00:05:5E,-166.01953125,-44.645469665527344,-43.81913757324219,8.662935256958008,-8.241033554077148,14.77773666381836,1495.9465372562408
