Device,EulerX,EulerY,EulerZ,FreeAccX,FreeAccY,FreeAccZ,Timestamp
D4:22:CD:00:05:6B,-55.266544342041016,57.15793991088867,167.92112731933594,-4.442225456237793,0.31262123584747314,-35.605316162109375,1418.7511444091797
D4:22:CD:00:49:AA,-169.19091796875,-77.27914428710938,125.18287658691406,-0.13774296641349792,1.2019529342651367,2.4304990768432617,1418.7511444091797
D4:22:CD:00:05:6E,26.006608963012695,-53.28231430053711,136.9914093017578,-5.080019950866699,-3.0660629272460938,-3.7865829467773438,1418.7511444091797
D4:22:CD:00:05:5E,-58.17763137817383,-68.08746337890625,176.9468994140625,-29.35406494140625,11.501335144042969,-15.871183395385742,1418.7511444091797
D4:22:CD:00:05:6B,-72.07804870605469,40.06516647338867,162.20767211914062,-18.736919403076172,10.453357696533203,-25.012958526611328,1418.7594864368439
D4:22:CD:00:49:AA,-170.41189575195312,-78.33975219726562,125.41400909423828,-2.6854395866394043,-0.3517078757286072,0.854243278503418,1418.7594864368439
D4:22:CD:00:05:6E,20.272951126098633,-52.59033203125,143.5435028076172,-6.1129655838012695,-2.6937789916992188,-2.8074727058410645,1418.7594864368439
D4:22:CD:00:05:5E,-91.65740966796875,-68.58888244628906,-160.2808380126953,-11.973611831665039,-9.371675491333008,3.936701774597168,1418.7594864368439
D4:22:CD:00:05:5D,-174.36569213867188,-46.89832305908203,-103.46614837646484,-0.6792356967926025,-3.287538528442383,1.5036325454711914,1418.7654831409454
D4:22:CD:00:49:AA,-174.72091674804688,-78.26309967041016,127.36522674560547,-3.044827938079834,-2.2361130714416504,-0.37565040588378906,1418.7654831409454
D4:22:CD:00:05:6E,13.686090469360352,-53.590938568115234,151.6207275390625,-7.275903701782227,-4.412561416625977,-1.885974407196045,1418.7654831409454
D4:22:CD:00:05:5E,-96.10394287109375,-70.30506134033203,-149.949462890625,-7.419284820556641,-22.425495147705078,-5.6134490966796875,1418.7654831409454
D4:22:CD:00:05:5D,-176.03125,-49.58592224121094,-102.37577056884766,-3.7653770446777344,0.0499500036239624,1.3490514755249023,1418.7704906463623
D4:22:CD:00:49:AA,-179.81344604492188,-78.89457702636719,129.18936157226562,-3.7675833702087402,-1.0217351913452148,5.649056434631348,1418.7704906463623
D4:22:CD:00:05:6E,-0.05021408200263977,-56.40742874145508,160.46087646484375,-10.056751251220703,-9.228981018066406,4.778003692626953,1418.7704906463623
D4:22:CD:00:05:5E,-105.34634399414062,-72.31468200683594,-140.54541015625,-1.9615685939788818,1.3475210666656494,14.885429382324219,1418.7704906463623
D4:22:CD:00:05:5D,176.6689453125,-48.82722473144531,-96.93344116210938,1.305668830871582,3.519162654876709,-2.000640869140625,1418.7739317417145
D4:22:CD:00:05:6B,-58.34138488769531,14.569147109985352,-50.42041015625,0.4181404709815979,-0.4180874824523926,8.498834609985352,1418.7739317417145
D4:22:CD:00:49:AA,-143.98614501953125,-80.48957061767578,72.02245330810547,7.3599853515625,1.5306315422058105,9.273279190063477,1418.7739317417145
D4:22:CD:00:05:6E,63.823883056640625,-72.6068115234375,63.74019241333008,2.2671680450439453,3.0474424362182617,2.8934097290039062,1418.7739317417145
D4:22:CD:00:05:5D,176.8986358642578,-48.76972198486328,-97.03907012939453,1.7168071269989014,2.5171332359313965,0.914036750793457,1418.8168935775757
D4:22:CD:00:05:6B,-51.769229888916016,30.517969131469727,-47.791011810302734,4.207745552062988,-5.484698295593262,9.962902069091797,1418.8168935775757
D4:22:CD:00:49:AA,-170.68563842773438,-78.93698120117188,97.02119445800781,-0.2629433274269104,-3.7556939125061035,9.266576766967773,1418.8168935775757
D4:22:CD:00:05:6E,47.36159133911133,-78.52587127685547,85.01203155517578,-2.252091407775879,0.6697003841400146,0.6913471221923828,1418.8168935775757
D4:22:CD:00:05:5E,145.0329132080078,-81.40426635742188,18.11172866821289,7.478239059448242,-2.245622158050537,11.170991897583008,1418.8168935775757
D4:22:CD:00:05:5D,178.8636016845703,-50.86279296875,-97.44024658203125,-1.7161881923675537,-0.11686977744102478,4.697871208190918,1418.8469393253326
D4:22:CD:00:05:6B,-43.340301513671875,43.87930679321289,-45.468902587890625,3.212307929992676,-7.5349884033203125,4.076944351196289,1418.8469393253326
D4:22:CD:00:49:AA,-175.97882080078125,-75.95480346679688,101.7086181640625,-2.1469907760620117,-4.606666564941406,4.738334655761719,1418.8469393253326
D4:22:CD:00:05:6E,18.474645614624023,-82.34465026855469,123.14108276367188,-5.617539405822754,-4.5338945388793945,-1.3284664154052734,1418.8469393253326
D4:22:CD:00:05:5E,109.43963623046875,-86.1667709350586,54.24522018432617,-13.785539627075195,0.3171086311340332,5.158163070678711,1418.8469393253326
D4:22:CD:00:05:5D,-178.17994689941406,-55.360130310058594,-97.76419067382812,-5.615825653076172,-0.9634901285171509,3.9513635635375977,1418.8770813941956
D4:22:CD:00:05:6B,-33.60688781738281,54.62859344482422,-41.0853385925293,1.9211928844451904,-3.634847640991211,-0.6529006958007812,1418.8770813941956
D4:22:CD:00:49:AA,-171.52745056152344,-73.58010864257812,98.76060485839844,-1.170048475265503,-1.2310154438018799,1.1174755096435547,1418.8770813941956
D4:22:CD:00:05:6E,-9.74548625946045,-82.6962661743164,159.15579223632812,-4.554783821105957,-4.923703193664551,1.316476821899414,1418.8770813941956
D4:22:CD:00:05:5E,152.58465576171875,-77.84847259521484,11.784489631652832,-0.6044327020645142,8.434225082397461,-0.22595691680908203,1418.8770813941956
D4:22:CD:00:05:5D,-176.22203063964844,-61.613792419433594,-97.57777404785156,-9.61800765991211,-3.6832823753356934,6.164238929748535,1418.9372901916504
D4:22:CD:00:05:6B,-19.285991668701172,62.1494026184082,-31.53069496154785,0.3651268482208252,-4.295596122741699,-0.7633399963378906,1418.9372901916504
D4:22:CD:00:49:AA,-164.26365661621094,-71.82029724121094,94.1473388671875,-0.17765122652053833,-1.241551160812378,-3.490886688232422,1418.9372901916504
D4:22:CD:00:05:6E,-37.99244689941406,-79.85839080810547,-164.58511352539062,-7.002617835998535,-7.6718902587890625,-1.0008831024169922,1418.9372901916504
D4:22:CD:00:05:5E,177.78475952148438,-75.86348724365234,-9.427660942077637,-0.6947858333587646,3.4848361015319824,-4.094840049743652,1418.9372901916504
D4:22:CD:00:05:5D,-178.70663452148438,-68.38992309570312,-93.65142822265625,-2.239534378051758,-8.170408248901367,5.1335296630859375,1418.9673066139221
D4:22:CD:00:05:6B,2.3112826347351074,65.57231140136719,-18.308216094970703,-1.8055038452148438,-2.892763614654541,-1.8940396308898926,1418.9673066139221
D4:22:CD:00:49:AA,-156.7002716064453,-69.4183349609375,89.94795227050781,-0.14622679352760315,-0.6337686777114868,-8.006099700927734,1418.9673066139221
D4:22:CD:00:05:6E,-51.63983917236328,-75.69670867919922,-144.22116088867188,-5.164157867431641,-5.918679237365723,-5.79530143737793,1418.9673066139221
D4:22:CD:00:05:5E,-163.11416625976562,-74.67942810058594,-27.375469207763672,2.994074821472168,1.5786054134368896,-8.602336883544922,1418.9673066139221
D4:22:CD:00:05:5D,174.05056762695312,-76.02886199951172,-87.28936004638672,4.258301734924316,-4.04437255859375,-5.766826629638672,1418.9987797737122
D4:22:CD:00:05:6B,24.348838806152344,66.37915802001953,-7.466583728790283,-3.7383832931518555,-3.224919319152832,-1.934330940246582,1418.9987797737122
D4:22:CD:00:49:AA,-153.85079956054688,-66.24251556396484,89.86076354980469,1.9672510623931885,1.2398664951324463,-11.318775177001953,1418.9987797737122
D4:22:CD:00:05:6E,-56.64139175415039,-70.69951629638672,-131.42625427246094,-3.7069573402404785,-4.031974792480469,-6.2052764892578125,1418.9987797737122
D4:22:CD:00:05:5E,-145.3762969970703,-76.28486633300781,-45.540794372558594,6.684286117553711,-0.0036744410172104836,-11.499885559082031,1418.9987797737122
D4:22:CD:00:05:5D,160.88632202148438,-79.44058227539062,-73.61373138427734,5.493744850158691,15.369487762451172,-10.073867797851562,1419.027484178543
D4:22:CD:00:05:6B,39.63184356689453,66.97907257080078,-4.414159297943115,-3.349217414855957,-1.1864323616027832,-0.27631568908691406,1419.027484178543
D4:22:CD:00:49:AA,-152.81500244140625,-65.26124572753906,90.9039077758789,1.019923448562622,0.34427833557128906,-9.18365478515625,1419.027484178543
D4:22:CD:00:05:6E,-53.89221954345703,-65.60187530517578,-123.48235321044922,-3.3122105598449707,-4.52866268157959,-7.374383926391602,1419.027484178543
D4:22:CD:00:05:5E,-108.89156341552734,-79.9544677734375,-83.06749725341797,5.761998176574707,0.43626731634140015,-10.835309982299805,1419.027484178543
D4:22:CD:00:05:5D,146.04774475097656,-78.50868225097656,-61.407691955566406,-1.1813724040985107,0.11284671723842621,-8.28396224975586,1419.0567424297333
D4:22:CD:00:05:6B,41.30379104614258,68.93447875976562,-13.464869499206543,0.5217504501342773,2.285045623779297,-1.6696910858154297,1419.0567424297333
D4:22:CD:00:49:AA,-148.79888916015625,-66.57762145996094,90.09765625,-1.9233388900756836,-0.04134352505207062,-7.3819379806518555,1419.0567424297333
D4:22:CD:00:05:6E,-45.9719352722168,-61.339778900146484,-119.28253173828125,-3.6443543434143066,-4.257759094238281,-7.692249298095703,1419.0567424297333
D4:22:CD:00:05:5E,-51.543495178222656,-76.74691772460938,-141.12933349609375,1.2420828342437744,-1.4230787754058838,-6.921010971069336,1419.0567424297333
D4:22:CD:00:05:5D,141.22744750976562,-76.40301513671875,-55.25856399536133,13.362812042236328,4.220473289489746,-12.285076141357422,1419.086758852005
D4:22:CD:00:05:6B,20.75947380065918,71.7712631225586,-43.266361236572266,2.7979650497436523,1.311051845550537,-7.440630912780762,1419.086758852005
D4:22:CD:00:49:AA,-143.79486083984375,-68.04251098632812,88.81292724609375,-1.0887928009033203,0.5067979097366333,-6.660283088684082,1419.086758852005
D4:22:CD:00:05:6E,-35.513572692871094,-58.52690887451172,-116.81287384033203,-3.068450927734375,-5.436715126037598,-7.649162292480469,1419.086758852005
D4:22:CD:00:05:5E,-28.047321319580078,-66.65042114257812,-166.9611053466797,-8.220447540283203,-2.8218655586242676,-1.885477066040039,1419.086758852005
D4:22:CD:00:05:5D,146.50924682617188,-75.3477783203125,-54.55168151855469,-4.947817802429199,7.117413520812988,2.1800880432128906,1419.116581439972
D4:22:CD:00:05:6B,-13.470783233642578,66.13249206542969,-90.07554626464844,0.25588011741638184,-5.3220319747924805,-19.526683807373047,1419.116581439972
D4:22:CD:00:49:AA,-140.73434448242188,-68.41504669189453,89.49165344238281,2.8027091026306152,1.6973278522491455,-4.548565864562988,1419.116581439972
D4:22:CD:00:05:6E,-24.333372116088867,-56.810943603515625,-115.587890625,-1.3961679935455322,-8.515077590942383,-4.956583023071289,1419.116581439972
D4:22:CD:00:05:5E,-23.67656707763672,-56.449527740478516,-177.7355194091797,-19.88903045654297,-3.2449116706848145,-3.497706413269043,1419.116581439972
D4:22:CD:00:05:5D,149.39414978027344,-73.04823303222656,-57.14167022705078,8.713424682617188,-4.986610412597656,-3.034245014190674,1419.1465787887573
D4:22:CD:00:05:6B,-30.948509216308594,51.275184631347656,-113.47342681884766,-12.635995864868164,-17.638580322265625,-32.327491760253906,1419.1465787887573
D4:22:CD:00:49:AA,-142.9665985107422,-68.05916595458984,92.56072235107422,4.0387468338012695,4.366128921508789,2.861166000366211,1419.1465787887573
D4:22:CD:00:05:6E,-14.62230110168457,-55.50153350830078,-114.84173583984375,1.2885725498199463,-9.201427459716797,-4.437570571899414,1419.1465787887573
D4:22:CD:00:05:5E,-30.5318546295166,-51.01225280761719,178.6325225830078,-28.19281768798828,1.7336649894714355,-16.991207122802734,1419.1465787887573
D4:22:CD:00:05:5D,151.31094360351562,-69.7471923828125,-56.16819763183594,1.5449681282043457,-1.9414024353027344,0.6395759582519531,1419.177083015442
D4:22:CD:00:05:6B,-36.169708251953125,40.82803726196289,-124.89114379882812,-7.32612419128418,-1.0525643825531006,-17.631351470947266,1419.177083015442
D4:22:CD:00:49:AA,-146.51927185058594,-68.76947021484375,94.2513198852539,-2.569540500640869,0.254611611366272,3.5933141708374023,1419.177083015442
D4:22:CD:00:05:6E,-9.437051773071289,-54.997310638427734,-112.62749481201172,3.588099479675293,-8.025581359863281,-5.3411407470703125,1419.177083015442
D4:22:CD:00:05:5E,-42.7401237487793,-53.227027893066406,-178.72805786132812,-25.47512435913086,13.481193542480469,-24.472328186035156,1419.177083015442
D4:22:CD:00:05:5D,150.9451904296875,-66.73558807373047,-53.86619567871094,3.7277145385742188,-3.0289716720581055,3.935704231262207,1419.2370603084564
D4:22:CD:00:05:6B,-56.2777214050293,47.03298568725586,-117.53382873535156,1.1573283672332764,1.6431846618652344,-2.7090940475463867,1419.2370603084564
D4:22:CD:00:49:AA,-150.03848266601562,-69.7422866821289,95.6836929321289,-5.092827796936035,-0.8355190753936768,2.0865917205810547,1419.2370603084564
D4:22:CD:00:05:6E,-10.819406509399414,-56.42374801635742,-107.71532440185547,6.503881454467773,-5.549654960632324,-5.247354507446289,1419.2370603084564
D4:22:CD:00:05:5E,-58.417789459228516,-61.282718658447266,-167.00201416015625,-3.5774998664855957,-12.522737503051758,5.609251022338867,1419.2370603084564
D4:22:CD:00:05:5D,149.50808715820312,-64.40660095214844,-51.11595916748047,-3.161137580871582,-0.42362678050994873,4.251333236694336,1419.2671661376953
D4:22:CD:00:05:6B,-54.72810745239258,55.67583465576172,-104.67326354980469,-8.877099990844727,-6.483255386352539,-6.845109939575195,1419.2671661376953
D4:22:CD:00:49:AA,-154.26222229003906,-70.6469497680664,97.17298889160156,-2.540468692779541,0.362920880317688,4.304588317871094,1419.2671661376953
D4:22:CD:00:05:6E,-20.745798110961914,-59.5526237487793,-99.09402465820312,9.990684509277344,-5.2883405685424805,-1.6449689865112305,1419.2671661376953
D4:22:CD:00:05:5E,-63.07455062866211,-67.54547882080078,-158.39990234375,1.3333468437194824,-11.034252166748047,5.438981056213379,1419.2671661376953
D4:22:CD:00:05:5D,145.48963928222656,-62.769309997558594,-48.042320251464844,-0.07051542401313782,-1.6453564167022705,5.407973289489746,1419.297076702118
D4:22:CD:00:05:6B,-23.688335418701172,59.47542953491211,-85.75556182861328,1.149312973022461,-1.7070705890655518,-20.79239273071289,1419.297076702118
D4:22:CD:00:49:AA,-155.0750274658203,-71.05065155029297,95.50116729736328,0.5325933694839478,0.6113507747650146,5.100170135498047,1419.297076702118
D4:22:CD:00:05:6E,-37.54999542236328,-61.666603088378906,-89.47816467285156,10.571084976196289,-6.892719268798828,2.9900035858154297,1419.297076702118
D4:22:CD:00:05:5E,-83.19429779052734,-71.27439880371094,-142.24903869628906,-3.525763511657715,-3.027731418609619,-2.3292369842529297,1419.297076702118
D4:22:CD:00:05:5D,139.62376403808594,-61.91058349609375,-43.695491790771484,0.5234711170196533,-0.38082826137542725,3.5419883728027344,1419.3275249004364
D4:22:CD:00:05:6B,-1.4029461145401,56.420814514160156,-59.18723678588867,-1.0646865367889404,-4.57835578918457,-12.997838973999023,1419.3275249004364
D4:22:CD:00:49:AA,-155.52481079101562,-71.15450286865234,92.25183868408203,6.216096878051758,1.58748197555542,0.7159395217895508,1419.3275249004364
D4:22:CD:00:05:6E,-53.176612854003906,-63.67064666748047,-84.32321166992188,4.604656219482422,-5.6582489013671875,3.073227882385254,1419.3275249004364
D4:22:CD:00:05:5E,-91.94862365722656,-73.84864044189453,-134.38204956054688,-4.616792678833008,0.03738332539796829,-2.01804256439209,1419.3275249004364
D4:22:CD:00:05:5D,132.4203338623047,-61.18171310424805,-39.368717193603516,7.066003799438477,-2.1897807121276855,2.5789012908935547,1419.3577735424042
D4:22:CD:00:05:6B,11.080989837646484,48.90364456176758,-42.45967483520508,-0.5671451091766357,-4.436631202697754,-6.1568498611450195,1419.3577735424042
D4:22:CD:00:49:AA,-157.28248596191406,-70.8955307006836,89.15723419189453,7.988457679748535,1.1405928134918213,0.29535675048828125,1419.3577735424042
D4:22:CD:00:05:6E,-64.0890884399414,-67.00477600097656,-82.61492919921875,3.611088752746582,-1.3824357986450195,3.963787078857422,1419.3577735424042
D4:22:CD:00:05:5E,-97.37718963623047,-75.55198669433594,-127.21410369873047,-4.520720481872559,1.5921099185943604,0.7068920135498047,1419.3577735424042
D4:22:CD:00:05:5D,122.63316345214844,-61.730350494384766,-36.230525970458984,8.214540481567383,-0.779721736907959,2.2140722274780273,1419.3877913951874
D4:22:CD:00:05:6B,13.181307792663574,41.46921920776367,-33.12045669555664,-0.00892496109008789,5.52838134765625,5.245379447937012,1419.3877913951874
D4:22:CD:00:49:AA,-159.87318420410156,-70.72874450683594,86.57572174072266,6.204280853271484,-3.240784168243408,-2.8521995544433594,1419.3877913951874
D4:22:CD:00:05:6E,-68.05642700195312,-70.3697280883789,-83.81451416015625,2.242481231689453,1.3322393894195557,1.7428741455078125,1419.3877913951874
D4:22:CD:00:05:5E,-107.90558624267578,-75.95158386230469,-117.09791564941406,-3.3060317039489746,-0.7772617340087891,-0.6859159469604492,1419.3877913951874
D4:22:CD:00:05:5D,113.64896392822266,-60.49872970581055,-41.01090621948242,13.148853302001953,19.43852996826172,6.095198631286621,1419.417403459549
D4:22:CD:00:05:6B,4.231521129608154,35.02184295654297,-25.85553550720215,-3.750035285949707,15.015316009521484,0.026548385620117188,1419.417403459549
D4:22:CD:00:49:AA,-160.9349822998047,-69.35636138916016,84.4402084350586,2.069854736328125,-0.016031689941883087,-3.210263729095459,1419.417403459549
D4:22:CD:00:05:6E,-66.64404296875,-72.82939147949219,-87.42215728759766,-0.8791525363922119,-1.3866188526153564,-3.328677177429199,1419.417403459549
D4:22:CD:00:05:5E,-117.61288452148438,-75.67759704589844,-107.87293243408203,-3.2355337142944336,-1.100966215133667,0.11462211608886719,1419.417403459549
D4:22:CD:00:05:5D,117.97575378417969,-53.69827651977539,-55.98387908935547,20.81163787841797,9.042665481567383,8.627792358398438,1419.4469261169434
D4:22:CD:00:05:6B,-13.570393562316895,28.59543228149414,-19.909151077270508,-8.690176010131836,6.247945785522461,-2.270200252532959,1419.4469261169434
D4:22:CD:00:49:AA,-159.88539123535156,-69.18146514892578,81.62191009521484,1.0844740867614746,1.3538775444030762,-1.3581647872924805,1419.4469261169434
D4:22:CD:00:05:6E,-66.82937622070312,-74.7399673461914,-90.39593505859375,-3.5985798835754395,-5.103437423706055,-4.448131561279297,1419.4469261169434
D4:22:CD:00:05:5E,-123.27873992919922,-75.4784927368164,-101.11468505859375,-3.8918824195861816,-0.9497628211975098,-0.9134073257446289,1419.4469261169434
D4:22:CD:00:05:5D,125.17123413085938,-44.159881591796875,-71.61540985107422,12.431360244750977,-1.3198487758636475,2.7163352966308594,1419.5069971084595
D4:22:CD:00:05:6B,-28.889265060424805,22.15001106262207,-14.804434776306152,0.2681879997253418,-12.882484436035156,7.3845062255859375,1419.5069971084595
D4:22:CD:00:49:AA,-159.04591369628906,-69.40896606445312,79.42591094970703,2.304596424102783,1.3367674350738525,-0.26921844482421875,1419.5069971084595
D4:22:CD:00:05:6E,-69.48865509033203,-76.4040756225586,-92.61827087402344,-5.032235145568848,-3.9286351203918457,-1.9453125,1419.5069971084595
D4:22:CD:00:05:5E,-129.08590698242188,-75.06893920898438,-94.53854370117188,-2.9130163192749023,-0.6861478090286255,0.2417287826538086,1419.5069971084595
D4:22:CD:00:05:5D,131.82357788085938,-34.32410430908203,-85.13101196289062,3.385876178741455,-2.668478488922119,-7.304818153381348,1419.5369992256165
D4:22:CD:00:05:6B,-31.381147384643555,17.14326286315918,-10.745312690734863,5.991839408874512,0.06380558013916016,6.7696990966796875,1419.5369992256165
D4:22:CD:00:49:AA,-158.31613159179688,-69.73493194580078,77.75264739990234,2.6788411140441895,2.76129150390625,1.1652507781982422,1419.5369992256165
D4:22:CD:00:05:6E,-68.1658935546875,-77.68765258789062,-96.40385437011719,-5.269702911376953,-1.446249008178711,-1.6949081420898438,1419.5369992256165
D4:22:CD:00:05:5E,-133.77224731445312,-74.45169067382812,-88.83480834960938,-4.379621505737305,-0.9272207021713257,-1.0233192443847656,1419.5369992256165
D4:22:CD:00:05:5D,140.38352966308594,-24.598251342773438,-95.77818298339844,-1.6869323253631592,-1.3913023471832275,-13.34218978881836,1419.5674719810486
D4:22:CD:00:05:6B,-35.39623260498047,12.797992706298828,-5.763282299041748,-1.8295998573303223,15.969863891601562,-4.076383590698242,1419.5674719810486
D4:22:CD:00:49:AA,-158.859130859375,-70.52727508544922,76.96031188964844,3.7711424827575684,1.9094884395599365,0.0466156005859375,1419.5674719810486
D4:22:CD:00:05:6E,-61.8764533996582,-78.97111511230469,-101.43157196044922,-5.160320281982422,-3.3345985412597656,-0.1356954574584961,1419.5674719810486
D4:22:CD:00:05:5E,-137.60833740234375,-73.14840698242188,-84.5757064819336,-4.475807189941406,-1.6946220397949219,-1.7988872528076172,1419.5674719810486
D4:22:CD:00:05:5D,152.01223754882812,-16.199296951293945,-104.01079559326172,-0.24012410640716553,2.2605113983154297,-14.052722930908203,1419.596703529358
D4:22:CD:00:05:6B,-49.522769927978516,5.812568187713623,0.16196534037590027,-4.32513427734375,3.39029598236084,-4.7232160568237305,1419.596703529358
D4:22:CD:00:49:AA,-160.8540802001953,-71.2279281616211,77.51153564453125,3.9469456672668457,2.030000686645508,-2.229586124420166,1419.596703529358
D4:22:CD:00:05:6E,-54.67231369018555,-80.78816986083984,-106.83834075927734,-0.9088358879089355,-4.816022872924805,1.199477195739746,1419.596703529358
D4:22:CD:00:05:5E,-141.51783752441406,-71.17284393310547,-80.95093536376953,-3.5185370445251465,0.4422059655189514,-0.23820972442626953,1419.596703529358
D4:22:CD:00:05:5D,162.590087890625,-10.75981330871582,-111.799072265625,-5.919092178344727,-0.9801874160766602,-9.551187515258789,1419.6268470287323
D4:22:CD:00:05:6B,-63.71413040161133,-6.097794055938721,7.047041893005371,6.941836357116699,-2.6718883514404297,-4.674633979797363,1419.6268470287323
D4:22:CD:00:49:AA,-163.2272186279297,-71.59294891357422,78.28388977050781,5.353794097900391,1.9405927658081055,0.9014463424682617,1419.6268470287323
D4:22:CD:00:05:6E,-44.749916076660156,-82.8143539428711,-115.8462905883789,0.6616973876953125,-5.173612594604492,0.6432561874389648,1419.6268470287323
D4:22:CD:00:05:5E,-146.02862548828125,-68.13731384277344,-77.65194702148438,-2.781574249267578,-0.9200953245162964,0.42130565643310547,1419.6268470287323
D4:22:CD:00:05:5D,167.82296752929688,-10.186394691467285,-118.23764038085938,-8.272151947021484,-2.70750093460083,-8.160675048828125,1419.6568398475647
D4:22:CD:00:05:6B,-73.65592193603516,-24.21616554260254,13.501298904418945,24.677135467529297,8.374979019165039,16.216522216796875,1419.6568398475647
D4:22:CD:00:49:AA,-165.3673858642578,-72.99027252197266,78.5313720703125,2.801452159881592,2.287126064300537,2.329387664794922,1419.6568398475647
D4:22:CD:00:05:6E,-32.310054779052734,-84.39105224609375,-129.117431640625,0.5002564191818237,-4.55933952331543,0.5788555145263672,1419.6568398475647
D4:22:CD:00:05:5E,-148.40451049804688,-65.85145568847656,-76.15100860595703,-4.1983184814453125,-0.710885763168335,-0.0952291488647461,1419.6568398475647
D4:22:CD:00:05:5D,167.2332763671875,-14.473331451416016,-123.84181213378906,-12.338790893554688,-7.059808731079102,-9.211370468139648,1419.6875960826874
D4:22:CD:00:05:6B,-62.91775131225586,-45.31529998779297,9.151836395263672,33.911582946777344,18.56908416748047,26.086257934570312,1419.6875960826874
D4:22:CD:00:49:AA,-166.5935821533203,-74.52232360839844,78.28398895263672,-5.041510581970215,0.9759312868118286,-0.37961578369140625,1419.6875960826874
D4:22:CD:00:05:6E,-19.858478546142578,-85.3128662109375,-144.4792022705078,1.3479979038238525,-5.339084625244141,2.1396188735961914,1419.6875960826874
D4:22:CD:00:05:5E,-149.64100646972656,-65.06437683105469,-75.47833251953125,-3.2961273193359375,0.21748816967010498,0.8767929077148438,1419.6875960826874
D4:22:CD:00:05:5D,165.31951904296875,-21.352821350097656,-128.20050048828125,-13.650228500366211,-0.9866201877593994,33.662879943847656,1419.717229127884
D4:22:CD:00:05:6B,-51.67677688598633,-53.369441986083984,0.29285967350006104,16.231170654296875,5.533634185791016,-1.705160140991211,1419.717229127884
D4:22:CD:00:49:AA,-164.56494140625,-74.59431457519531,76.97273254394531,-1.1877076625823975,0.3728153705596924,1.8067703247070312,1419.717229127884
D4:22:CD:00:05:6E,0.29453980922698975,-84.80050659179688,-168.8341827392578,4.520752906799316,-3.972773551940918,5.736517906188965,1419.717229127884
D4:22:CD:00:05:5E,-151.8295135498047,-65.6447982788086,-73.78449249267578,-2.881143569946289,0.44949591159820557,1.2276496887207031,1419.717229127884
D4:22:CD:00:05:5D,166.13507080078125,-22.958112716674805,-127.93128967285156,-32.62379455566406,-11.530572891235352,10.33244514465332,1419.747228384018
D4:22:CD:00:05:6B,-59.67098617553711,-45.11180114746094,2.5111582279205322,12.010412216186523,-0.44266796112060547,17.622676849365234,1419.747228384018
D4:22:CD:00:49:AA,-165.01889038085938,-71.75208282470703,77.88892364501953,3.934715747833252,-1.3404250144958496,7.22209358215332,1419.747228384018
D4:22:CD:00:05:6E,30.404146194458008,-80.6326904296875,157.39234924316406,2.8394365310668945,-4.039782524108887,13.133659362792969,1419.747228384018
D4:22:CD:00:05:5E,-155.12362670898438,-67.41978454589844,-70.46630859375,-3.662412166595459,-0.32595789432525635,0.40425968170166016,1419.747228384018
D4:22:CD:00:05:5D,167.9439239501953,-19.357999801635742,-122.86190795898438,-12.952123641967773,-11.491392135620117,15.711065292358398,1419.807006597519
D4:22:CD:00:05:6B,-58.30739974975586,-32.35683822631836,2.3821449279785156,23.351036071777344,-3.421865463256836,13.736215591430664,1419.807006597519
D4:22:CD:00:49:AA,-167.75830078125,-70.91728210449219,79.37183380126953,-0.15643268823623657,1.0210444927215576,6.1842851638793945,1419.807006597519
D4:22:CD:00:05:6E,53.361454010009766,-71.39466857910156,132.1754913330078,-0.19982510805130005,-3.67537784576416,26.71410369873047,1419.807006597519
D4:22:CD:00:05:5E,-157.87730407714844,-70.03355407714844,-67.77487182617188,-5.746227264404297,-0.992896556854248,0.40441322326660156,1419.807006597519
D4:22:CD:00:05:5D,168.84962463378906,-12.740026473999023,-119.47793579101562,-13.410043716430664,-11.43703842163086,11.75396728515625,1419.836998462677
D4:22:CD:00:05:6B,-60.343589782714844,-19.891765594482422,-0.12423409521579742,16.36856460571289,-7.105766296386719,-0.8772649765014648,1419.836998462677
D4:22:CD:00:49:AA,-169.2800750732422,-71.17656707763672,80.97569274902344,1.6482264995574951,4.845578193664551,5.510424613952637,1419.836998462677
D4:22:CD:00:05:6E,64.86833953857422,-57.40214538574219,118.3329086303711,4.601483345031738,-4.79536247253418,30.821582794189453,1419.836998462677
D4:22:CD:00:05:5E,-158.2703399658203,-73.8930892944336,-68.3209228515625,-5.840741157531738,-0.4687902331352234,2.5705642700195312,1419.836998462677
D4:22:CD:00:05:5D,164.76771545410156,-6.627990245819092,-118.21892547607422,-4.3669586181640625,-7.701677322387695,0.08832931518554688,1419.867463350296
D4:22:CD:00:05:6B,-64.22142028808594,-10.685007095336914,-4.852006912231445,3.6525330543518066,-10.324882507324219,-4.8094024658203125,1419.867463350296
D4:22:CD:00:49:AA,-171.7769775390625,-70.62425994873047,83.45869445800781,5.980319023132324,2.872645378112793,7.146385192871094,1419.867463350296
D4:22:CD:00:05:6E,73.00552368164062,-41.389671325683594,110.30850219726562,4.147092819213867,8.03486442565918,11.393905639648438,1419.867463350296
D4:22:CD:00:05:5E,-153.27896118164062,-79.6139144897461,-74.14424133300781,-2.5856690406799316,-0.4545050859451294,7.659000396728516,1419.867463350296
D4:22:CD:00:05:5D,163.14230346679688,-3.5289552211761475,-118.0923080444336,-0.4860472083091736,-2.2307510375976562,-8.719451904296875,1419.8971259593964
D4:22:CD:00:05:6B,-65.7333984375,-7.1899027824401855,-10.181142807006836,-4.50855827331543,-6.844813346862793,-7.62933349609375,1419.8971259593964
D4:22:CD:00:49:AA,-173.64846801757812,-70.13423156738281,84.65154266357422,5.6236772537231445,1.6438541412353516,3.097414970397949,1419.8971259593964
D4:22:CD:00:05:6E,85.04739379882812,-27.529903411865234,105.90238189697266,2.1936821937561035,2.040769577026367,2.306443214416504,1419.8971259593964
D4:22:CD:00:05:5E,-86.15895080566406,-87.09626770019531,-136.55551147460938,5.766441345214844,-6.273419380187988,7.235210418701172,1419.8971259593964
D4:22:CD:00:05:5D,164.4300079345703,-4.918370246887207,-118.34611511230469,-1.2104136943817139,1.3490309715270996,-14.927305221557617,1419.9274389743805
D4:22:CD:00:05:6B,-69.78865051269531,-8.549115180969238,-14.53203010559082,-6.674306869506836,-1.9490966796875,-6.380770683288574,1419.9274389743805
D4:22:CD:00:49:AA,-175.86151123046875,-69.8192367553711,85.9481201171875,3.09212589263916,0.38629817962646484,-2.303196907043457,1419.9274389743805
D4:22:CD:00:05:6E,93.66980743408203,-16.571805953979492,104.9432601928711,2.6062750816345215,-0.20132705569267273,7.364524841308594,1419.9274389743805
D4:22:CD:00:05:5E,-25.913522720336914,-83.9854965209961,167.7693634033203,-2.0243139266967773,3.1522574424743652,-6.968437194824219,1419.9274389743805
D4:22:CD:00:05:5D,165.08074951171875,-11.559460639953613,-118.5257339477539,-4.7639265060424805,0.06825359165668488,-18.74087905883789,1419.9574401378632
D4:22:CD:00:05:6B,-74.65399932861328,-12.912829399108887,-17.818866729736328,-7.074407577514648,0.23534083366394043,-4.587298393249512,1419.9574401378632
D4:22:CD:00:49:AA,-177.40350341796875,-69.04129791259766,86.79190063476562,1.1306743621826172,-0.4674583077430725,-5.6618757247924805,1419.9574401378632
D4:22:CD:00:05:6E,92.93413543701172,-5.939382076263428,107.18525695800781,-1.6231303215026855,-0.2725268602371216,5.067113876342773,1419.9574401378632
D4:22:CD:00:05:5E,-29.23895835876465,-81.99617004394531,175.1155548095703,-11.822813034057617,7.094561576843262,-9.407211303710938,1419.9574401378632
D4:22:CD:00:05:5D,161.93812561035156,-22.67292594909668,-118.32614135742188,-8.4189453125,-2.1127161979675293,-16.749256134033203,1419.9877231121063
D4:22:CD:00:05:6B,-77.92591094970703,-18.428937911987305,-19.913074493408203,-4.776618957519531,2.270188331604004,-6.0565643310546875,1419.9877231121063
D4:22:CD:00:49:AA,-176.98426818847656,-68.54852294921875,86.31617736816406,0.0834411233663559,0.8660337924957275,-9.41884994506836,1419.9877231121063
D4:22:CD:00:05:6E,83.390380859375,5.070725440979004,109.78117370605469,-9.801189422607422,-2.0794692039489746,-2.256877899169922,1419.9877231121063
D4:22:CD:00:05:5E,-67.9253158569336,-81.50032806396484,-151.1147003173828,0.8654904365539551,-2.12156343460083,-8.563980102539062,1419.9877231121063
D4:22:CD:00:05:5D,156.39413452148438,-36.80671310424805,-116.8880615234375,-6.652024269104004,-5.692541122436523,-13.496559143066406,1420.0177273750305
D4:22:CD:00:05:6B,-82.31299591064453,-22.815690994262695,-20.42403221130371,-3.9614453315734863,1.264448881149292,-7.378575325012207,1420.0177273750305
D4:22:CD:00:49:AA,-177.5001678466797,-69.23684692382812,86.05003356933594,0.3398078680038452,1.380277156829834,-9.404243469238281,1420.0177273750305
D4:22:CD:00:05:6E,68.59331512451172,15.74254322052002,110.40180969238281,-7.8218889236450195,-2.980041980743408,-13.72952651977539,1420.0177273750305
D4:22:CD:00:05:5E,-93.41828155517578,-79.47795104980469,-134.7358856201172,1.9717764854431152,-3.5448250770568848,-9.414697647094727,1420.0177273750305
D4:22:CD:00:05:5D,151.18594360351562,-52.993446350097656,-113.32142639160156,-4.20223331451416,-4.152426719665527,-3.6919422149658203,1420.04701089859
D4:22:CD:00:05:6B,-86.95665740966797,-25.755741119384766,-19.23263931274414,-2.6180577278137207,3.478358745574951,-5.022974014282227,1420.04701089859
D4:22:CD:00:49:AA,-179.124267578125,-71.43484497070312,85.66203308105469,0.7343593835830688,0.38686859607696533,-8.487447738647461,1420.04701089859
D4:22:CD:00:05:6E,57.8604850769043,25.32549285888672,111.39794158935547,6.168808937072754,1.9586079120635986,-15.789623260498047,1420.04701089859
D4:22:CD:00:05:5E,-106.7880859375,-78.61173248291016,-127.80318450927734,-9.578763961791992,3.9096627235412598,1.3677549362182617,1420.04701089859
D4:22:CD:00:05:5D,140.6062469482422,-70.76904296875,-103.210205078125,-1.853078842163086,-8.180076599121094,7.141511917114258,1420.1075677871704
D4:22:CD:00:05:6B,-86.88397979736328,-27.7467041015625,-17.574934005737305,-0.44236016273498535,6.593931198120117,-5.007346153259277,1420.1075677871704
D4:22:CD:00:49:AA,179.60020446777344,-73.47722625732422,84.86876678466797,1.1086230278015137,0.9870463609695435,-9.861940383911133,1420.1075677871704
D4:22:CD:00:05:6E,55.14098358154297,36.230712890625,117.19464111328125,-2.3634848594665527,1.204040288925171,-8.518375396728516,1420.1075677871704
D4:22:CD:00:05:5E,-117.65927124023438,-77.56546783447266,-119.01786804199219,-3.431549549102783,-3.805004596710205,-8.016708374023438,1420.1075677871704
D4:22:CD:00:05:5D,65.25609588623047,-83.51668548583984,-22.6466064453125,14.096796035766602,0.8628828525543213,24.251102447509766,1420.1368639469147
D4:22:CD:00:05:6B,-85.04462432861328,-28.53904151916504,-16.403676986694336,1.4102485179901123,6.585987091064453,-6.339380264282227,1420.1368639469147
D4:22:CD:00:49:AA,179.20773315429688,-75.10234069824219,83.50118255615234,0.8713586330413818,-0.37646812200546265,-3.804490089416504,1420.1368639469147
D4:22:CD:00:05:6E,56.058040618896484,46.47550964355469,131.6402130126953,-1.83486008644104,-1.26570725440979,-19.06131362915039,1420.1368639469147
D4:22:CD:00:05:5E,-126.1139907836914,-74.92211151123047,-111.50927734375,-1.1548521518707275,-4.068051338195801,-1.1632661819458008,1420.1368639469147
D4:22:CD:00:05:5D,27.039196014404297,-74.51689910888672,30.106487274169922,14.965473175048828,23.65021514892578,-6.145739555358887,1420.1668632030487
D4:22:CD:00:05:6B,-83.61949157714844,-29.15978240966797,-15.90121841430664,0.8508687019348145,5.736449241638184,-4.535497665405273,1420.1668632030487
D4:22:CD:00:49:AA,-176.27833557128906,-75.4146728515625,80.07767486572266,0.4001705050468445,-6.679381370544434,-1.4214258193969727,1420.1668632030487
D4:22:CD:00:05:6E,73.05809020996094,50.3846321105957,159.33370971679688,-21.230377197265625,-5.882994651794434,-37.51953125,1420.1668632030487
D4:22:CD:00:05:5E,-133.9722442626953,-71.00086975097656,-106.43191528320312,-6.216543197631836,-7.081526756286621,5.705960273742676,1420.1668632030487
D4:22:CD:00:05:5D,33.99195098876953,-73.09857177734375,24.42147445678711,15.5487060546875,18.14175033569336,-11.687191009521484,1420.197517633438
D4:22:CD:00:05:6B,-82.03316497802734,-30.09500503540039,-15.620536804199219,1.7359468936920166,6.111240386962891,-1.1345720291137695,1420.197517633438
D4:22:CD:00:49:AA,-174.2013397216797,-74.46910095214844,79.49609375,5.514984130859375,-0.08009563386440277,5.441303253173828,1420.197517633438
D4:22:CD:00:05:6E,95.79137420654297,47.724815368652344,178.7611846923828,0.5839985609054565,-4.514803886413574,-16.423484802246094,1420.197517633438
D4:22:CD:00:05:5E,-134.5799102783203,-68.11152648925781,-106.34922790527344,-3.8257312774658203,-0.4380475878715515,7.276042938232422,1420.197517633438
D4:22:CD:00:05:5D,63.463626861572266,-75.14021301269531,-4.176388740539551,14.665746688842773,-1.2579736709594727,6.739482879638672,1420.2266249656677
D4:22:CD:00:05:6B,-80.21675109863281,-31.07317352294922,-16.145166397094727,2.163210868835449,5.304004669189453,1.4894781112670898,1420.2266249656677
D4:22:CD:00:49:AA,-175.0729522705078,-74.33948516845703,79.18209075927734,6.197144508361816,2.6243743896484375,5.978181838989258,1420.2266249656677
D4:22:CD:00:05:6E,121.53884887695312,52.267826080322266,-179.0472412109375,2.3544392585754395,-8.877019882202148,16.27182388305664,1420.2266249656677
D4:22:CD:00:05:5E,-129.97210693359375,-67.13079071044922,-110.58674621582031,-4.714652061462402,-0.7801225185394287,6.205835342407227,1420.2266249656677
D4:22:CD:00:05:5D,91.14765167236328,-74.94823455810547,-28.435470581054688,1.5722901821136475,-10.246389389038086,6.639986038208008,1420.2567608356476
D4:22:CD:00:05:6B,-78.89778900146484,-32.61188507080078,-16.920827865600586,4.43906307220459,1.2852122783660889,6.764884948730469,1420.2567608356476
D4:22:CD:00:49:AA,-173.17428588867188,-73.34525299072266,77.663330078125,5.181042671203613,1.5603139400482178,8.028003692626953,1420.2567608356476
D4:22:CD:00:05:6E,112.10000610351562,59.24870300292969,166.73052978515625,-17.726642608642578,-6.229948997497559,-1.4611577987670898,1420.2567608356476
D4:22:CD:00:05:5E,-121.03790283203125,-67.37152099609375,-118.7487564086914,-5.290783882141113,-4.004116058349609,6.029567718505859,1420.2567608356476
D4:22:CD:00:05:5D,105.75956726074219,-74.95555877685547,-43.59735107421875,5.051456451416016,-1.6290311813354492,1.9912948608398438,1420.2869045734406
D4:22:CD:00:05:6B,-80.1348648071289,-34.48643112182617,-15.376864433288574,6.907812118530273,1.7886195182800293,11.869424819946289,1420.2869045734406
D4:22:CD:00:49:AA,-171.93499755859375,-72.88319396972656,78.4034652709961,2.074791431427002,0.257632851600647,4.920205116271973,1420.2869045734406
D4:22:CD:00:05:6E,71.47794342041016,63.148311614990234,129.1222381591797,-2.409334659576416,-6.48590087890625,-24.260257720947266,1420.2869045734406
D4:22:CD:00:05:5E,-101.5047607421875,-68.30302429199219,-133.8804931640625,-0.9351372718811035,-5.148139953613281,0.7139739990234375,1420.2869045734406
D4:22:CD:00:05:5D,120.31874084472656,-75.28208923339844,-57.471595764160156,-2.2443885803222656,5.873726844787598,0.8539772033691406,1420.316513299942
D4:22:CD:00:05:6B,-80.53170013427734,-35.27242660522461,-12.471095085144043,8.77578353881836,1.783215045928955,9.717828750610352,1420.316513299942
D4:22:CD:00:49:AA,-171.45401000976562,-72.33206939697266,80.37020874023438,-0.740021824836731,0.8997491598129272,-1.3408899307250977,1420.316513299942
D4:22:CD:00:05:6E,50.41592025756836,54.0475959777832,99.33639526367188,-9.264030456542969,-6.781916618347168,-8.630411148071289,1420.316513299942
D4:22:CD:00:05:5E,-86.41907501220703,-66.48175811767578,-141.24514770507812,-11.904434204101562,0.10006161034107208,-5.112671852111816,1420.316513299942
D4:22:CD:00:05:5D,131.6981201171875,-76.45352935791016,-68.67207336425781,-3.662032127380371,0.6793099641799927,1.9742717742919922,1420.3477342128754
D4:22:CD:00:05:6B,-81.25808715820312,-33.72677230834961,-8.986835479736328,7.205789566040039,-1.4052081108093262,0.8218507766723633,1420.3477342128754
D4:22:CD:00:49:AA,-170.9061737060547,-70.0529556274414,83.43202209472656,-5.251657485961914,-1.2727100849151611,-3.1290416717529297,1420.3477342128754
D4:22:CD:00:05:6E,41.32524490356445,38.588253021240234,83.90565490722656,-2.7875590324401855,-4.015772819519043,-10.352367401123047,1420.3477342128754
D4:22:CD:00:05:5E,-82.32604217529297,-64.2021713256836,-134.608642578125,-33.646156311035156,5.932709693908691,-4.7063798904418945,1420.3477342128754
D4:22:CD:00:05:5D,144.07598876953125,-76.93170928955078,-77.8380355834961,0.7709470987319946,-4.427216529846191,4.267353057861328,1420.4068908691406
D4:22:CD:00:05:6B,-83.5437240600586,-30.612300872802734,-5.577417850494385,4.2812910079956055,-0.6999588012695312,-2.0775747299194336,1420.4068908691406
D4:22:CD:00:49:AA,-170.83657836914062,-67.43082427978516,88.02742004394531,-4.986772537231445,-0.5582762956619263,-1.5576772689819336,1420.4068908691406
D4:22:CD:00:05:6E,41.768348693847656,22.29842758178711,74.3632583618164,10.667848587036133,-0.018366504460573196,-7.076364517211914,1420.4068908691406
D4:22:CD:00:05:5E,-94.98316955566406,-61.55546188354492,-114.07880401611328,-21.713642120361328,-4.746090888977051,-3.261258125305176,1420.4068908691406
D4:22:CD:00:05:5D,157.78085327148438,-76.904052734375,-88.59748840332031,-2.6904296875,2.2788825035095215,1.1157407760620117,1420.4368977546692
D4:22:CD:00:05:6B,-84.59735870361328,-27.704988479614258,-3.4087202548980713,1.6233947277069092,-1.472167730331421,-5.172477722167969,1420.4368977546692
D4:22:CD:00:49:AA,-173.6254425048828,-66.76009368896484,92.80148315429688,-0.07304134964942932,0.662310004234314,0.6330146789550781,1420.4368977546692
D4:22:CD:00:05:6E,47.598182678222656,9.498419761657715,65.12920379638672,6.270474433898926,3.4568371772766113,4.4395599365234375,1420.4368977546692
D4:22:CD:00:05:5E,-109.4662857055664,-58.43466567993164,-93.53939056396484,-7.193294525146484,-8.717166900634766,-8.61562728881836,1420.4368977546692
D4:22:CD:00:05:5D,166.7196502685547,-76.45215606689453,-98.0013198852539,1.5735256671905518,-0.6532444953918457,0.008213043212890625,1420.4669942855835
D4:22:CD:00:05:6B,-85.70488739013672,-26.548837661743164,-2.2641866207122803,-0.3581542372703552,-1.5176897048950195,-4.920495986938477,1420.4669942855835
D4:22:CD:00:49:AA,-175.73971557617188,-66.45018005371094,95.69465637207031,-1.1222703456878662,0.8551031351089478,0.46556663513183594,1420.4669942855835
D4:22:CD:00:05:6E,49.66922378540039,0.3610837459564209,57.822715759277344,17.3597412109375,-5.842019081115723,0.2247314453125,1420.4669942855835
D4:22:CD:00:05:5E,-120.49909973144531,-56.20057678222656,-77.90861511230469,-0.679507851600647,-5.992245674133301,-11.08416748046875,1420.4669942855835
D4:22:CD:00:05:5D,173.38243103027344,-75.62581634521484,-104.29704284667969,2.2376089096069336,-2.088927745819092,-0.22219467163085938,1420.4966711997986
D4:22:CD:00:05:6B,-86.31507110595703,-27.392019271850586,-2.5823230743408203,-0.3638991713523865,-0.7925868034362793,-2.7568068504333496,1420.4966711997986
D4:22:CD:00:49:AA,-177.4562530517578,-66.00765228271484,99.63831329345703,-4.132081031799316,2.489656925201416,-0.60296630859375,1420.4966711997986
D4:22:CD:00:05:6E,56.27077865600586,-6.908685207366943,55.9427604675293,7.865157127380371,-2.73465633392334,-11.196203231811523,1420.4966711997986
D4:22:CD:00:05:5E,-130.08348083496094,-54.875953674316406,-65.06706237792969,-1.9727668762207031,-0.10030391812324524,-10.609769821166992,1420.4966711997986
D4:22:CD:00:05:5D,178.095458984375,-74.56600189208984,-107.43968200683594,0.7967277765274048,-0.19431501626968384,0.04779815673828125,1420.5267679691315
D4:22:CD:00:05:6B,-86.53770446777344,-29.007598876953125,-4.0030293464660645,-0.2257128357887268,-0.4882015585899353,-2.511173725128174,1420.5267679691315
D4:22:CD:00:49:AA,-179.10231018066406,-65.85591125488281,103.63835906982422,-1.7958877086639404,0.1948990523815155,-1.5168933868408203,1420.5267679691315
D4:22:CD:00:05:6E,61.17343521118164,-13.649619102478027,55.03517532348633,-13.651657104492188,4.368373870849609,9.12546157836914,1420.5267679691315
D4:22:CD:00:05:5E,-141.32150268554688,-53.33644485473633,-53.28902053833008,-3.3299636840820312,4.178765296936035,-7.531822204589844,1420.5267679691315
D4:22:CD:00:05:5D,-178.7122344970703,-73.61223602294922,-109.5934829711914,-0.6715902090072632,0.1584150195121765,-0.12650680541992188,1420.5567715168
D4:22:CD:00:05:6B,-87.03595733642578,-30.18231964111328,-5.5961809158325195,-1.2069110870361328,2.2283854484558105,0.35094642639160156,1420.5567715168
D4:22:CD:00:49:AA,178.59849548339844,-65.67525482177734,107.22282409667969,0.587539553642273,1.2009942531585693,-1.3907575607299805,1420.5567715168
D4:22:CD:00:05:6E,59.6445198059082,-19.017391204833984,52.54197692871094,-1.0949969291687012,-2.8053627014160156,-2.5667810440063477,1420.5567715168
D4:22:CD:00:05:5E,-153.58273315429688,-51.097389221191406,-43.09346008300781,-3.475709915161133,3.309629440307617,-3.9093141555786133,1420.5567715168
D4:22:CD:00:05:5D,-176.02285766601562,-72.43012237548828,-111.4716796875,-0.11411632597446442,-1.0783798694610596,-0.14812088012695312,1420.5867393016815
D4:22:CD:00:05:6B,-86.0482406616211,-31.167404174804688,-7.280484676361084,-1.0210230350494385,2.7221450805664062,-0.1596670150756836,1420.5867393016815
D4:22:CD:00:49:AA,174.53466796875,-65.56526947021484,111.24742889404297,1.117152452468872,1.110541820526123,-1.4653139114379883,1420.5867393016815
D4:22:CD:00:05:6E,64.16706085205078,-24.57977294921875,50.037322998046875,-0.7044805288314819,-0.9748436212539673,-7.739145278930664,1420.5867393016815
D4:22:CD:00:05:5E,-164.98385620117188,-48.93682098388672,-34.831947326660156,-0.8554297685623169,1.3067810535430908,-1.629079818725586,1420.5867393016815
D4:22:CD:00:05:5D,-174.6024169921875,-70.6268539428711,-112.41802215576172,-0.24186894297599792,-1.6977195739746094,0.003284454345703125,1420.6174161434174
D4:22:CD:00:05:6B,-85.11367797851562,-31.675901412963867,-8.747428894042969,-0.8085659742355347,2.4242568016052246,-0.45849132537841797,1420.6174161434174
D4:22:CD:00:49:AA,168.6217041015625,-66.1212158203125,115.72813415527344,0.3363657593727112,0.49731677770614624,-2.8992390632629395,1420.6174161434174
D4:22:CD:00:05:6E,71.6539535522461,-32.87128829956055,47.757450103759766,-2.599142074584961,0.8020836114883423,-2.880185604095459,1420.6174161434174
D4:22:CD:00:05:5E,-171.7942352294922,-48.78673553466797,-28.125207901000977,6.375156402587891,1.317420244216919,-3.720918655395508,1420.6174161434174
D4:22:CD:00:05:5D,-175.63693237304688,-67.93998718261719,-111.308837890625,0.6893268823623657,-1.783658504486084,-1.1830215454101562,1420.6468317508698
D4:22:CD:00:05:6B,-83.11276245117188,-31.512529373168945,-10.173035621643066,-1.133993148803711,3.298676013946533,0.277496337890625,1420.6468317508698
D4:22:CD:00:49:AA,161.90625,-67.06300354003906,120.82131958007812,-2.052680492401123,1.3813018798828125,-3.4596986770629883,1420.6468317508698
D4:22:CD:00:05:6E,71.82257843017578,-46.02790451049805,47.63093185424805,0.7429996728897095,2.2060580253601074,6.543035507202148,1420.6468317508698
D4:22:CD:00:05:5E,-171.65216064453125,-53.33601379394531,-22.191150665283203,5.709083557128906,7.416073799133301,-0.9597873687744141,1420.6468317508698
D4:22:CD:00:05:5D,-177.8843231201172,-64.3193588256836,-108.76510620117188,0.8949609994888306,-1.9608376026153564,-0.25815582275390625,1420.7071769237518
D4:22:CD:00:05:6B,-78.7703628540039,-29.913776397705078,-12.152308464050293,0.5815818309783936,6.328766822814941,3.963285446166992,1420.7071769237518
D4:22:CD:00:49:AA,155.9794158935547,-68.63396453857422,126.1465072631836,-1.702577829360962,0.17151018977165222,-1.629547119140625,1420.7071769237518
D4:22:CD:00:05:6E,59.70454788208008,-62.81479263305664,55.257728576660156,9.529607772827148,5.117531776428223,25.936424255371094,1420.7071769237518
D4:22:CD:00:05:5E,-172.49298095703125,-56.13275909423828,-19.97943115234375,16.10590362548828,-9.480392456054688,4.712278366088867,1420.7071769237518
D4:22:CD:00:05:5D,179.02542114257812,-60.11042785644531,-105.27835083007812,-1.107874870300293,-2.0671000480651855,0.18078136444091797,1420.7375197410583
D4:22:CD:00:05:6B,-73.027099609375,-26.09613609313965,-16.09847640991211,4.601434707641602,4.44584846496582,0.7878217697143555,1420.7375197410583
D4:22:CD:00:49:AA,149.20164489746094,-70.06364440917969,133.44630432128906,0.09877975285053253,2.9671125411987305,-2.7450690269470215,1420.7375197410583
D4:22:CD:00:05:6E,44.233184814453125,-73.47593688964844,74.94696807861328,0.03527458757162094,10.915243148803711,24.320266723632812,1420.7375197410583
D4:22:CD:00:05:5E,-176.18959045410156,-58.6768798828125,-20.261428833007812,12.310932159423828,-4.134392738342285,12.868314743041992,1420.7375197410583
D4:22:CD:00:05:5D,177.11004638671875,-55.742252349853516,-101.07196807861328,-3.087550163269043,3.5222225189208984,-3.7168960571289062,1420.766702413559
D4:22:CD:00:05:6B,-68.6976318359375,-19.541242599487305,-22.735559463500977,5.99018669128418,3.796238899230957,4.763608932495117,1420.766702413559
D4:22:CD:00:49:AA,143.09814453125,-70.2889175415039,139.63076782226562,-2.8462677001953125,2.071061611175537,4.261181831359863,1420.766702413559
D4:22:CD:00:05:6E,68.90669250488281,-70.19062805175781,62.94776153564453,12.574638366699219,-0.4185938239097595,3.410247802734375,1420.766702413559
D4:22:CD:00:05:5E,-178.0689697265625,-59.98550796508789,-19.986507415771484,9.45700454711914,-0.7988476753234863,16.010009765625,1420.766702413559
D4:22:CD:00:05:5D,175.9422607421875,-52.43484878540039,-97.12863159179688,-1.1467022895812988,1.7506718635559082,2.6149368286132812,1420.7973482608795
D4:22:CD:00:05:6B,-66.49605560302734,-10.391074180603027,-31.013307571411133,4.744881629943848,8.326845169067383,10.860319137573242,1420.7973482608795
D4:22:CD:00:49:AA,142.08238220214844,-69.74149322509766,141.23973083496094,-2.66115140914917,0.08712981641292572,14.07801628112793,1420.7973482608795
D4:22:CD:00:05:6E,89.47331237792969,-58.14242172241211,52.736244201660156,-3.409780979156494,5.634903907775879,15.823373794555664,1420.7973482608795
D4:22:CD:00:05:5E,-177.17666625976562,-58.770896911621094,-21.244338989257812,5.4956512451171875,-10.268562316894531,12.596118927001953,1420.7973482608795
D4:22:CD:00:05:5D,176.3681640625,-50.72819900512695,-95.14617156982422,2.335728168487549,2.469348430633545,2.0646848678588867,1420.8275001049042
D4:22:CD:00:05:6B,-64.55233764648438,0.6617406010627747,-37.36557388305664,5.424892425537109,13.107040405273438,21.611347198486328,1420.8275001049042
D4:22:CD:00:49:AA,142.50283813476562,-69.4417724609375,141.36212158203125,-3.1164255142211914,-1.037362813949585,9.323444366455078,1420.8275001049042
D4:22:CD:00:05:6E,94.10501861572266,-46.4943733215332,50.60686111450195,10.630231857299805,13.12407112121582,11.830318450927734,1420.8275001049042
D4:22:CD:00:05:5E,-173.60667419433594,-56.376182556152344,-24.50835609436035,9.400886535644531,-7.35649299621582,13.221603393554688,1420.8275001049042
