Device,EulerX,EulerY,EulerZ,FreeAccX,FreeAccY,FreeAccZ,Timestamp
D4:22:CD:00:05:5D,170.8651885986328,-74.12098693847656,-126.95948791503906,1.0670604705810547,2.7842798233032227,0.45468807220458984,1435.2805471420288
D4:22:CD:00:05:6B,20.143604278564453,11.769560813903809,-33.055198669433594,-0.18099331855773926,-5.714041709899902,-2.197021961212158,1435.2805471420288
D4:22:CD:00:49:AA,170.9815673828125,-77.6306381225586,127.81734466552734,0.24755415320396423,0.9071332216262817,-10.851337432861328,1435.2805471420288
D4:22:CD:00:05:6E,160.11138916015625,-67.15463256835938,45.85088348388672,1.5926363468170166,-8.3931884765625,-8.937662124633789,1435.2805471420288
D4:22:CD:00:05:5E,-149.50328063964844,-51.34505844116211,-77.26567077636719,9.687896728515625,8.683391571044922,-9.224956512451172,1435.2805471420288
D4:22:CD:00:05:5D,165.74331665039062,-73.20040893554688,-116.44213104248047,12.053716659545898,4.49249267578125,-1.7833356857299805,1435.2915618419647
D4:22:CD:00:05:6B,32.32200241088867,16.72477912902832,-37.64952087402344,-0.7612316608428955,-4.437191963195801,-5.706043243408203,1435.2915618419647
D4:22:CD:00:49:AA,175.456787109375,-78.93460845947266,124.80374145507812,3.4192609786987305,1.7946805953979492,-9.641868591308594,1435.2915618419647
D4:22:CD:00:05:6E,170.72560119628906,-67.82225799560547,39.55027389526367,5.743082046508789,-7.924221992492676,-6.058304786682129,1435.2915618419647
D4:22:CD:00:05:5E,-135.91567993164062,-55.32565689086914,-91.60240173339844,4.408566474914551,6.981839179992676,-10.671346664428711,1435.2915618419647
D4:22:CD:00:05:6E,173.86273193359375,-67.8674545288086,34.743560791015625,10.007333755493164,-0.4022524356842041,-5.072643280029297,1435.3049626350403
D4:22:CD:00:05:5E,-121.22076416015625,-57.6723747253418,-108.66573333740234,-3.4952354431152344,2.1046252250671387,-8.822988510131836,1435.3049626350403
D4:22:CD:00:05:5D,-86.03875732421875,-79.61143493652344,143.2789306640625,0.16695433855056763,-1.7455558776855469,-1.000955581665039,1435.3100564479828
D4:22:CD:00:05:6B,-102.19075775146484,-44.31093215942383,-73.60020446777344,-0.7971601486206055,0.32127976417541504,-4.426375389099121,1435.3100564479828
D4:22:CD:00:05:6E,174.21884155273438,-68.08246612548828,34.51072692871094,8.755575180053711,7.0039777755737305,-4.3105010986328125,1435.3100564479828
D4:22:CD:00:05:5E,-107.82762145996094,-58.62482452392578,-127.15259552001953,-13.07162857055664,-2.1295790672302246,-8.190338134765625,1435.3100564479828
D4:22:CD:00:05:5D,-152.0731658935547,-81.62232208251953,-129.9094696044922,1.1572351455688477,3.4646010398864746,-1.1277761459350586,1435.3186647891998
D4:22:CD:00:05:6B,-101.72945404052734,-44.963619232177734,-82.47895812988281,3.083280563354492,-2.5856518745422363,-8.343866348266602,1435.3186647891998
D4:22:CD:00:49:AA,123.37787628173828,-81.23084259033203,166.8498992919922,-1.092578649520874,0.516555666923523,-3.617767810821533,1435.3186647891998
D4:22:CD:00:05:6E,11.611879348754883,-75.40304565429688,97.83582305908203,4.625715255737305,-0.7114810943603516,1.4230108261108398,1435.3186647891998
D4:22:CD:00:05:5D,-174.10191345214844,-75.83403778076172,-104.64585876464844,2.380518913269043,7.31337833404541,-4.494844436645508,1435.3476679325104
D4:22:CD:00:05:6B,-98.2243881225586,-46.86964797973633,-93.4609375,6.756755828857422,-0.14357566833496094,-1.401681900024414,1435.3476679325104
D4:22:CD:00:49:AA,119.34149169921875,-82.93109130859375,170.6831512451172,0.16916710138320923,-0.4464903473854065,2.0128164291381836,1435.3476679325104
D4:22:CD:00:05:6E,-0.99800044298172,-74.83763885498047,110.47168731689453,16.089073181152344,2.48553466796875,3.7060022354125977,1435.3476679325104
D4:22:CD:00:05:5E,-57.022247314453125,-88.41119384765625,-144.88922119140625,-3.469161033630371,4.195452690124512,18.699508666992188,1435.3476679325104
D4:22:CD:00:05:5D,-178.29258728027344,-69.66044616699219,-97.90818786621094,4.836342811584473,4.487364768981934,1.3948888778686523,1435.3771107196808
D4:22:CD:00:05:6B,-91.98536682128906,-44.22071075439453,-107.83836364746094,6.194127082824707,-0.33074331283569336,5.779796600341797,1435.3771107196808
D4:22:CD:00:49:AA,130.59088134765625,-82.6589126586914,160.0989227294922,1.1926772594451904,-4.037535667419434,8.558008193969727,1435.3771107196808
D4:22:CD:00:05:6E,-34.3701171875,-64.91516876220703,153.6527099609375,-2.9522171020507812,7.740540504455566,7.263010025024414,1435.3771107196808
D4:22:CD:00:05:5E,-154.3678741455078,-82.46988677978516,-48.06829071044922,-1.882749319076538,3.230689525604248,20.05895233154297,1435.3771107196808
D4:22:CD:00:05:5D,-178.34814453125,-65.0459976196289,-96.6021728515625,-2.87380313873291,4.260819435119629,0.6457357406616211,1435.40713429451
D4:22:CD:00:05:6B,-86.11170196533203,-37.49885940551758,-120.47058868408203,10.193429946899414,1.6350758075714111,11.857261657714844,1435.40713429451
D4:22:CD:00:49:AA,148.11805725097656,-80.33847045898438,142.90928649902344,2.6567821502685547,-3.050995349884033,10.524168014526367,1435.40713429451
D4:22:CD:00:05:6E,-38.213741302490234,-65.11402130126953,166.89051818847656,-12.339582443237305,5.720949172973633,8.788108825683594,1435.40713429451
D4:22:CD:00:05:5E,-154.71539306640625,-72.29414367675781,-50.1521110534668,1.3283138275146484,-4.057745933532715,12.289619445800781,1435.40713429451
D4:22:CD:00:05:5D,-177.09190368652344,-62.14264678955078,-96.8283462524414,-1.4582090377807617,4.023628234863281,0.6840801239013672,1435.4667868614197
D4:22:CD:00:05:6B,-82.91729736328125,-26.545595169067383,-127.91912078857422,21.181758880615234,2.8461647033691406,19.423904418945312,1435.4667868614197
D4:22:CD:00:49:AA,159.4883270263672,-78.1751480102539,132.1946258544922,1.7373285293579102,-2.334014892578125,9.200742721557617,1435.4667868614197
D4:22:CD:00:05:6E,-43.99184799194336,-72.02445983886719,177.1706085205078,-9.401309967041016,2.8411402702331543,13.022281646728516,1435.4667868614197
D4:22:CD:00:05:5E,-163.7702178955078,-70.45143127441406,-45.22918701171875,-2.55123233795166,-4.908449172973633,7.654949188232422,1435.4667868614197
D4:22:CD:00:05:5D,-174.81854248046875,-60.99555587768555,-98.95276641845703,-3.0526843070983887,4.238032341003418,2.3778905868530273,1435.4968566894531
D4:22:CD:00:05:6B,-76.47171020507812,-9.795315742492676,-129.71815490722656,18.879520416259766,-2.290919303894043,22.719768524169922,1435.4968566894531
D4:22:CD:00:49:AA,169.03150939941406,-75.55138397216797,123.5690689086914,0.6862008571624756,0.05214221775531769,8.618392944335938,1435.4968566894531
D4:22:CD:00:05:6E,-54.13881301879883,-76.27310943603516,-168.17428588867188,-10.000043869018555,-0.6496126651763916,9.16584587097168,1435.4968566894531
D4:22:CD:00:05:5E,-172.55233764648438,-73.30321502685547,-38.11520004272461,2.2750115394592285,4.0780181884765625,4.217929840087891,1435.4968566894531
D4:22:CD:00:05:5D,-172.96786499023438,-61.544124603271484,-100.9541244506836,-2.1517105102539062,3.4733028411865234,3.103837013244629,1435.5274496078491
D4:22:CD:00:05:6B,-62.46476364135742,8.867789268493652,-126.23941040039062,4.855417251586914,-5.660261154174805,17.27478790283203,1435.5274496078491
D4:22:CD:00:49:AA,174.19403076171875,-73.48078155517578,118.8778305053711,-2.9238572120666504,-1.918907880783081,8.40113639831543,1435.5274496078491
D4:22:CD:00:05:6E,-72.62744903564453,-75.38819122314453,-144.19091796875,-16.822982788085938,-6.32359504699707,1.5230426788330078,1435.5274496078491
D4:22:CD:00:05:5E,-175.5484619140625,-78.82012176513672,-35.376773834228516,-0.13367587327957153,1.1342687606811523,-2.497598648071289,1435.5274496078491
D4:22:CD:00:05:5D,-171.2763671875,-63.689300537109375,-103.10254669189453,-0.7784173488616943,2.3283023834228516,2.9745407104492188,1435.5568554401398
D4:22:CD:00:05:6B,-42.717979431152344,22.79448127746582,-118.078125,-0.37374943494796753,1.0186355113983154,8.19240951538086,1435.5568554401398
D4:22:CD:00:49:AA,178.09523010253906,-72.79476165771484,116.22584533691406,-4.52849006652832,0.73729407787323,2.138430595397949,1435.5568554401398
D4:22:CD:00:05:6E,-87.22867584228516,-69.94305419921875,-125.51373291015625,-8.902515411376953,-13.619184494018555,-1.6348485946655273,1435.5568554401398
D4:22:CD:00:05:5E,165.93910217285156,-86.54554748535156,-18.213014602661133,3.857823371887207,1.7274439334869385,-6.812609672546387,1435.5568554401398
D4:22:CD:00:05:5D,-169.31265258789062,-67.0181884765625,-105.3778076171875,-4.08355712890625,0.6196573972702026,5.033105850219727,1435.5868470668793
D4:22:CD:00:05:6B,-21.40155792236328,30.2161808013916,-108.31082916259766,-8.724977493286133,4.171445846557617,6.671930313110352,1435.5868470668793
D4:22:CD:00:49:AA,-174.3931427001953,-71.85602569580078,111.1421890258789,0.1287664771080017,-0.47890937328338623,-2.892190933227539,1435.5868470668793
D4:22:CD:00:05:6E,-89.04913330078125,-63.3863410949707,-118.08346557617188,-5.328923225402832,-11.433286666870117,-3.3698840141296387,1435.5868470668793
D4:22:CD:00:05:5E,18.200218200683594,-82.7213134765625,128.2952423095703,5.879216194152832,3.006463050842285,-6.065324783325195,1435.5868470668793
D4:22:CD:00:05:5D,-167.38125610351562,-72.47728729248047,-112.3642578125,-7.148985862731934,-7.711987495422363,1.9317588806152344,1435.616928577423
D4:22:CD:00:05:6B,0.5041945576667786,34.6603889465332,-101.83673095703125,-15.419355392456055,1.2077250480651855,-1.5704708099365234,1435.616928577423
D4:22:CD:00:49:AA,-165.76991271972656,-70.12191772460938,105.0291976928711,1.464148998260498,2.0320262908935547,-7.022051811218262,1435.616928577423
D4:22:CD:00:05:6E,-89.80062866210938,-58.34270477294922,-114.7052993774414,-3.4121479988098145,-10.71514892578125,-7.487235069274902,1435.616928577423
D4:22:CD:00:05:5E,8.874938011169434,-70.7633285522461,135.7002410888672,1.559598684310913,5.592907905578613,-3.3600735664367676,1435.616928577423
D4:22:CD:00:05:5D,-175.05197143554688,-75.18513488769531,-105.15937042236328,2.1091275215148926,-0.07810643315315247,-4.690735816955566,1435.6470715999603
D4:22:CD:00:05:6B,20.646774291992188,39.531837463378906,-98.86267852783203,-6.293312072753906,-0.11003589630126953,-6.259163856506348,1435.6470715999603
D4:22:CD:00:49:AA,-160.31765747070312,-68.5858154296875,100.72757720947266,1.565483808517456,3.785165786743164,-10.05324935913086,1435.6470715999603
D4:22:CD:00:05:6E,-86.79695129394531,-56.85222625732422,-113.96085357666016,-2.2192749977111816,-6.85871696472168,-8.35624885559082,1435.6470715999603
D4:22:CD:00:05:5E,4.01511812210083,-58.30375289916992,137.55776977539062,-7.536608695983887,7.321494102478027,-3.071619987487793,1435.6470715999603
D4:22:CD:00:05:5D,174.42471313476562,-76.27581024169922,-93.25199890136719,1.9209914207458496,4.85622501373291,-10.586536407470703,1435.6771531105042
D4:22:CD:00:05:6B,36.08864212036133,45.17893600463867,-98.82252502441406,-8.064935684204102,-3.5311622619628906,-6.242727279663086,1435.6771531105042
D4:22:CD:00:49:AA,-157.68540954589844,-68.71580505371094,99.47610473632812,-0.9659279584884644,2.2750539779663086,-7.7355852127075195,1435.6771531105042
D4:22:CD:00:05:6E,-77.24137878417969,-58.065467834472656,-115.55699157714844,0.3313388228416443,-1.0873050689697266,-7.194191932678223,1435.6771531105042
D4:22:CD:00:05:5E,-1.4118708372116089,-47.36931228637695,137.956298828125,-13.991260528564453,11.531375885009766,-4.978421211242676,1435.6771531105042
D4:22:CD:00:05:5D,163.370361328125,-79.37299346923828,-81.71634674072266,7.622040748596191,4.850564956665039,-17.163475036621094,1435.7071642875671
D4:22:CD:00:05:6B,47.862586975097656,53.1661262512207,-104.37679290771484,-4.051165580749512,-3.3931798934936523,-9.795255661010742,1435.7071642875671
D4:22:CD:00:49:AA,-154.90016174316406,-70.9712905883789,98.70346069335938,-4.092129707336426,-1.0718727111816406,-7.1304521560668945,1435.7071642875671
D4:22:CD:00:05:6E,-59.74440383911133,-59.466976165771484,-120.26139831542969,-1.3317956924438477,-0.2072550356388092,-7.489975929260254,1435.7071642875671
D4:22:CD:00:05:5E,-8.172090530395508,-39.134803771972656,139.8961944580078,-16.65520477294922,11.254484176635742,-9.643861770629883,1435.7071642875671
D4:22:CD:00:05:5D,164.17311096191406,-80.02149200439453,-76.00379180908203,-0.031225651502609253,-3.4878268241882324,6.418474197387695,1435.7671031951904
D4:22:CD:00:05:6B,44.975093841552734,60.73529815673828,-119.47626495361328,1.8515040874481201,-6.423277854919434,-11.432744979858398,1435.7671031951904
D4:22:CD:00:49:AA,-148.98171997070312,-72.24406433105469,96.15876007080078,-0.34615540504455566,-3.641737461090088,-2.012063503265381,1435.7671031951904
D4:22:CD:00:05:6E,-37.99711608886719,-59.21926498413086,-126.87071228027344,-2.8185243606567383,-1.9576752185821533,-7.451423645019531,1435.7671031951904
D4:22:CD:00:05:5E,-13.317606925964355,-35.16264343261719,141.49176025390625,-14.619050979614258,11.308464050292969,-18.581478118896484,1435.7671031951904
D4:22:CD:00:05:5D,165.51710510253906,-79.7037124633789,-75.75904846191406,-0.13452082872390747,-2.8262319564819336,3.12686824798584,1435.7971057891846
D4:22:CD:00:05:6B,17.08623695373535,62.15525436401367,-147.48602294921875,-0.10783171653747559,-5.842365264892578,-18.842647552490234,1435.7971057891846
D4:22:CD:00:49:AA,-149.44564819335938,-72.83967590332031,97.48780822753906,4.1480817794799805,3.567441463470459,2.5844907760620117,1435.7971057891846
D4:22:CD:00:05:6E,-18.870845794677734,-57.344303131103516,-131.26113891601562,-5.352961540222168,-6.548087120056152,-6.669919013977051,1435.7971057891846
D4:22:CD:00:05:5E,-14.45582389831543,-37.29381561279297,143.95875549316406,-16.08694076538086,4.353236198425293,-22.025482177734375,1435.7971057891846
D4:22:CD:00:05:5D,164.11671447753906,-78.03273010253906,-73.2882308959961,0.6654717922210693,-2.969285011291504,3.392056465148926,1435.8269138336182
D4:22:CD:00:05:6B,-16.485013961791992,56.07339096069336,-172.62466430664062,-14.608833312988281,1.7354354858398438,-26.913772583007812,1435.8269138336182
D4:22:CD:00:49:AA,-155.167724609375,-74.25645446777344,100.95024108886719,0.2742677927017212,-1.6699354648590088,3.880122184753418,1435.8269138336182
D4:22:CD:00:05:6E,-8.545649528503418,-55.39716339111328,-131.1850128173828,-0.6941310167312622,-11.921651840209961,-5.509189605712891,1435.8269138336182
D4:22:CD:00:05:5E,-25.343547821044922,-45.869754791259766,150.59693908691406,-15.667823791503906,6.981801986694336,-18.508743286132812,1435.8269138336182
D4:22:CD:00:05:5D,160.31155395507812,-75.45186614990234,-67.71574401855469,1.1587731838226318,-1.9825797080993652,2.9226255416870117,1435.8569920063019
D4:22:CD:00:05:6B,-42.573734283447266,49.795982360839844,173.75048828125,0.929402232170105,4.334994316101074,-18.50255584716797,1435.8569920063019
D4:22:CD:00:49:AA,-160.0731964111328,-75.08413696289062,103.84941864013672,-4.507070541381836,-2.3828868865966797,2.793978691101074,1435.8569920063019
D4:22:CD:00:05:6E,-9.73128890991211,-54.519718170166016,-127.1817855834961,3.2630538940429688,-10.492630004882812,-3.0503334999084473,1435.8569920063019
D4:22:CD:00:05:5E,-36.899681091308594,-52.726924896240234,157.99949645996094,-0.07940542697906494,-2.820415496826172,3.0451231002807617,1435.8569920063019
D4:22:CD:00:05:5D,155.32330322265625,-72.7693862915039,-61.953102111816406,-0.47048670053482056,0.9342403411865234,1.2001056671142578,1435.8869128227234
D4:22:CD:00:05:6B,-58.11552047729492,48.728065490722656,172.46815490722656,4.563104629516602,4.593453407287598,-7.745749473571777,1435.8869128227234
D4:22:CD:00:49:AA,-161.01315307617188,-76.07223510742188,103.83995056152344,-3.467855453491211,-0.4756011366844177,1.0030593872070312,1435.8869128227234
D4:22:CD:00:05:6E,-19.88359832763672,-55.414276123046875,-120.38340759277344,6.285508155822754,-7.855317115783691,-1.4630889892578125,1435.8869128227234
D4:22:CD:00:05:5E,-36.39605712890625,-56.07910919189453,160.27365112304688,-2.90999174118042,-12.520563125610352,4.528143882751465,1435.8869128227234
D4:22:CD:00:05:5D,150.52780151367188,-71.14240264892578,-57.411865234375,0.5206246376037598,4.341590881347656,-0.0049152374267578125,1435.9167220592499
D4:22:CD:00:05:6B,-54.148414611816406,52.41693115234375,179.08364868164062,-10.536495208740234,8.353523254394531,-1.6104421615600586,1435.9167220592499
D4:22:CD:00:49:AA,-160.6910400390625,-77.32998657226562,102.85218048095703,-1.335925817489624,0.17342281341552734,0.33177947998046875,1435.9167220592499
D4:22:CD:00:05:6E,-34.399593353271484,-57.67765426635742,-113.78041076660156,6.793509483337402,-8.060190200805664,-2.696720600128174,1435.9167220592499
D4:22:CD:00:05:5E,-35.18956756591797,-59.47568893432617,159.03392028808594,-6.764025688171387,3.706590175628662,3.065631866455078,1435.9167220592499
D4:22:CD:00:05:5D,144.46311950683594,-71.21310424804688,-52.57030487060547,-0.17489218711853027,2.040055274963379,1.4112071990966797,1435.947021484375
D4:22:CD:00:05:6B,-38.979000091552734,57.28483581542969,-164.074462890625,-4.69708251953125,1.6665315628051758,-20.189559936523438,1435.947021484375
D4:22:CD:00:49:AA,-162.4425811767578,-77.8789291381836,103.40988159179688,0.7293910980224609,-1.0595335960388184,-0.9165830612182617,1435.947021484375
D4:22:CD:00:05:6E,-50.23003005981445,-60.9668083190918,-109.69982147216797,3.2797999382019043,-7.902525901794434,-0.11914443969726562,1435.947021484375
D4:22:CD:00:05:5E,-41.629390716552734,-63.040008544921875,162.5516815185547,-8.718133926391602,-1.967968463897705,2.180363655090332,1435.947021484375
D4:22:CD:00:05:5D,137.50599670410156,-71.61439514160156,-46.60947036743164,0.14384019374847412,-0.735598087310791,2.6353139877319336,1435.9772086143494
D4:22:CD:00:05:6B,-24.84463119506836,58.17849349975586,-137.2186279296875,-10.819517135620117,3.4183144569396973,-12.18112564086914,1435.9772086143494
D4:22:CD:00:49:AA,-163.50601196289062,-77.25548553466797,103.26329040527344,1.4704787731170654,-1.8760836124420166,0.5630941390991211,1435.9772086143494
D4:22:CD:00:05:6E,-59.34659194946289,-64.61736297607422,-109.23639678955078,0.6071978807449341,-0.8312250375747681,6.269683837890625,1435.9772086143494
D4:22:CD:00:05:5E,-49.634788513183594,-66.306884765625,166.90162658691406,-0.06713269650936127,10.14950942993164,3.3094863891601562,1435.9772086143494
D4:22:CD:00:05:5D,129.95321655273438,-71.48979187011719,-40.62784194946289,1.401458978652954,-1.2298481464385986,3.191375732421875,1436.0074181556702
D4:22:CD:00:05:6B,-13.792686462402344,52.55812454223633,-119.63643646240234,-9.548332214355469,6.759574890136719,-2.9599757194519043,1436.0074181556702
D4:22:CD:00:49:AA,-162.03887939453125,-75.87397766113281,100.22240447998047,3.93975830078125,0.9018971920013428,1.807332992553711,1436.0074181556702
D4:22:CD:00:05:6E,-58.156028747558594,-68.32726287841797,-112.00809478759766,-0.13470301032066345,-2.5967888832092285,4.904996871948242,1436.0074181556702
D4:22:CD:00:05:5E,-50.6778678894043,-68.53496551513672,167.65603637695312,-6.793540000915527,2.2102222442626953,-1.5191354751586914,1436.0074181556702
D4:22:CD:00:05:5D,121.21013641357422,-70.87945556640625,-35.08064270019531,5.7554521560668945,-1.2688562870025635,3.476612091064453,1436.0669386386871
D4:22:CD:00:05:6B,-4.146185398101807,44.7065544128418,-110.08860778808594,-1.1173312664031982,6.555383682250977,-0.16357803344726562,1436.0669386386871
D4:22:CD:00:49:AA,-162.17453002929688,-74.65782165527344,97.11734008789062,7.754188537597656,4.2465410232543945,-0.06896686553955078,1436.0669386386871
D4:22:CD:00:05:6E,-52.72597885131836,-72.96656036376953,-118.1493911743164,-0.8953144550323486,-7.7475385665893555,3.1682872772216797,1436.0669386386871
D4:22:CD:00:05:5E,-50.468719482421875,-70.60369873046875,166.4434356689453,-5.44342041015625,2.672898292541504,-0.6654300689697266,1436.0669386386871
D4:22:CD:00:05:5D,110.3085708618164,-71.31654357910156,-32.034908294677734,11.645929336547852,7.805753707885742,-2.155384063720703,1436.097172498703
D4:22:CD:00:05:6B,-2.3750619888305664,36.17729187011719,-103.3219223022461,9.673500061035156,7.602984428405762,1.2206077575683594,1436.097172498703
D4:22:CD:00:49:AA,-165.1956329345703,-74.07389831542969,96.08109283447266,5.5997467041015625,1.4970455169677734,1.5889654159545898,1436.097172498703
D4:22:CD:00:05:6E,-50.082496643066406,-77.0354232788086,-126.42213439941406,-1.9400920867919922,-2.8311681747436523,0.7403182983398438,1436.097172498703
D4:22:CD:00:05:5E,-48.03143310546875,-71.99896240234375,163.53553771972656,-5.563962936401367,2.1072874069213867,-1.5261049270629883,1436.097172498703
D4:22:CD:00:05:5D,115.92052459716797,-69.59662628173828,-49.1017951965332,16.521224975585938,22.33612060546875,2.588407516479492,1436.127718925476
D4:22:CD:00:05:6B,-13.88145923614502,27.773582458496094,-97.59329986572266,10.89111328125,8.050283432006836,-2.646578311920166,1436.127718925476
D4:22:CD:00:49:AA,-165.9293212890625,-74.48541259765625,95.91253662109375,-2.4281082153320312,1.4763514995574951,3.388047218322754,1436.127718925476
D4:22:CD:00:05:6E,-49.01026153564453,-79.147216796875,-134.0579833984375,-3.09578275680542,2.874384880065918,-0.8570461273193359,1436.127718925476
D4:22:CD:00:05:5E,-44.73561477661133,-72.54811096191406,160.10018920898438,-5.877814292907715,1.802358865737915,-1.5703067779541016,1436.127718925476
D4:22:CD:00:05:5D,135.0380859375,-62.45271682739258,-72.61510467529297,15.331657409667969,10.82975959777832,4.529196739196777,1436.1570601463318
D4:22:CD:00:05:6B,-31.2105770111084,18.7208194732666,-92.5579605102539,-3.224641799926758,-0.8812350034713745,3.0559005737304688,1436.1570601463318
D4:22:CD:00:49:AA,-164.5449981689453,-75.3855972290039,94.89717102050781,1.4392108917236328,2.1062064170837402,-0.09710311889648438,1436.1570601463318
D4:22:CD:00:05:6E,-39.28810119628906,-79.88703155517578,-143.51361083984375,-4.956088066101074,1.3283910751342773,-1.1560630798339844,1436.1570601463318
D4:22:CD:00:05:5E,-41.99612045288086,-72.85555267333984,156.84371948242188,-4.243082046508789,1.262453317642212,-1.172933578491211,1436.1570601463318
D4:22:CD:00:05:5D,148.57968139648438,-52.882484436035156,-91.31082916259766,4.162115097045898,1.3654289245605469,0.6426877975463867,1436.1870608329773
D4:22:CD:00:05:6B,-47.30404281616211,9.323263168334961,-86.92855834960938,-0.964411735534668,-1.9170279502868652,-1.3138599395751953,1436.1870608329773
D4:22:CD:00:49:AA,-160.8709259033203,-76.27333068847656,91.74761199951172,4.644806861877441,3.3941149711608887,-0.740870475769043,1436.1870608329773
D4:22:CD:00:05:6E,-20.942241668701172,-79.47463989257812,-156.72703552246094,-7.879929542541504,-4.784542083740234,-2.9774961471557617,1436.1870608329773
D4:22:CD:00:05:5E,-39.0908317565918,-73.27574157714844,154.26651000976562,-4.108005523681641,0.4097769856452942,-1.9189453125,1436.1870608329773
D4:22:CD:00:05:5D,154.90760803222656,-42.65469741821289,-103.87106323242188,-1.315389633178711,-2.58634614944458,-5.3079986572265625,1436.2170658111572
D4:22:CD:00:05:6B,-68.92718505859375,-0.5119379758834839,-80.28490447998047,-4.950860023498535,-10.45914077758789,-1.9211926460266113,1436.2170658111572
D4:22:CD:00:49:AA,-157.655517578125,-77.69573211669922,88.27850341796875,2.395545482635498,1.71622896194458,-3.6537375450134277,1436.2170658111572
D4:22:CD:00:05:6E,-2.503108501434326,-78.64250183105469,-171.48416137695312,-5.4983625411987305,-4.091304779052734,-4.141901016235352,1436.2170658111572
D4:22:CD:00:05:5E,-40.87837219238281,-74.37395477294922,157.1529998779297,-4.5564422607421875,-1.256317377090454,-2.5283217430114746,1436.2170658111572
D4:22:CD:00:05:5D,159.17872619628906,-33.776004791259766,-112.59750366210938,-3.3274660110473633,-3.1093478202819824,-7.162386894226074,1436.2472043037415
D4:22:CD:00:05:6B,-87.06143188476562,-11.316140174865723,-73.4974365234375,0.5323176383972168,-11.716035842895508,8.693527221679688,1436.2472043037415
D4:22:CD:00:49:AA,-154.9183807373047,-79.04571533203125,85.35030364990234,0.3645493984222412,-0.17143940925598145,-6.324173927307129,1436.2472043037415
D4:22:CD:00:05:6E,23.137453079223633,-77.37494659423828,169.5253143310547,-2.6439414024353027,-2.346952438354492,-4.260331153869629,1436.2472043037415
D4:22:CD:00:05:5E,-51.61049270629883,-76.2394027709961,169.35861206054688,-6.532498359680176,-2.2348971366882324,-2.8462376594543457,1436.2472043037415
D4:22:CD:00:05:5D,161.2720947265625,-28.119638442993164,-119.03349304199219,-5.0559492111206055,-2.299826145172119,-10.140575408935547,1436.277335882187
D4:22:CD:00:05:6B,-96.45674133300781,-23.585832595825195,-68.22796630859375,6.625507354736328,-5.739994049072266,14.011529922485352,1436.277335882187
D4:22:CD:00:49:AA,-151.7506866455078,-79.73463439941406,83.00637817382812,-0.8001495599746704,0.14064836502075195,-6.940853118896484,1436.277335882187
D4:22:CD:00:05:6E,48.807044982910156,-74.48388671875,151.525146484375,-1.3781557083129883,-6.968465805053711,-3.692803382873535,1436.277335882187
D4:22:CD:00:05:5E,-69.65709686279297,-77.37731170654297,-171.21253967285156,-2.9129672050476074,2.330507278442383,-0.6252965927124023,1436.277335882187
D4:22:CD:00:05:5D,161.03497314453125,-26.598424911499023,-123.48953247070312,-11.263578414916992,-2.9507012367248535,-13.760093688964844,1436.3073115348816
D4:22:CD:00:05:6B,-92.80787658691406,-37.18963623046875,-66.16541290283203,5.357019424438477,0.09505891799926758,11.493940353393555,1436.3073115348816
D4:22:CD:00:49:AA,-148.7838897705078,-79.79938507080078,80.87125396728516,2.3388638496398926,1.5209450721740723,-5.574283599853516,1436.3073115348816
D4:22:CD:00:05:6E,62.45924758911133,-70.12261962890625,139.38925170898438,1.432826280593872,-3.483153820037842,-2.7288718223571777,1436.3073115348816
D4:22:CD:00:05:5E,-93.21742248535156,-76.34803771972656,-147.26454162597656,-4.069026947021484,3.863039016723633,-4.980999946594238,1436.3073115348816
D4:22:CD:00:05:5D,159.58982849121094,-29.058801651000977,-124.96681213378906,-13.198553085327148,-6.736166000366211,-12.281654357910156,1436.3674285411835
D4:22:CD:00:05:6B,-80.18207550048828,-50.31263732910156,-69.18572998046875,3.866485595703125,-7.163724899291992,4.524954795837402,1436.3674285411835
D4:22:CD:00:49:AA,-145.79762268066406,-79.54503631591797,77.14835357666016,5.7442169189453125,1.1989922523498535,-1.9232983589172363,1436.3674285411835
D4:22:CD:00:05:6E,72.27010345458984,-63.731178283691406,131.8506622314453,1.2424914836883545,-3.2360525131225586,-1.9887733459472656,1436.3674285411835
D4:22:CD:00:05:5E,-110.17513275146484,-73.94869232177734,-131.23069763183594,-4.966701507568359,4.646541595458984,-4.8701019287109375,1436.3674285411835
D4:22:CD:00:05:5D,160.30966186523438,-31.661998748779297,-124.85896301269531,-7.546027183532715,-1.8731391429901123,12.37901496887207,1436.3967142105103
D4:22:CD:00:05:6B,-65.08271789550781,-58.58450698852539,-78.24293518066406,5.004978179931641,-5.912596702575684,7.515583038330078,1436.3967142105103
D4:22:CD:00:49:AA,-144.5388641357422,-79.92166900634766,73.8484878540039,0.08660747110843658,-0.8986990451812744,0.33818626403808594,1436.3967142105103
D4:22:CD:00:05:6E,79.87039184570312,-54.945980072021484,126.89827728271484,0.3448702096939087,-10.025646209716797,4.02027702331543,1436.3967142105103
D4:22:CD:00:05:5E,-119.11847686767578,-71.235107421875,-124.19989013671875,-8.768255233764648,-0.4303549528121948,6.670402526855469,1436.3967142105103
D4:22:CD:00:05:5D,163.91033935546875,-32.062774658203125,-122.59844207763672,-10.432043075561523,-11.028600692749023,5.284951210021973,1436.4274806976318
D4:22:CD:00:05:6B,-51.012027740478516,-59.01710891723633,-86.92080688476562,3.691290855407715,-9.257404327392578,5.012331962585449,1436.4274806976318
D4:22:CD:00:49:AA,-146.75152587890625,-79.19438171386719,74.74557495117188,-3.4723830223083496,-1.4339919090270996,6.414800643920898,1436.4274806976318
D4:22:CD:00:05:6E,82.4760971069336,-44.14860153198242,122.69241333007812,-0.33035391569137573,-12.789443969726562,11.27169418334961,1436.4274806976318
D4:22:CD:00:05:5E,-123.83450317382812,-69.53621673583984,-120.14669036865234,-3.810457706451416,4.549201011657715,0.37131500244140625,1436.4274806976318
D4:22:CD:00:05:5D,166.02267456054688,-30.31869125366211,-120.36522674560547,-17.883407592773438,-8.949451446533203,15.216800689697266,1436.4569573402405
D4:22:CD:00:05:6B,-44.91727828979492,-53.459590911865234,-87.68199920654297,0.42415904998779297,-20.414653778076172,9.723381042480469,1436.4569573402405
D4:22:CD:00:49:AA,-148.92794799804688,-77.75194549560547,76.0284652709961,6.997076988220215,-3.112743377685547,10.654813766479492,1436.4569573402405
D4:22:CD:00:05:6E,83.49617004394531,-31.263559341430664,117.64297485351562,7.739945411682129,-13.37298583984375,20.198627471923828,1436.4569573402405
D4:22:CD:00:05:5E,-125.8215560913086,-70.0144271850586,-118.51499938964844,-5.867789268493652,4.483962059020996,-0.19823646545410156,1436.4569573402405
D4:22:CD:00:05:5D,164.24850463867188,-25.207426071166992,-118.19976043701172,-14.314735412597656,-12.432685852050781,11.52155876159668,1436.4872069358826
D4:22:CD:00:05:6B,-46.58810043334961,-44.584381103515625,-84.99659729003906,-1.026646614074707,-21.629817962646484,3.4046125411987305,1436.4872069358826
D4:22:CD:00:49:AA,-151.5217742919922,-77.45332336425781,77.45572662353516,6.567009925842285,3.038994789123535,7.300931930541992,1436.4872069358826
D4:22:CD:00:05:6E,76.7904281616211,-18.11347770690918,109.92768096923828,7.195356369018555,-12.558996200561523,30.191150665283203,1436.4872069358826
D4:22:CD:00:05:5E,-123.1382827758789,-71.43728637695312,-122.10075378417969,-7.192298889160156,3.865088939666748,-0.2623291015625,1436.4872069358826
D4:22:CD:00:05:5D,164.94979858398438,-18.586891174316406,-116.6084213256836,-9.716482162475586,-12.258228302001953,3.090780258178711,1436.516207933426
D4:22:CD:00:05:6B,-54.82548522949219,-36.68853759765625,-84.40917205810547,-7.788029670715332,-16.613567352294922,-5.414619445800781,1436.516207933426
D4:22:CD:00:49:AA,-158.53257751464844,-76.8396987915039,82.20632934570312,1.521846055984497,2.260303497314453,9.953496932983398,1436.516207933426
D4:22:CD:00:05:6E,57.873573303222656,-7.068894386291504,101.25457763671875,-2.8236913681030273,-0.7348766326904297,17.667301177978516,1436.516207933426
D4:22:CD:00:05:5E,-114.47058868408203,-73.04166412353516,-132.90911865234375,-6.720439910888672,4.033917427062988,0.5176506042480469,1436.516207933426
D4:22:CD:00:05:5D,168.65391540527344,-14.093430519104004,-116.96477508544922,-5.204986572265625,-4.965753555297852,7.344905853271484,1436.5467183589935
D4:22:CD:00:05:6B,-63.12946701049805,-34.47712326049805,-87.02153778076172,-10.453119277954102,-3.341757297515869,-2.658487319946289,1436.5467183589935
D4:22:CD:00:49:AA,-164.857666015625,-76.45866394042969,86.490966796875,4.204645156860352,2.1298317909240723,7.209787368774414,1436.5467183589935
D4:22:CD:00:05:6E,39.4478874206543,-0.23331819474697113,94.95436096191406,-4.543332099914551,-2.482740879058838,6.6134185791015625,1436.5467183589935
D4:22:CD:00:05:5E,-98.1231918334961,-74.30957794189453,-152.81890869140625,-5.153860092163086,4.979358673095703,3.1754093170166016,1436.5467183589935
D4:22:CD:00:05:5D,167.7548370361328,-13.080310821533203,-118.6829833984375,-7.246106147766113,0.025795184075832367,1.1408500671386719,1436.576723575592
D4:22:CD:00:05:6B,-65.89266967773438,-37.78041076660156,-91.23334503173828,-7.928640365600586,-0.43879199028015137,1.4238176345825195,1436.576723575592
D4:22:CD:00:49:AA,-172.1259002685547,-75.98009490966797,91.33197784423828,5.545934677124023,2.351654529571533,2.339153289794922,1436.576723575592
D4:22:CD:00:05:6E,25.955326080322266,4.163777828216553,92.89996337890625,-10.675321578979492,-2.509690284729004,2.904682159423828,1436.576723575592
D4:22:CD:00:05:5E,-63.12229537963867,-73.06246948242188,171.9870147705078,-3.33235502243042,1.604367971420288,6.3046722412109375,1436.576723575592
D4:22:CD:00:05:5D,165.90118408203125,-15.863725662231445,-119.52494812011719,-4.600249290466309,1.8529157638549805,-7.376893043518066,1436.6070368289948
D4:22:CD:00:05:6B,-69.87704467773438,-43.82865905761719,-94.29253387451172,-3.048213481903076,-2.984053134918213,0.7371006011962891,1436.6070368289948
D4:22:CD:00:49:AA,-179.16317749023438,-74.57498168945312,95.23684692382812,0.9066320657730103,0.6536823511123657,-4.704306602478027,1436.6070368289948
D4:22:CD:00:05:6E,14.93622875213623,10.052865982055664,93.87419128417969,-9.937410354614258,-0.2922568917274475,-6.494875907897949,1436.6070368289948
D4:22:CD:00:05:5E,-63.27885437011719,-72.27459716796875,167.99026489257812,-3.361267566680908,15.49997329711914,-8.746236801147461,1436.6070368289948
D4:22:CD:00:05:5D,164.8961639404297,-21.9754638671875,-119.28911590576172,-5.623229026794434,-0.6193420886993408,-19.466915130615234,1436.666555404663
D4:22:CD:00:05:6B,-77.04869842529297,-50.182464599609375,-95.42146301269531,-0.8399507999420166,2.5295562744140625,5.794040679931641,1436.666555404663
D4:22:CD:00:49:AA,178.43309020996094,-72.06438446044922,95.15567779541016,-3.3040757179260254,-0.4285205602645874,-7.37890625,1436.666555404663
D4:22:CD:00:05:6E,5.996327877044678,16.81103515625,97.1770248413086,-3.325446605682373,0.009915284812450409,-11.50726318359375,1436.666555404663
D4:22:CD:00:05:5E,-71.7941665649414,-73.2560043334961,177.92825317382812,0.3734445571899414,7.184535026550293,-8.629938125610352,1436.666555404663
D4:22:CD:00:05:5D,164.4480743408203,-31.786399841308594,-118.50636291503906,-7.324981689453125,-3.335452079772949,-20.953346252441406,1436.6975493431091
D4:22:CD:00:05:6B,-78.20441436767578,-54.763248443603516,-95.52276611328125,2.1807641983032227,4.176794052124023,-0.594264030456543,1436.6975493431091
D4:22:CD:00:49:AA,-178.26498413085938,-71.04879760742188,91.75808715820312,-2.521091938018799,0.9744449853897095,-7.45402717590332,1436.6975493431091
D4:22:CD:00:05:6E,-1.107061505317688,22.687997817993164,102.84156036376953,-1.2571351528167725,-0.9410394430160522,-10.375446319580078,1436.6975493431091
D4:22:CD:00:05:5E,-71.72307586669922,-73.80602264404297,-178.939453125,2.297337055206299,-10.989755630493164,-8.51883316040039,1436.6975493431091
D4:22:CD:00:05:5D,161.9940185546875,-46.20056915283203,-117.46675872802734,-6.564730644226074,-2.5565834045410156,-11.946674346923828,1436.72722864151
D4:22:CD:00:05:6B,-79.7131118774414,-56.225074768066406,-95.11817932128906,2.8305234909057617,1.451655387878418,-5.926396369934082,1436.72722864151
D4:22:CD:00:49:AA,-174.3443603515625,-72.64867401123047,87.15435028076172,2.022798538208008,2.707892894744873,-9.332620620727539,1436.72722864151
D4:22:CD:00:05:6E,-8.36258316040039,27.449752807617188,111.16165161132812,-6.692254066467285,-0.5205516815185547,-12.721506118774414,1436.72722864151
D4:22:CD:00:05:5E,-69.5329818725586,-73.3975830078125,175.71421813964844,-8.706493377685547,0.42595374584198,-5.522092819213867,1436.72722864151
D4:22:CD:00:05:5D,158.32081604003906,-64.3887710571289,-115.9248275756836,-4.945032119750977,-5.665783882141113,1.7794294357299805,1436.7573018074036
D4:22:CD:00:05:6B,-83.4293441772461,-55.35744094848633,-95.18563842773438,2.8171143531799316,1.7015724182128906,-5.171277046203613,1436.7573018074036
D4:22:CD:00:49:AA,-174.57098388671875,-74.02864074707031,84.40487670898438,2.3373303413391113,1.8052067756652832,-10.58030891418457,1436.7573018074036
D4:22:CD:00:05:6E,-14.877041816711426,31.718822479248047,121.4059829711914,-9.878328323364258,4.693199157714844,-12.872987747192383,1436.7573018074036
D4:22:CD:00:05:5E,-75.79859924316406,-73.06312561035156,177.94297790527344,-5.647856712341309,-1.6511178016662598,-6.942314147949219,1436.7573018074036
D4:22:CD:00:05:5D,141.065673828125,-83.20713806152344,-97.39984893798828,7.680510520935059,5.827872276306152,24.285213470458984,1436.7873384952545
D4:22:CD:00:05:6B,-81.09501647949219,-54.28921890258789,-97.99403381347656,6.544299125671387,4.505008697509766,-1.6882286071777344,1436.7873384952545
D4:22:CD:00:49:AA,-177.04608154296875,-73.59308624267578,84.50338745117188,-2.927907943725586,-2.0742993354797363,-4.205965995788574,1436.7873384952545
D4:22:CD:00:05:6E,-16.166017532348633,36.90193176269531,131.7711944580078,-14.499706268310547,5.202917098999023,-16.14700698852539,1436.7873384952545
D4:22:CD:00:05:5E,-83.27520751953125,-72.00057220458984,-176.31504821777344,-2.967216968536377,1.4948570728302002,-2.3682498931884766,1436.7873384952545
D4:22:CD:00:05:5D,31.15102195739746,-82.11766052246094,23.168407440185547,21.770370483398438,22.507476806640625,3.0946054458618164,1436.8168966770172
D4:22:CD:00:05:6B,-76.11444091796875,-53.20322799682617,-102.46273040771484,3.006232738494873,0.44263792037963867,-6.809055328369141,1436.8168966770172
D4:22:CD:00:49:AA,-173.53224182128906,-73.5923843383789,82.69449615478516,-0.40829020738601685,-4.050256729125977,1.931844711303711,1436.8168966770172
D4:22:CD:00:05:6E,-9.759176254272461,43.58800506591797,139.6029052734375,-3.375516891479492,7.833270072937012,-15.599769592285156,1436.8168966770172
D4:22:CD:00:05:5E,-91.02507781982422,-70.12168884277344,-171.6717987060547,-9.542110443115234,-1.353611946105957,2.546245574951172,1436.8168966770172
D4:22:CD:00:05:5D,37.94822311401367,-80.80268859863281,17.178678512573242,23.17247772216797,30.16019058227539,-13.777379989624023,1436.8464732170105
D4:22:CD:00:05:6B,-73.67974090576172,-53.18532943725586,-105.81024932861328,5.251119613647461,5.879011154174805,-1.7930183410644531,1436.8464732170105
D4:22:CD:00:49:AA,-169.82455444335938,-73.11045837402344,82.38387298583984,10.20660400390625,-0.07275189459323883,3.956319808959961,1436.8464732170105
D4:22:CD:00:05:6E,1.5861268043518066,47.52649688720703,140.57443237304688,2.1755213737487793,-7.569352149963379,-7.3436479568481445,1436.8464732170105
D4:22:CD:00:05:5E,-89.77503204345703,-68.54798126220703,-173.50732421875,-6.427616119384766,-0.07019022107124329,6.380939483642578,1436.8464732170105
D4:22:CD:00:05:5D,90.58379364013672,-82.49614715576172,-35.334014892578125,10.73007583618164,-11.539665222167969,2.3218297958374023,1436.8769693374634
D4:22:CD:00:05:6B,-71.74225616455078,-53.729103088378906,-108.0511245727539,3.035223960876465,-1.0195348262786865,-5.427579879760742,1436.8769693374634
D4:22:CD:00:49:AA,-171.0128631591797,-73.09274291992188,83.07562255859375,6.134576797485352,3.062807083129883,4.057073593139648,1436.8769693374634
D4:22:CD:00:05:6E,4.193301200866699,48.93632888793945,133.34132385253906,2.94157075881958,-8.842731475830078,-7.391369819641113,1436.8769693374634
D4:22:CD:00:05:5E,-76.09595489501953,-67.20957946777344,176.9459686279297,-5.076676368713379,2.227175235748291,2.8412866592407227,1436.8769693374634
D4:22:CD:00:05:5D,127.86346435546875,-79.5516128540039,-69.56240844726562,-1.3022785186767578,-13.965105056762695,5.80211067199707,1436.907167673111
D4:22:CD:00:05:6B,-74.32840728759766,-53.96170425415039,-107.53245544433594,4.410466194152832,6.088248252868652,6.292816162109375,1436.907167673111
D4:22:CD:00:49:AA,-170.30882263183594,-72.5390396118164,82.79777526855469,-2.2465457916259766,-1.4351530075073242,4.913601875305176,1436.907167673111
D4:22:CD:00:05:6E,-0.1802660971879959,48.37295913696289,122.9921875,0.02228780835866928,-1.7480032444000244,-6.8520002365112305,1436.907167673111
D4:22:CD:00:05:5E,-70.7925796508789,-64.26448059082031,175.0564727783203,-7.840864181518555,-2.251692295074463,-0.06993770599365234,1436.907167673111
D4:22:CD:00:05:5D,146.92935180664062,-77.99324035644531,-87.17494201660156,3.677391529083252,1.3246221542358398,2.452777862548828,1436.9673790931702
D4:22:CD:00:05:6B,-69.42760467529297,-54.397438049316406,-106.37405395507812,2.713298797607422,1.79909348487854,12.190717697143555,1436.9673790931702
D4:22:CD:00:49:AA,-167.63487243652344,-71.9680404663086,84.27301025390625,-3.1684584617614746,-1.4098589420318604,3.7360658645629883,1436.9673790931702
D4:22:CD:00:05:6E,-6.794856071472168,45.358516693115234,106.7513427734375,-1.5835411548614502,3.558372974395752,-11.033130645751953,1436.9673790931702
D4:22:CD:00:05:5E,-67.14766693115234,-61.558555603027344,177.30963134765625,-11.56158447265625,-0.2612727880477905,-1.4971857070922852,1436.9673790931702
D4:22:CD:00:05:5D,158.76795959472656,-76.12491607666016,-95.97406005859375,-4.722246170043945,-0.6263731718063354,3.6549110412597656,1436.996527671814
D4:22:CD:00:05:6B,-61.20527648925781,-54.969261169433594,-104.78951263427734,-3.202169418334961,-6.303195953369141,3.503819465637207,1436.996527671814
D4:22:CD:00:49:AA,-166.1372833251953,-71.8617172241211,87.30343627929688,-3.7815022468566895,-0.2909260392189026,0.30707263946533203,1436.996527671814
D4:22:CD:00:05:6E,-11.930220603942871,36.86742401123047,87.48554229736328,-6.867678642272949,3.3089208602905273,-19.65359878540039,1436.996527671814
D4:22:CD:00:05:5E,-63.605926513671875,-60.68056869506836,-175.79920959472656,-25.664241790771484,13.169916152954102,-10.66008186340332,1436.996527671814
D4:22:CD:00:05:5D,169.12911987304688,-74.67074584960938,-103.81420135498047,-2.9266586303710938,3.256531238555908,1.7246599197387695,1437.0273246765137
D4:22:CD:00:05:6B,-60.10482406616211,-54.26533889770508,-100.44630432128906,-3.6547398567199707,-8.574363708496094,0.8254194259643555,1437.0273246765137
D4:22:CD:00:49:AA,-165.97315979003906,-71.87069702148438,90.90510559082031,-2.4134812355041504,1.0465476512908936,-1.4460906982421875,1437.0273246765137
D4:22:CD:00:05:6E,-16.111581802368164,24.670625686645508,70.86691284179688,-4.393246650695801,5.9097185134887695,-7.596193313598633,1437.0273246765137
D4:22:CD:00:05:5E,-77.03144836425781,-62.29904556274414,-157.7991943359375,-21.667659759521484,6.243587493896484,-5.494575500488281,1437.0273246765137
D4:22:CD:00:05:5D,176.4964141845703,-73.75994110107422,-110.73059844970703,-0.6695804595947266,0.5946866273880005,0.9936132431030273,1437.0563251972198
D4:22:CD:00:05:6B,-65.56001281738281,-52.0124397277832,-94.15863800048828,-4.334572792053223,-4.82110595703125,0.5315189361572266,1437.0563251972198
D4:22:CD:00:49:AA,-167.10964965820312,-71.55522155761719,94.53794860839844,0.27385610342025757,2.1135778427124023,0.8945064544677734,1437.0563251972198
D4:22:CD:00:05:6E,-11.86107063293457,13.059374809265137,56.216365814208984,2.6911683082580566,-0.20203882455825806,-4.5064849853515625,1437.0563251972198
D4:22:CD:00:05:5E,-95.61503601074219,-63.378936767578125,-136.56802368164062,-10.532114028930664,1.946568489074707,-5.821256637573242,1437.0563251972198
D4:22:CD:00:05:5D,-176.95008850097656,-72.99166870117188,-116.71248626708984,-0.5397157669067383,0.10396592319011688,0.6976861953735352,1437.086784362793
D4:22:CD:00:05:6B,-70.71829223632812,-49.59858703613281,-88.3410873413086,-4.470067977905273,-1.5152556896209717,1.5603723526000977,1437.086784362793
D4:22:CD:00:49:AA,-168.6871795654297,-71.35055541992188,97.5409927368164,-2.0611815452575684,2.8571033477783203,3.816181182861328,1437.086784362793
D4:22:CD:00:05:6E,-1.79453706741333,3.279151678085327,41.218589782714844,3.9557576179504395,-0.3238055109977722,-2.956638813018799,1437.086784362793
D4:22:CD:00:05:5E,-111.78740692138672,-63.423465728759766,-117.32049560546875,-5.000046730041504,-0.08499795198440552,-8.067401885986328,1437.086784362793
D4:22:CD:00:05:5D,-170.93772888183594,-72.86111450195312,-123.10648345947266,-1.070824146270752,0.5794973373413086,0.7781229019165039,1437.1169638633728
D4:22:CD:00:05:6B,-71.26094818115234,-48.60061264038086,-84.75745391845703,-2.732205867767334,1.2671318054199219,1.8258438110351562,1437.1169638633728
D4:22:CD:00:49:AA,-169.4149627685547,-71.41571807861328,99.56521606445312,-4.293371200561523,1.9516167640686035,1.247248649597168,1437.1169638633728
D4:22:CD:00:05:6E,13.713752746582031,-1.691094160079956,27.974092483520508,10.464696884155273,-20.066574096679688,3.547039031982422,1437.1169638633728
D4:22:CD:00:05:5E,-125.3466796875,-63.40576171875,-100.81586456298828,-1.763803243637085,-0.1743975281715393,-9.922849655151367,1437.1169638633728
D4:22:CD:00:05:5D,-166.7856903076172,-73.11287689208984,-129.68849182128906,-0.7844491004943848,0.6448992490768433,0.4548187255859375,1437.1467506885529
D4:22:CD:00:05:6B,-71.9455795288086,-48.50649642944336,-83.86978149414062,1.9861788749694824,-3.0871925354003906,-3.4697985649108887,1437.1467506885529
D4:22:CD:00:49:AA,-170.08045959472656,-71.82948303222656,101.74720001220703,-3.105123519897461,0.095508873462677,-1.6142120361328125,1437.1467506885529
D4:22:CD:00:05:6E,41.09965515136719,-1.3544164896011353,23.143434524536133,-2.725687026977539,-13.603548049926758,-11.315086364746094,1437.1467506885529
D4:22:CD:00:05:5E,-138.56556701660156,-63.87955856323242,-85.06961059570312,-1.0030362606048584,0.03083595633506775,-10.591194152832031,1437.1467506885529
D4:22:CD:00:05:5D,-162.4888153076172,-73.22064971923828,-135.8223114013672,-1.700404167175293,0.6825982332229614,0.20018959045410156,1437.176764011383
D4:22:CD:00:05:6B,-75.34011840820312,-48.439239501953125,-86.26777648925781,2.1214065551757812,1.979426622390747,1.1230268478393555,1437.176764011383
D4:22:CD:00:49:AA,-171.97299194335938,-72.66507720947266,105.29084014892578,-0.4443073272705078,0.6844737529754639,-2.4296669960021973,1437.176764011383
D4:22:CD:00:05:6E,57.04777908325195,-2.8709540367126465,26.961156845092773,-4.382868766784668,3.2572150230407715,7.660253524780273,1437.176764011383
D4:22:CD:00:05:5E,-152.00831604003906,-64.77938079833984,-69.14027404785156,0.05405126512050629,0.4515378475189209,-7.738268852233887,1437.176764011383
D4:22:CD:00:05:5D,-159.40162658691406,-72.96310424804688,-140.8236846923828,-0.46007680892944336,-1.424799919128418,-0.5997190475463867,1437.2374205589294
D4:22:CD:00:05:6B,-76.05567169189453,-47.962738037109375,-90.90277862548828,0.24292302131652832,1.3816242218017578,-0.32170963287353516,1437.2374205589294
D4:22:CD:00:49:AA,-176.16864013671875,-73.56513214111328,110.67096710205078,0.7611610889434814,0.9896198511123657,-5.044848442077637,1437.2374205589294
D4:22:CD:00:05:6E,56.93272018432617,-7.941716194152832,34.745941162109375,-2.5708727836608887,-7.562868118286133,-3.535154342651367,1437.2374205589294
D4:22:CD:00:05:5E,-165.8771514892578,-66.01520538330078,-52.84889221191406,2.7142443656921387,-0.8542574644088745,-3.225468635559082,1437.2374205589294
D4:22:CD:00:05:5D,-160.19729614257812,-71.62674713134766,-141.22035217285156,-0.645261287689209,-3.8906168937683105,-1.1097564697265625,1437.2672157287598
D4:22:CD:00:05:6B,-74.92717742919922,-46.56446838378906,-96.83829498291016,-0.263232946395874,0.18780392408370972,-1.8726286888122559,1437.2672157287598
D4:22:CD:00:49:AA,178.15672302246094,-74.07735443115234,116.63172149658203,-0.39596134424209595,0.2779688835144043,-4.968347549438477,1437.2672157287598
D4:22:CD:00:05:6E,56.46056365966797,-19.360197067260742,44.081321716308594,5.099849700927734,-2.6099724769592285,-6.859524726867676,1437.2672157287598
D4:22:CD:00:05:5E,-177.6824188232422,-68.10912322998047,-37.7736930847168,10.046316146850586,0.6948715448379517,0.1559276580810547,1437.2672157287598
D4:22:CD:00:05:5D,-165.80462646484375,-68.73719787597656,-135.4763641357422,-1.5745124816894531,-4.9666643142700195,-0.9775810241699219,1437.2972123622894
D4:22:CD:00:05:6B,-72.98735046386719,-44.11204528808594,-104.84796142578125,-1.1553406715393066,-1.95849609375,-4.788708686828613,1437.2972123622894
D4:22:CD:00:49:AA,174.67501831054688,-75.44837188720703,120.5720443725586,-2.087505340576172,-0.36092644929885864,-3.453273296356201,1437.2972123622894
D4:22:CD:00:05:6E,60.188541412353516,-34.82573318481445,49.67937469482422,8.234275817871094,0.6338866949081421,2.0644664764404297,1437.2972123622894
D4:22:CD:00:05:5E,176.304443359375,-72.5889892578125,-23.8940372467041,9.096412658691406,7.293188095092773,-1.6918363571166992,1437.2972123622894
D4:22:CD:00:05:5D,-172.13763427734375,-64.733154296875,-126.26923370361328,-1.1989734172821045,-1.1679799556732178,-0.12004947662353516,1437.3269517421722
D4:22:CD:00:05:6B,-73.23674011230469,-40.073089599609375,-113.75871276855469,-3.0178866386413574,-1.1735022068023682,-7.769731521606445,1437.3269517421722
D4:22:CD:00:49:AA,169.87625122070312,-77.50270080566406,126.86632537841797,-5.074658393859863,-0.7135833501815796,-5.489957809448242,1437.3269517421722
D4:22:CD:00:05:6E,60.90566635131836,-52.95490646362305,53.519962310791016,6.743940353393555,1.6454532146453857,15.04864501953125,1437.3269517421722
D4:22:CD:00:05:5E,179.20205688476562,-71.82760620117188,-23.859439849853516,-11.652751922607422,5.992068290710449,9.189960479736328,1437.3269517421722
D4:22:CD:00:05:5D,-176.9835205078125,-59.81174087524414,-118.71986389160156,2.7740745544433594,-1.9232807159423828,-2.7149295806884766,1437.357125043869
D4:22:CD:00:05:6B,-78.88250732421875,-33.87751007080078,-121.92400360107422,-0.22390234470367432,1.8976283073425293,-6.730499267578125,1437.357125043869
D4:22:CD:00:49:AA,162.35877990722656,-78.46162414550781,137.27175903320312,-1.7584900856018066,-0.653249979019165,-4.580252647399902,1437.357125043869
D4:22:CD:00:05:6E,51.7646598815918,-71.52228546142578,62.50356674194336,4.785154342651367,-0.7991660833358765,30.230091094970703,1437.357125043869
D4:22:CD:00:05:5E,176.16253662109375,-69.874755859375,-28.605457305908203,7.978808403015137,-4.360049247741699,1.8642358779907227,1437.357125043869
D4:22:CD:00:05:5D,-179.6897430419922,-55.181434631347656,-112.93816375732422,3.33060884475708,5.085500717163086,-4.713187217712402,1437.3871278762817
D4:22:CD:00:05:6B,-87.33971405029297,-25.795806884765625,-129.2393341064453,5.678074836730957,7.746340751647949,4.643972396850586,1437.3871278762817
D4:22:CD:00:49:AA,153.81483459472656,-78.7894515991211,148.07449340820312,4.209946632385254,4.515362739562988,1.0093421936035156,1437.3871278762817
D4:22:CD:00:05:6E,23.301971435546875,-79.29972839355469,90.27983856201172,-5.816952705383301,-0.4392489790916443,10.507831573486328,1437.3871278762817
D4:22:CD:00:05:5E,178.32142639160156,-69.69276428222656,-35.50546646118164,-0.5342042446136475,-12.511669158935547,15.842254638671875,1437.3871278762817
D4:22:CD:00:05:5D,179.51234436035156,-51.77028274536133,-106.69412231445312,8.677974700927734,-1.7875621318817139,2.392993927001953,1437.417251586914
D4:22:CD:00:05:6B,-89.902099609375,-15.44655704498291,-135.85614013671875,10.846723556518555,2.863260269165039,11.216371536254883,1437.417251586914
D4:22:CD:00:49:AA,146.3798370361328,-77.6365737915039,155.53468322753906,3.761204242706299,1.0701000690460205,9.864917755126953,1437.417251586914
D4:22:CD:00:05:6E,28.71559715270996,-77.79550170898438,71.35110473632812,16.168254852294922,12.868009567260742,2.8860130310058594,1437.417251586914
D4:22:CD:00:05:5E,-176.66343688964844,-68.64810180664062,-39.2797737121582,-0.2669309973716736,-6.481040000915527,19.52190399169922,1437.417251586914
D4:22:CD:00:05:5D,178.7572479248047,-49.70090103149414,-101.20703125,-1.7539198398590088,0.8905612230300903,2.7843713760375977,1437.4469137191772
D4:22:CD:00:05:6B,-89.93065643310547,-0.8675918579101562,-140.86517333984375,9.944574356079102,-0.4768242835998535,21.797466278076172,1437.4469137191772
D4:22:CD:00:49:AA,142.91561889648438,-76.39424896240234,158.03274536132812,-4.867354393005371,-3.1258468627929688,9.28940200805664,1437.4469137191772
D4:22:CD:00:05:6E,42.48441696166992,-75.34468841552734,64.1502456665039,16.081356048583984,12.720870971679688,0.9762744903564453,1437.4469137191772
D4:22:CD:00:05:5E,-171.8018035888672,-65.32413482666016,-39.83012390136719,6.624853134155273,-5.254850387573242,20.286785125732422,1437.4469137191772
D4:22:CD:00:05:5D,178.42506408691406,-48.940921783447266,-96.25292205810547,-3.27175235748291,1.0460681915283203,1.7179479598999023,1437.4770231246948
D4:22:CD:00:05:6B,-84.76417541503906,16.893857955932617,-143.1258544921875,4.618210792541504,-6.952914237976074,23.998706817626953,1437.4770231246948
D4:22:CD:00:49:AA,143.170654296875,-76.35389709472656,158.78054809570312,-4.633737564086914,-2.194244861602783,7.770233154296875,1437.4770231246948
D4:22:CD:00:05:6E,45.554405212402344,-74.99484252929688,82.25016021728516,-8.623510360717773,5.605769157409668,17.01001739501953,1437.4770231246948
D4:22:CD:00:05:5E,-173.6634979248047,-61.36814498901367,-40.79661178588867,2.1523823738098145,-5.799892425537109,10.232610702514648,1437.4770231246948
D4:22:CD:00:05:5D,179.55601501464844,-48.979488372802734,-94.64152526855469,-6.450313568115234,0.6301629543304443,1.8802766799926758,1437.5070464611053
D4:22:CD:00:05:6B,-73.330322265625,35.29486846923828,-141.3416748046875,-6.307622909545898,-10.702608108520508,19.310409545898438,1437.5070464611053
D4:22:CD:00:49:AA,145.50411987304688,-77.26893615722656,158.9892120361328,-4.923585891723633,0.5503604412078857,8.973163604736328,1437.5070464611053
D4:22:CD:00:05:6E,28.45168685913086,-78.48152923583984,115.61209869384766,-9.434762954711914,3.0175437927246094,10.188886642456055,1437.5070464611053
D4:22:CD:00:05:5E,-177.4326629638672,-59.977046966552734,-37.1711311340332,4.4672441482543945,-0.040123313665390015,5.959493637084961,1437.5070464611053
