Device,EulerX,EulerY,EulerZ,FreeAccX,FreeAccY,FreeAccZ,Timestamp
D4:22:CD:00:05:5D,173.22686767578125,-50.009925842285156,-72.22105407714844,-1.3132164478302002,0.4881342053413391,1.883697509765625,1518.8602232933044
D4:22:CD:00:05:6B,-61.409507751464844,-27.180524826049805,-53.940467834472656,3.491837501525879,19.79503631591797,18.703811645507812,1518.8602232933044
D4:22:CD:00:49:AA,147.34588623046875,-67.33260345458984,131.25608825683594,-0.9488428831100464,1.0027997493743896,8.173076629638672,1518.8602232933044
D4:22:CD:00:05:6E,53.22275161743164,-34.72732925415039,16.497560501098633,15.40762710571289,18.457767486572266,-3.799396514892578,1518.8602232933044
D4:22:CD:00:05:5E,-110.1275634765625,-16.428131103515625,-131.29214477539062,-13.792022705078125,-9.322179794311523,-3.87387752532959,1518.8602232933044
D4:22:CD:00:05:6B,-49.930023193359375,-17.743144989013672,-49.6942138671875,2.51106595993042,13.341032028198242,16.920413970947266,1518.8742277622223
D4:22:CD:00:49:AA,149.0790252685547,-68.31902313232422,131.17918395996094,-1.3437697887420654,0.4715039134025574,5.6808881759643555,1518.8742277622223
D4:22:CD:00:05:6E,61.815452575683594,-34.324501037597656,20.864961624145508,5.889981269836426,10.988277435302734,1.1804733276367188,1518.8742277622223
D4:22:CD:00:05:5E,-107.86355590820312,-16.36939811706543,-130.40603637695312,-8.3704833984375,-4.770392417907715,-3.9709362983703613,1518.8742277622223
D4:22:CD:00:05:6B,-28.811981201171875,-8.465110778808594,-46.87725830078125,-1.112499475479126,6.4774675369262695,11.027578353881836,1518.8796350955963
D4:22:CD:00:49:AA,150.38314819335938,-69.71529388427734,131.16905212402344,-3.036874294281006,0.734789252281189,3.3794946670532227,1518.8796350955963
D4:22:CD:00:05:6E,62.54575729370117,-37.99186325073242,25.966405868530273,10.721027374267578,4.485301971435547,-1.2414751052856445,1518.8796350955963
D4:22:CD:00:05:5E,-106.77815246582031,-18.054048538208008,-131.51048278808594,-3.6213579177856445,-3.415919780731201,-2.4929137229919434,1518.8796350955963
D4:22:CD:00:05:5D,-64.28794860839844,-73.28076934814453,145.67626953125,1.866048812866211,-1.226170301437378,-0.42581748962402344,1518.8846354484558
D4:22:CD:00:05:6E,63.70789337158203,-44.93016052246094,33.266357421875,5.607419967651367,7.207887649536133,6.016026496887207,1518.8846354484558
D4:22:CD:00:05:5E,-105.82677459716797,-20.794994354248047,-135.06494140625,0.16418462991714478,-4.082897186279297,-2.5067296028137207,1518.8846354484558
D4:22:CD:00:05:5D,-169.6396026611328,-64.271484375,-108.29695892333984,-0.019745804369449615,3.771522045135498,0.2901639938354492,1518.8876314163208
D4:22:CD:00:05:6B,-68.15679168701172,4.888637065887451,-68.63052368164062,7.111851692199707,4.680747032165527,27.548133850097656,1518.8876314163208
D4:22:CD:00:49:AA,150.0976104736328,-81.87307739257812,131.0609130859375,0.5197606086730957,-5.449418067932129,11.349363327026367,1518.8876314163208
D4:22:CD:00:05:6E,-47.99243927001953,-66.56202697753906,-161.8791961669922,-4.336251258850098,-0.20071038603782654,16.090694427490234,1518.8876314163208
D4:22:CD:00:05:5D,-173.4143829345703,-60.72165298461914,-104.67578887939453,-1.4008879661560059,3.415245532989502,1.6854429244995117,1518.9266376495361
D4:22:CD:00:05:6B,-51.94214630126953,20.208999633789062,-63.28553009033203,14.251970291137695,-10.677629470825195,26.859115600585938,1518.9266376495361
D4:22:CD:00:49:AA,167.39007568359375,-73.92322540283203,115.53075408935547,-0.052899256348609924,1.3969719409942627,9.864973068237305,1518.9266376495361
D4:22:CD:00:05:6E,-49.83002471923828,-78.20782470703125,-153.78985595703125,-5.759779930114746,-4.320320129394531,11.597127914428711,1518.9266376495361
D4:22:CD:00:05:5E,151.10267639160156,-69.30374145507812,-5.392830848693848,-0.314785361289978,-7.005856513977051,12.61079216003418,1518.9266376495361
D4:22:CD:00:05:5D,-174.96800231933594,-59.24812316894531,-102.83045959472656,-1.7338347434997559,3.185474395751953,2.032289505004883,1518.957093000412
D4:22:CD:00:05:6B,-26.02814292907715,29.71225929260254,-52.85640335083008,9.702295303344727,-14.828126907348633,14.008544921875,1518.957093000412
D4:22:CD:00:49:AA,172.34593200683594,-71.03028869628906,112.3262710571289,-0.6901427507400513,2.972956657409668,6.796010971069336,1518.957093000412
D4:22:CD:00:05:6E,-72.44902038574219,-86.50756072998047,-134.62969970703125,-6.082049369812012,-5.653724670410156,7.274234771728516,1518.957093000412
D4:22:CD:00:05:5E,137.8930206298828,-66.99693298339844,5.337621688842773,2.5301952362060547,-3.1934332847595215,6.6837158203125,1518.957093000412
D4:22:CD:00:05:5D,-175.41287231445312,-59.563507080078125,-102.05927276611328,-2.0054097175598145,2.426039695739746,2.109377861022949,1518.9865181446075
D4:22:CD:00:05:6B,-3.27260160446167,32.8600959777832,-40.52216720581055,0.479428768157959,-12.93967056274414,8.266519546508789,1518.9865181446075
D4:22:CD:00:49:AA,175.917236328125,-70.49903106689453,110.43863677978516,-1.8984787464141846,1.7954652309417725,7.56788444519043,1518.9865181446075
D4:22:CD:00:05:6E,-173.50003051757812,-88.28902435302734,-39.21259307861328,0.7751362323760986,-2.2486095428466797,5.763484001159668,1518.9865181446075
D4:22:CD:00:05:5E,128.908203125,-68.9983139038086,15.421087265014648,8.009096145629883,16.621849060058594,1.276987075805664,1518.9865181446075
D4:22:CD:00:05:5D,-175.27294921875,-61.47225570678711,-102.01175689697266,-1.0148077011108398,2.057796001434326,2.184549331665039,1519.0167181491852
D4:22:CD:00:05:6B,17.06705093383789,33.2409553527832,-33.61908721923828,-12.256904602050781,-17.184024810791016,0.41205596923828125,1519.0167181491852
D4:22:CD:00:49:AA,-179.15040588378906,-71.82038116455078,108.13212585449219,-1.81174635887146,2.9194369316101074,3.279325485229492,1519.0167181491852
D4:22:CD:00:05:6E,-86.29791259765625,-86.88285064697266,-120.93424987792969,1.0025758743286133,-2.535400867462158,4.223085403442383,1519.0167181491852
D4:22:CD:00:05:5E,151.59530639648438,-78.4653091430664,-1.4993796348571777,2.6304073333740234,4.956911087036133,-3.857051372528076,1519.0167181491852
D4:22:CD:00:05:5D,-175.03561401367188,-64.90694427490234,-101.53817749023438,-4.702864646911621,0.916088342666626,3.495333671569824,1519.0462291240692
D4:22:CD:00:05:6B,36.22447967529297,33.54973602294922,-31.370054244995117,-18.7625732421875,-9.75704574584961,-9.270627975463867,1519.0462291240692
D4:22:CD:00:49:AA,-172.39022827148438,-73.21759033203125,104.48546600341797,-0.22777622938156128,2.870528221130371,-0.03217506408691406,1519.0462291240692
D4:22:CD:00:05:6E,-55.03853225708008,-79.98189544677734,-137.8861846923828,-8.670124053955078,-7.77995491027832,-0.5482950210571289,1519.0462291240692
D4:22:CD:00:05:5E,169.09982299804688,-86.6883773803711,-15.048742294311523,3.432565212249756,6.8356523513793945,-6.303336143493652,1519.0462291240692
D4:22:CD:00:05:5D,-175.68411254882812,-68.9982681274414,-99.19277954101562,-2.8373122215270996,-3.6249351501464844,3.853870391845703,1519.077384710312
D4:22:CD:00:05:6B,49.888423919677734,34.78416442871094,-31.743642807006836,-7.837011337280273,3.5041069984436035,-10.773578643798828,1519.077384710312
D4:22:CD:00:49:AA,-164.98501586914062,-74.1032485961914,100.50303649902344,0.2708902955055237,0.7230753898620605,-1.5880374908447266,1519.077384710312
D4:22:CD:00:05:6E,-49.0302619934082,-73.47709655761719,-130.86036682128906,-9.057851791381836,-10.110034942626953,-4.92633056640625,1519.077384710312
D4:22:CD:00:05:5E,-13.4953031539917,-82.97024536132812,171.45651245117188,1.7352917194366455,6.132471084594727,-5.750903129577637,1519.077384710312
D4:22:CD:00:05:5D,-177.0138397216797,-72.5587158203125,-97.01264953613281,0.20205926895141602,-3.8426828384399414,0.4462575912475586,1519.1069102287292
D4:22:CD:00:05:6B,53.927371978759766,37.04643249511719,-35.42757034301758,2.2291259765625,8.008829116821289,-5.920753479003906,1519.1069102287292
D4:22:CD:00:49:AA,-159.34556579589844,-74.87896728515625,97.6644058227539,0.7049580812454224,0.5954970121383667,-3.6873888969421387,1519.1069102287292
D4:22:CD:00:05:6E,-49.0781135559082,-68.93704223632812,-119.51146697998047,-3.9512786865234375,-10.90275764465332,-6.475447654724121,1519.1069102287292
D4:22:CD:00:05:5E,-9.66631031036377,-71.60856628417969,168.0741729736328,-1.7970519065856934,5.673626899719238,-5.388219833374023,1519.1069102287292
D4:22:CD:00:05:5D,-179.71945190429688,-75.81050109863281,-94.15653228759766,4.493973731994629,-0.6475383043289185,-3.200350284576416,1519.1361038684845
D4:22:CD:00:05:6B,47.87372970581055,39.687217712402344,-42.68095779418945,3.377258777618408,1.3245265483856201,-8.036693572998047,1519.1361038684845
D4:22:CD:00:49:AA,-156.55381774902344,-76.11347198486328,95.85035705566406,0.60146164894104,-0.3686982989311218,-5.599264144897461,1519.1361038684845
D4:22:CD:00:05:6E,-48.016597747802734,-66.48771667480469,-109.09125518798828,1.6388013362884521,-10.092363357543945,-5.9798078536987305,1519.1361038684845
D4:22:CD:00:05:5E,-14.11274242401123,-61.00801467895508,167.6796112060547,-8.707822799682617,2.5619282722473145,-10.344945907592773,1519.1361038684845
D4:22:CD:00:05:5D,177.80996704101562,-78.72624969482422,-90.65034484863281,5.234285354614258,2.154144287109375,-4.732296943664551,1519.1968567371368
D4:22:CD:00:05:6B,38.048744201660156,43.84695816040039,-52.31507110595703,1.7306766510009766,-3.8776698112487793,-10.913835525512695,1519.1968567371368
D4:22:CD:00:49:AA,-153.5849151611328,-77.69583892822266,92.45530700683594,-0.5721125602722168,-1.422550916671753,-6.913619041442871,1519.1968567371368
D4:22:CD:00:05:6E,-46.53499984741211,-65.88887786865234,-102.09817504882812,3.440481662750244,-9.99993896484375,-8.597526550292969,1519.1968567371368
D4:22:CD:00:05:5E,-23.760997772216797,-53.46968078613281,166.558837890625,-13.35304069519043,2.0328845977783203,-11.242427825927734,1519.1968567371368
D4:22:CD:00:05:5D,174.76437377929688,-80.11821746826172,-85.13224029541016,4.357033729553223,4.022360801696777,-7.680459976196289,1519.2260422706604
D4:22:CD:00:05:6B,25.58597755432129,49.47382736206055,-66.18730926513672,1.1832828521728516,-3.5665488243103027,-14.444190979003906,1519.2260422706604
D4:22:CD:00:49:AA,-150.76991271972656,-79.15302276611328,89.63963317871094,0.2842836380004883,-0.5173256397247314,-7.993991851806641,1519.2260422706604
D4:22:CD:00:05:6E,-49.9356689453125,-67.55577087402344,-98.39594268798828,3.1740684509277344,-9.65423583984375,-11.043294906616211,1519.2260422706604
D4:22:CD:00:05:5E,-35.78883361816406,-48.670257568359375,166.54917907714844,-13.47740364074707,5.840620994567871,-11.355709075927734,1519.2260422706604
D4:22:CD:00:05:5D,173.07559204101562,-79.51571655273438,-82.52857208251953,-0.2919347882270813,3.201519012451172,-6.326875686645508,1519.2565968036652
D4:22:CD:00:05:6B,4.342698574066162,52.26734161376953,-86.1102523803711,2.029237747192383,-1.6113107204437256,-18.733489990234375,1519.2565968036652
D4:22:CD:00:49:AA,-148.82090759277344,-80.42430877685547,87.57604217529297,0.8869121074676514,-0.2493082880973816,-7.372194290161133,1519.2565968036652
D4:22:CD:00:05:6E,-56.25349807739258,-71.75883483886719,-98.45292663574219,3.1299867630004883,-4.556256294250488,-9.693460464477539,1519.2565968036652
D4:22:CD:00:05:5E,-48.3625602722168,-47.44095230102539,168.66024780273438,-11.897489547729492,6.455182075500488,-18.99606704711914,1519.2565968036652
D4:22:CD:00:05:5D,167.29495239257812,-77.53721618652344,-80.4509506225586,-1.179659128189087,-2.5319790840148926,-4.261092185974121,1519.2869908809662
D4:22:CD:00:05:6B,-21.804716110229492,48.804203033447266,-104.43218994140625,-7.839611053466797,-5.314810752868652,-23.389049530029297,1519.2869908809662
D4:22:CD:00:49:AA,-146.94419860839844,-81.65249633789062,85.4964599609375,0.9171402454376221,-1.6942408084869385,-6.495957374572754,1519.2869908809662
D4:22:CD:00:05:6E,-54.83186340332031,-77.11707305908203,-105.54769134521484,3.117737293243408,-0.5452055931091309,-7.674044609069824,1519.2869908809662
D4:22:CD:00:05:5E,-62.36323928833008,-49.865013122558594,173.5361328125,-11.345678329467773,9.658409118652344,-17.145069122314453,1519.2869908809662
D4:22:CD:00:05:5D,161.23118591308594,-74.13927459716797,-75.03614044189453,1.0142078399658203,-6.719074249267578,-0.8824462890625,1519.3165080547333
D4:22:CD:00:05:6B,-41.73040771484375,43.54096984863281,-112.86100006103516,-4.301796913146973,-0.8322048187255859,-14.458749771118164,1519.3165080547333
D4:22:CD:00:49:AA,-149.1053466796875,-82.29594421386719,86.4881820678711,0.12694305181503296,-0.9070624113082886,-4.373679161071777,1519.3165080547333
D4:22:CD:00:05:6E,-31.830799102783203,-81.7032699584961,-129.35362243652344,2.052074909210205,0.26178914308547974,-6.071169853210449,1519.3165080547333
D4:22:CD:00:05:5E,-78.94996643066406,-53.01349639892578,-174.49172973632812,-14.77719497680664,6.831104278564453,-0.7653141021728516,1519.3165080547333
D4:22:CD:00:05:5D,158.58291625976562,-69.51874542236328,-66.58081817626953,-1.8089361190795898,-1.4496397972106934,4.060310363769531,1519.346221446991
D4:22:CD:00:05:6B,-54.738922119140625,43.11643600463867,-110.65680694580078,-3.389329433441162,3.6012840270996094,-8.205463409423828,1519.346221446991
D4:22:CD:00:49:AA,-154.71484375,-82.97504425048828,90.05615234375,-2.6590662002563477,0.8265725374221802,0.7144880294799805,1519.346221446991
D4:22:CD:00:05:6E,14.232460975646973,-82.43345642089844,-171.1977996826172,1.0145163536071777,-0.723996639251709,-2.667151927947998,1519.346221446991
D4:22:CD:00:05:5E,-92.51252746582031,-55.13532257080078,-160.97454833984375,-9.900270462036133,-9.150249481201172,-2.7505364418029785,1519.346221446991
D4:22:CD:00:05:5D,156.3411102294922,-64.83949279785156,-60.871009826660156,0.26776987314224243,-1.997377872467041,6.478849411010742,1519.3765051364899
D4:22:CD:00:05:6B,-54.30369567871094,46.78057098388672,-99.3384780883789,-9.896890640258789,-7.393728256225586,2.5257644653320312,1519.3765051364899
D4:22:CD:00:49:AA,-165.9637451171875,-83.3908462524414,99.15703582763672,-4.319577217102051,-2.5572948455810547,7.07921028137207,1519.3765051364899
D4:22:CD:00:05:6E,41.615570068359375,-80.48973846435547,169.3697509765625,1.5315494537353516,-2.9754085540771484,4.314838409423828,1519.3765051364899
D4:22:CD:00:05:5E,-101.71855926513672,-56.66391372680664,-149.39019775390625,-16.297496795654297,-5.313965797424316,0.7624225616455078,1519.3765051364899
D4:22:CD:00:05:5D,153.19888305664062,-60.73794174194336,-57.18394470214844,-1.3750035762786865,1.7883234024047852,2.226773262023926,1519.4068720340729
D4:22:CD:00:05:6B,-32.509891510009766,47.040306091308594,-81.89087677001953,-4.863576889038086,-3.8872733116149902,-9.115776062011719,1519.4068720340729
D4:22:CD:00:49:AA,-174.4082794189453,-83.33802795410156,106.27069854736328,-1.1369080543518066,-1.8863129615783691,6.865226745605469,1519.4068720340729
D4:22:CD:00:05:6E,55.64556884765625,-79.52202606201172,163.69073486328125,6.304729461669922,-4.704995155334473,9.323114395141602,1519.4068720340729
D4:22:CD:00:05:5E,-108.4378433227539,-56.90959167480469,-141.31585693359375,-0.4336162209510803,-1.2720880508422852,9.981389999389648,1519.4068720340729
D4:22:CD:00:05:5D,150.07098388671875,-59.131202697753906,-55.33871078491211,-3.276914119720459,2.846038341522217,4.156336784362793,1519.4666285514832
D4:22:CD:00:05:6B,-10.968912124633789,40.5196533203125,-63.115238189697266,-2.222133159637451,-2.2725791931152344,-10.311677932739258,1519.4666285514832
D4:22:CD:00:49:AA,-171.8887176513672,-85.06433868408203,103.95098114013672,-2.256892204284668,-1.2383744716644287,7.089208602905273,1519.4666285514832
D4:22:CD:00:05:6E,68.584228515625,-79.8247299194336,153.13526916503906,9.611602783203125,-3.401978015899658,12.026163101196289,1519.4666285514832
D4:22:CD:00:05:5E,-112.90968322753906,-57.40068435668945,-136.53102111816406,-1.2117571830749512,4.86019229888916,2.454977035522461,1519.4666285514832
D4:22:CD:00:05:5D,145.9217987060547,-59.49561309814453,-52.211647033691406,2.0987353324890137,0.5654743909835815,4.968279838562012,1519.4968292713165
D4:22:CD:00:05:6B,-3.0470378398895264,27.222131729125977,-49.050498962402344,-3.576213836669922,-0.7084509134292603,-0.7998886108398438,1519.4968292713165
D4:22:CD:00:49:AA,-173.66363525390625,-85.65196990966797,107.19031524658203,5.420083045959473,5.060401916503906,4.751542091369629,1519.4968292713165
D4:22:CD:00:05:6E,82.31988525390625,-77.66088104248047,131.9828338623047,3.07132625579834,-0.8413809537887573,12.424627304077148,1519.4968292713165
D4:22:CD:00:05:5E,-116.27177429199219,-59.250709533691406,-134.401123046875,-7.854866981506348,-0.5577627420425415,1.7062187194824219,1519.4968292713165
D4:22:CD:00:05:5D,141.29495239257812,-61.375648498535156,-49.203575134277344,2.4334959983825684,-2.672895908355713,6.526266098022461,1519.5268807411194
D4:22:CD:00:05:6B,-4.777253150939941,10.953971862792969,-38.71924591064453,-1.9400839805603027,1.5366837978363037,1.7976045608520508,1519.5268807411194
D4:22:CD:00:49:AA,-178.98321533203125,-84.6432876586914,111.68283081054688,9.755685806274414,3.713080406188965,2.832587242126465,1519.5268807411194
D4:22:CD:00:05:6E,85.82280731201172,-73.86024475097656,116.5977783203125,-4.562864303588867,7.770448684692383,4.816039085388184,1519.5268807411194
D4:22:CD:00:05:5E,-117.0334243774414,-62.0852165222168,-134.43267822265625,-5.011309623718262,1.675696849822998,0.6406631469726562,1519.5268807411194
D4:22:CD:00:05:5D,131.40347290039062,-65.1450424194336,-45.372352600097656,3.8366880416870117,1.3125543594360352,3.236912727355957,1519.5564360618591
D4:22:CD:00:05:6B,-15.672813415527344,-4.912245750427246,-27.6269474029541,3.353259563446045,6.515682220458984,4.165066719055176,1519.5564360618591
D4:22:CD:00:49:AA,-179.2422332763672,-82.55429077148438,109.691162109375,4.639430046081543,-1.6283581256866455,0.9553813934326172,1519.5564360618591
D4:22:CD:00:05:6E,88.76863098144531,-72.00418090820312,111.955322265625,-2.063821792602539,9.21786117553711,-2.733414649963379,1519.5564360618591
D4:22:CD:00:05:5E,-116.02864837646484,-65.35598754882812,-136.54466247558594,-4.687993049621582,0.497630774974823,-0.15413951873779297,1519.5564360618591
D4:22:CD:00:05:5D,127.92955017089844,-65.89276123046875,-46.620243072509766,7.442960739135742,16.665359497070312,1.3672609329223633,1519.5865242481232
D4:22:CD:00:05:6B,-33.95280075073242,-18.463665008544922,-14.504840850830078,6.470836639404297,3.2277822494506836,-5.668647766113281,1519.5865242481232
D4:22:CD:00:49:AA,179.0894317626953,-80.70855712890625,109.6395492553711,4.357686996459961,0.10725615918636322,-0.7691650390625,1519.5865242481232
D4:22:CD:00:05:6E,90.07010650634766,-72.10385131835938,115.8494644165039,-3.2274560928344727,-1.2545802593231201,-2.9699668884277344,1519.5865242481232
D4:22:CD:00:05:5E,-112.08824157714844,-68.6622314453125,-140.89566040039062,-4.6324872970581055,-0.2315337061882019,-0.3029918670654297,1519.5865242481232
D4:22:CD:00:05:5D,137.56057739257812,-61.6812858581543,-57.326168060302734,12.344175338745117,14.993337631225586,2.476654052734375,1519.616596698761
D4:22:CD:00:05:6B,-51.2286262512207,-27.549543380737305,-0.4351675510406494,3.7986788749694824,3.589977741241455,0.14592361450195312,1519.616596698761
D4:22:CD:00:49:AA,174.9518280029297,-79.44406127929688,112.32321166992188,3.8692636489868164,-0.9524595737457275,-1.3827295303344727,1519.616596698761
D4:22:CD:00:05:6E,85.29717254638672,-72.60784912109375,121.64155578613281,-5.19260311126709,-2.185042381286621,-3.7286601066589355,1519.616596698761
D4:22:CD:00:05:5E,-98.96044158935547,-73.08682250976562,-151.58216857910156,-4.823331832885742,-1.2683722972869873,-1.3881340026855469,1519.616596698761
D4:22:CD:00:05:5D,147.42694091796875,-54.79319381713867,-70.10958099365234,4.670923233032227,4.90103816986084,1.3131027221679688,1519.646336555481
D4:22:CD:00:05:6B,-56.73857116699219,-32.4431266784668,8.187767028808594,-4.028660774230957,5.031072616577148,5.753668785095215,1519.646336555481
D4:22:CD:00:49:AA,171.31573486328125,-78.46565246582031,115.11107635498047,1.2485733032226562,0.4382472038269043,-3.6447911262512207,1519.646336555481
D4:22:CD:00:05:6E,80.83650207519531,-73.17223358154297,125.71744537353516,-5.148595809936523,-0.8642599582672119,-4.573659896850586,1519.646336555481
D4:22:CD:00:05:5E,-77.18099212646484,-75.80699157714844,-168.3869171142578,-3.5549283027648926,0.38931185007095337,-3.949808120727539,1519.646336555481
D4:22:CD:00:05:5D,152.11297607421875,-47.01411437988281,-80.3565673828125,3.5600719451904297,-1.105417251586914,-5.121125221252441,1519.691514492035
D4:22:CD:00:05:6B,-49.126461029052734,-35.814178466796875,9.109362602233887,-3.3851356506347656,3.7439022064208984,-7.389819145202637,1519.691514492035
D4:22:CD:00:49:AA,169.93116760253906,-77.28529357910156,116.22076416015625,0.49776411056518555,1.428842544555664,-5.100954055786133,1519.691514492035
D4:22:CD:00:05:6E,79.61873626708984,-73.4833984375,127.29060363769531,-2.7565526962280273,-1.2667808532714844,-5.1991424560546875,1519.691514492035
D4:22:CD:00:05:5E,-64.04689025878906,-76.34587860107422,-177.72666931152344,-5.946192741394043,-1.6694016456604004,-4.229559898376465,1519.691514492035
D4:22:CD:00:05:5D,156.09811401367188,-40.113529205322266,-87.96171569824219,0.17407408356666565,-1.7171990871429443,-11.09769058227539,1519.7067656517029
D4:22:CD:00:05:6B,-42.51480484008789,-40.10413360595703,6.8588080406188965,-2.4032230377197266,2.9986915588378906,-9.087163925170898,1519.7067656517029
D4:22:CD:00:49:AA,169.57127380371094,-76.05787658691406,116.85910034179688,0.11110225319862366,0.8873894214630127,-4.868858337402344,1519.7067656517029
D4:22:CD:00:05:6E,81.9012451171875,-73.36113739013672,125.82403564453125,-1.5066218376159668,-2.6428961753845215,-5.910268783569336,1519.7067656517029
D4:22:CD:00:05:5E,-63.017852783203125,-76.68199157714844,-177.03244018554688,-1.7755799293518066,1.1295886039733887,-1.190506935119629,1519.7067656517029
D4:22:CD:00:05:5D,159.66160583496094,-35.29862976074219,-94.2020263671875,-3.0547127723693848,-1.2922775745391846,-13.593997955322266,1519.7668735980988
D4:22:CD:00:05:6B,-37.160430908203125,-46.861000061035156,2.764967918395996,0.7127214670181274,3.184966564178467,-6.212675094604492,1519.7668735980988
D4:22:CD:00:49:AA,169.3572998046875,-75.26066589355469,117.4867935180664,0.33696430921554565,0.2852068543434143,-5.644098281860352,1519.7668735980988
D4:22:CD:00:05:6E,87.03531646728516,-72.76123046875,120.46661376953125,-0.4695729613304138,-3.3118085861206055,-6.727644920349121,1519.7668735980988
D4:22:CD:00:05:5E,-78.7262954711914,-77.03601837158203,-162.1444549560547,-4.872328758239746,-2.3526530265808105,-0.7669353485107422,1519.7668735980988
D4:22:CD:00:05:5D,162.2984619140625,-33.064476013183594,-99.67889404296875,-4.813176155090332,-1.8735747337341309,-12.01237678527832,1519.7968916893005
D4:22:CD:00:05:6B,-32.52250289916992,-56.57372283935547,-5.224469184875488,5.32241153717041,1.1374459266662598,0.9007968902587891,1519.7968916893005
D4:22:CD:00:49:AA,170.7709197998047,-74.91028594970703,116.30941009521484,1.7354793548583984,-0.17571979761123657,-5.8040971755981445,1519.7968916893005
D4:22:CD:00:05:6E,93.04452514648438,-72.09197235107422,112.5875015258789,0.8685276508331299,-3.2791333198547363,-5.318907737731934,1519.7968916893005
D4:22:CD:00:05:5E,-101.99332427978516,-75.6668472290039,-139.76983642578125,-3.6839170455932617,-1.9159235954284668,-2.728206157684326,1519.7968916893005
D4:22:CD:00:05:5D,163.1776123046875,-33.36029815673828,-104.47085571289062,-6.677249908447266,-2.0679092407226562,-4.159375190734863,1519.8268768787384
D4:22:CD:00:05:6B,-19.2879695892334,-68.77423095703125,-24.723432540893555,8.116737365722656,-4.842348098754883,27.5916748046875,1519.8268768787384
D4:22:CD:00:49:AA,173.96368408203125,-75.22196197509766,113.6860122680664,1.7510526180267334,0.8182410001754761,-3.7630505561828613,1519.8268768787384
D4:22:CD:00:05:6E,96.24822235107422,-71.21956634521484,106.91535186767578,3.86936616897583,-1.6812567710876465,-2.8429436683654785,1519.8268768787384
D4:22:CD:00:05:5E,-118.38499450683594,-72.99217987060547,-122.39112091064453,-4.509021759033203,3.5203628540039062,-4.8643999099731445,1519.8268768787384
D4:22:CD:00:05:5D,157.72628784179688,-32.108985900878906,-108.13092041015625,0.0701414942741394,0.3797328472137451,20.6707763671875,1519.8565123081207
D4:22:CD:00:05:6B,10.60764217376709,-73.70535278320312,-59.968406677246094,-0.6546958684921265,-3.248480796813965,30.431987762451172,1519.8565123081207
D4:22:CD:00:49:AA,177.40611267089844,-76.07313537597656,111.08748626708984,0.3738008141517639,3.7117438316345215,1.4590978622436523,1519.8565123081207
D4:22:CD:00:05:6E,96.6888198852539,-69.79572296142578,106.85856628417969,2.106356143951416,-3.508662223815918,-0.559168815612793,1519.8565123081207
D4:22:CD:00:05:5E,-128.24920654296875,-70.51045227050781,-111.57035064697266,-6.853361129760742,-1.4361989498138428,1.2206544876098633,1519.8565123081207
D4:22:CD:00:05:5D,157.490234375,-29.21913719177246,-107.78324127197266,-14.566898345947266,-16.988605499267578,-4.944291114807129,1519.8868021965027
D4:22:CD:00:05:6B,-2.2974061965942383,-71.57698822021484,-47.44457244873047,11.567466735839844,9.379547119140625,7.667692184448242,1519.8868021965027
D4:22:CD:00:49:AA,-178.6125946044922,-76.10157775878906,107.70435333251953,-0.5504359006881714,-0.9359430074691772,4.722652435302734,1519.8868021965027
D4:22:CD:00:05:6E,95.4446029663086,-66.54560089111328,106.49271392822266,-0.1971379816532135,-12.067838668823242,11.54574966430664,1519.8868021965027
D4:22:CD:00:05:5E,-134.2640838623047,-67.95291900634766,-105.41401672363281,-5.349494934082031,0.6810407638549805,1.039438247680664,1519.8868021965027
D4:22:CD:00:05:5D,159.29786682128906,-26.8113956451416,-105.37159729003906,-4.487656593322754,-23.273040771484375,3.4457616806030273,1519.9177854061127
D4:22:CD:00:05:6B,-30.542064666748047,-61.78947830200195,-18.360795974731445,11.716028213500977,-8.994749069213867,11.618101119995117,1519.9177854061127
D4:22:CD:00:49:AA,-178.25460815429688,-75.8491439819336,107.50601196289062,5.95097541809082,1.0209038257598877,10.379405975341797,1519.9177854061127
D4:22:CD:00:05:6E,89.93659973144531,-59.567726135253906,106.36634826660156,10.098346710205078,-5.610040664672852,27.01479721069336,1519.9177854061127
D4:22:CD:00:05:5E,-137.33485412597656,-66.01829528808594,-102.94667053222656,-6.155736923217773,1.6200480461120605,-1.6172313690185547,1519.9177854061127
D4:22:CD:00:05:5D,165.8829803466797,-24.093549728393555,-100.96461486816406,-19.32427978515625,-11.525774002075195,14.454500198364258,1519.946717262268
D4:22:CD:00:05:6B,-44.01491165161133,-45.90941619873047,-5.568214416503906,20.244274139404297,-4.220458030700684,16.24142837524414,1519.946717262268
D4:22:CD:00:49:AA,-177.9652557373047,-76.6414566040039,106.05855560302734,2.4451980590820312,2.3910202980041504,5.555532455444336,1519.946717262268
D4:22:CD:00:05:6E,88.63531494140625,-46.44687271118164,107.63025665283203,7.041604995727539,-4.948319435119629,31.268264770507812,1519.946717262268
D4:22:CD:00:05:5E,-137.9755096435547,-65.01624298095703,-103.63752746582031,-5.494565010070801,0.9710919857025146,1.0943584442138672,1519.946717262268
D4:22:CD:00:05:5D,164.94586181640625,-21.397066116333008,-94.98408508300781,-1.1247572898864746,-12.007326126098633,5.203154563903809,1519.9770712852478
D4:22:CD:00:05:6B,-45.88760757446289,-31.916667938232422,-3.0084993839263916,16.013877868652344,3.6591286659240723,1.4532012939453125,1519.9770712852478
D4:22:CD:00:49:AA,-179.99008178710938,-77.36467742919922,106.13762664794922,0.8872051239013672,1.7485902309417725,8.417068481445312,1519.9770712852478
D4:22:CD:00:05:6E,87.6297836303711,-27.80940818786621,108.37590789794922,13.690807342529297,5.717410087585449,22.0904541015625,1519.9770712852478
D4:22:CD:00:05:5E,-136.65383911132812,-65.0572280883789,-106.65174102783203,-5.386634826660156,1.4333710670471191,0.8727321624755859,1519.9770712852478
D4:22:CD:00:05:5D,166.5009002685547,-18.171857833862305,-91.77606964111328,-1.8589293956756592,-4.341364860534668,9.602865219116211,1520.0065150260925
D4:22:CD:00:05:6B,-47.67739486694336,-22.086048126220703,-4.565048694610596,9.016767501831055,-0.16205787658691406,-3.339254379272461,1520.0065150260925
D4:22:CD:00:49:AA,175.7619171142578,-78.06564331054688,108.41100311279297,3.872244358062744,2.4514966011047363,6.072305679321289,1520.0065150260925
D4:22:CD:00:05:6E,91.78343963623047,-6.932640552520752,112.89170837402344,15.136682510375977,14.721384048461914,3.5684385299682617,1520.0065150260925
D4:22:CD:00:05:5E,-133.57589721679688,-66.4650650024414,-111.82615661621094,-4.96120548248291,1.7599220275878906,0.9104604721069336,1520.0065150260925
D4:22:CD:00:05:5D,165.91090393066406,-16.28326988220215,-91.3135757446289,-1.9056732654571533,-0.7880750894546509,2.563457489013672,1520.0667719841003
D4:22:CD:00:05:6B,-49.55015182495117,-17.51624298095703,-8.125652313232422,2.7368721961975098,-0.21486496925354004,-8.307699203491211,1520.0667719841003
D4:22:CD:00:49:AA,171.83592224121094,-77.78215026855469,109.9703598022461,3.6014318466186523,2.79655122756958,2.5196571350097656,1520.0667719841003
D4:22:CD:00:05:6E,98.59396362304688,13.453720092773438,121.82942962646484,0.6672326326370239,14.040781021118164,9.777198791503906,1520.0667719841003
D4:22:CD:00:05:5E,-128.13873291015625,-69.07608795166016,-119.5955581665039,-4.439262390136719,1.5964550971984863,1.1857843399047852,1520.0667719841003
D4:22:CD:00:05:5D,162.99061584472656,-16.261709213256836,-91.99771118164062,-3.791388511657715,0.4344722628593445,-3.2684478759765625,1520.0969123840332
D4:22:CD:00:05:6B,-53.94609832763672,-18.710004806518555,-12.528854370117188,0.26701879501342773,0.5339211225509644,-9.547159194946289,1520.0969123840332
D4:22:CD:00:49:AA,169.15101623535156,-76.45628356933594,110.11109924316406,1.6205532550811768,1.4224779605865479,-0.3646736145019531,1520.0969123840332
D4:22:CD:00:05:6E,100.19615936279297,31.636886596679688,131.45352172851562,-9.63499641418457,7.452507019042969,3.238406181335449,1520.0969123840332
D4:22:CD:00:05:5E,-118.67389678955078,-72.49537658691406,-130.8855743408203,-3.647480010986328,-0.2068672776222229,2.060938835144043,1520.0969123840332
D4:22:CD:00:05:5D,159.62261962890625,-18.19197654724121,-92.50787353515625,-2.635265350341797,1.0891132354736328,-10.525993347167969,1520.1269159317017
D4:22:CD:00:05:6B,-61.39506912231445,-24.6115779876709,-16.732053756713867,1.214576244354248,0.7507228851318359,-5.440448760986328,1520.1269159317017
D4:22:CD:00:49:AA,166.52317810058594,-75.23428344726562,110.77494812011719,0.3363076448440552,1.4069547653198242,-3.575204849243164,1520.1269159317017
D4:22:CD:00:05:6E,102.92927551269531,46.60228729248047,139.37107849121094,-13.292877197265625,-5.481123924255371,-3.1474223136901855,1520.1269159317017
D4:22:CD:00:05:5E,-103.63162994384766,-75.52224731445312,-146.47335815429688,-4.482547760009766,-1.9605531692504883,2.16943359375,1520.1269159317017
D4:22:CD:00:05:5D,157.76731872558594,-22.191287994384766,-92.72421264648438,-3.8590683937072754,-0.7739406824111938,-16.467002868652344,1520.1564486026764
D4:22:CD:00:05:6B,-66.72757720947266,-33.26309585571289,-21.248008728027344,1.0567564964294434,2.719721794128418,-0.1012887954711914,1520.1564486026764
D4:22:CD:00:49:AA,164.39657592773438,-73.77130126953125,111.49279022216797,0.04031302034854889,0.9377913475036621,-4.665637016296387,1520.1564486026764
D4:22:CD:00:05:6E,105.85933685302734,58.736976623535156,142.10939025878906,-9.329950332641602,-10.68082046508789,-4.029875755310059,1520.1564486026764
D4:22:CD:00:05:5E,-83.73047637939453,-77.09827423095703,-165.6872100830078,-3.417485237121582,-1.0885260105133057,-0.7784786224365234,1520.1564486026764
D4:22:CD:00:05:5D,156.907470703125,-29.137710571289062,-92.58704376220703,-4.882970809936523,-1.4139761924743652,-16.24761962890625,1520.1864519119263
D4:22:CD:00:05:6B,-64.29417419433594,-43.06288146972656,-27.737009048461914,-1.060387372970581,2.258112907409668,-0.8196983337402344,1520.1864519119263
D4:22:CD:00:49:AA,163.054443359375,-72.90892028808594,111.63877868652344,-0.236728698015213,0.7528222799301147,-2.942251682281494,1520.1864519119263
D4:22:CD:00:05:6E,108.69236755371094,65.70266723632812,143.4564971923828,-3.973766803741455,1.087761640548706,-7.183051109313965,1520.1864519119263
D4:22:CD:00:05:5E,-64.30439758300781,-76.64861297607422,176.0128936767578,-4.329854965209961,-0.406646728515625,-3.7283215522766113,1520.1864519119263
D4:22:CD:00:05:5D,154.1063995361328,-39.44779968261719,-91.44973754882812,-4.163677215576172,-2.580471992492676,-11.691364288330078,1520.2168142795563
D4:22:CD:00:05:6B,-56.27730178833008,-53.19780731201172,-36.2746696472168,-0.7179714441299438,0.7690709829330444,-3.8971643447875977,1520.2168142795563
D4:22:CD:00:49:AA,162.50523376464844,-73.00334930419922,111.44041442871094,-0.29060280323028564,0.28591084480285645,-3.7279372215270996,1520.2168142795563
D4:22:CD:00:05:6E,104.87959289550781,66.72149658203125,150.95773315429688,-1.1378734111785889,0.5585111379623413,-9.917579650878906,1520.2168142795563
D4:22:CD:00:05:5E,-56.095272064208984,-75.19486999511719,167.49050903320312,-3.166233539581299,-0.2881529927253723,-6.766034126281738,1520.2168142795563
D4:22:CD:00:05:5D,148.05665588378906,-52.604644775390625,-88.34526824951172,-1.3936667442321777,-2.2522974014282227,-4.867053031921387,1520.2468147277832
D4:22:CD:00:05:6B,-51.17580032348633,-62.09803771972656,-45.19667053222656,0.6865884065628052,1.203439474105835,-3.336012363433838,1520.2468147277832
D4:22:CD:00:49:AA,162.52113342285156,-73.81371307373047,111.27228546142578,-0.08665227890014648,-0.8215261697769165,-5.648311614990234,1520.2468147277832
D4:22:CD:00:05:6E,96.1402816772461,61.43963623046875,161.27804565429688,-1.571822166442871,-7.7797441482543945,-9.998811721801758,1520.2468147277832
D4:22:CD:00:05:5E,-59.46187973022461,-74.29034423828125,169.44003295898438,-4.8100996017456055,-0.46050918102264404,-8.270416259765625,1520.2468147277832
D4:22:CD:00:05:5D,138.99078369140625,-67.1871109008789,-79.79873657226562,3.161025047302246,-5.511220932006836,2.4678115844726562,1520.2766199111938
D4:22:CD:00:05:6B,-51.699954986572266,-68.90434265136719,-53.92606735229492,-2.924354076385498,3.422269344329834,-1.7250242233276367,1520.2766199111938
D4:22:CD:00:49:AA,163.3343963623047,-74.8478012084961,110.96066284179688,-0.04662167280912399,-1.3445193767547607,-5.571642875671387,1520.2766199111938
D4:22:CD:00:05:6E,86.50128936767578,51.22593307495117,168.4238739013672,-6.781611442565918,-6.50139045715332,-16.604415893554688,1520.2766199111938
D4:22:CD:00:05:5E,-66.65995788574219,-73.85748291015625,176.21551513671875,-5.33139705657959,0.9113304615020752,-7.879914283752441,1520.2766199111938
D4:22:CD:00:05:5D,107.805908203125,-79.5064468383789,-43.685001373291016,9.28421401977539,4.301958084106445,18.70916748046875,1520.3068916797638
D4:22:CD:00:05:6B,-45.1862907409668,-74.27367401123047,-66.2580337524414,-5.698256492614746,6.937912940979004,-3.3495826721191406,1520.3068916797638
D4:22:CD:00:49:AA,165.38841247558594,-76.38386535644531,110.146484375,1.4838178157806396,-1.4536335468292236,-4.187097549438477,1520.3068916797638
D4:22:CD:00:05:6E,71.5450668334961,40.41802215576172,174.67286682128906,-27.69210433959961,-4.333227157592773,-10.500286102294922,1520.3068916797638
D4:22:CD:00:05:5E,-74.91643524169922,-73.09504699707031,-175.8235626220703,-6.682496070861816,-0.7954093217849731,-2.3760666847229004,1520.3068916797638
D4:22:CD:00:05:5D,66.99610137939453,-79.48072052001953,5.943716526031494,7.846487998962402,24.781452178955078,-5.143726348876953,1520.366460800171
D4:22:CD:00:05:6B,-26.603700637817383,-78.4544677734375,-84.64114379882812,-3.321800708770752,7.81846809387207,-6.758082389831543,1520.366460800171
D4:22:CD:00:49:AA,167.3345489501953,-78.39205169677734,109.74034118652344,3.8037681579589844,-1.142683506011963,-3.216726303100586,1520.366460800171
D4:22:CD:00:05:6E,54.90568542480469,37.97198486328125,179.0785675048828,-0.7376656532287598,-9.122875213623047,-20.109039306640625,1520.366460800171
D4:22:CD:00:05:5E,-83.32247924804688,-71.71766662597656,-169.1050567626953,-3.3483071327209473,0.4442105293273926,2.2180471420288086,1520.366460800171
D4:22:CD:00:05:5D,84.45347595214844,-79.53144073486328,-10.116830825805664,17.05423355102539,15.198957443237305,-0.34743213653564453,1520.396876335144
D4:22:CD:00:05:6B,-2.432079792022705,-81.27854919433594,-107.55584716796875,-1.7551136016845703,7.413821220397949,-7.266861915588379,1520.396876335144
D4:22:CD:00:49:AA,168.50924682617188,-79.13177490234375,108.72166442871094,9.457725524902344,-0.5946815013885498,-0.5091304779052734,1520.396876335144
D4:22:CD:00:05:6E,48.15141677856445,41.689666748046875,174.735107421875,12.970169067382812,13.923551559448242,-9.612272262573242,1520.396876335144
D4:22:CD:00:05:5E,-88.3874282836914,-69.94856262207031,-166.24635314941406,-4.887730598449707,0.7751181125640869,6.865509033203125,1520.396876335144
D4:22:CD:00:05:5D,117.24224853515625,-78.0352783203125,-44.98029327392578,7.139279365539551,-19.362579345703125,4.9240570068359375,1520.4268712997437
D4:22:CD:00:05:6B,31.04305648803711,-82.82832336425781,-140.21360778808594,-4.159212112426758,6.15252685546875,-2.8888769149780273,1520.4268712997437
D4:22:CD:00:49:AA,171.5946807861328,-77.34527587890625,105.20392608642578,8.497028350830078,-0.723064661026001,8.33500862121582,1520.4268712997437
D4:22:CD:00:05:6E,57.26895523071289,48.54798889160156,167.0070343017578,4.586368560791016,2.444828510284424,-9.2337646484375,1520.4268712997437
D4:22:CD:00:05:5E,-84.30055236816406,-68.34514617919922,-170.197265625,-5.269963264465332,1.528956413269043,4.8448638916015625,1520.4268712997437
D4:22:CD:00:05:5D,136.11891174316406,-76.4260025024414,-62.5396842956543,-0.3478277325630188,0.7527508735656738,9.866756439208984,1520.4561278820038
D4:22:CD:00:05:6B,76.3445053100586,-81.6963882446289,175.5836181640625,-5.164887428283691,5.3838911056518555,5.057546615600586,1520.4561278820038
D4:22:CD:00:49:AA,176.26625061035156,-75.89978790283203,100.48152923583984,-3.7375335693359375,-2.0562353134155273,4.826827049255371,1520.4561278820038
D4:22:CD:00:05:6E,70.1940689086914,57.20266342163086,156.33514404296875,-2.7449464797973633,-2.8937177658081055,-3.9212708473205566,1520.4561278820038
D4:22:CD:00:05:5E,-71.8243179321289,-66.72521209716797,179.5631103515625,-7.07627010345459,-2.0466322898864746,3.997469902038574,1520.4561278820038
D4:22:CD:00:05:5D,150.368896484375,-74.61260986328125,-69.41797637939453,-11.609912872314453,8.05734634399414,8.857120513916016,1520.4867696762085
D4:22:CD:00:05:6B,105.0682144165039,-78.21387481689453,147.7490234375,-6.885160446166992,7.582612991333008,12.537914276123047,1520.4867696762085
D4:22:CD:00:49:AA,-177.83978271484375,-74.07545471191406,98.16571044921875,-5.153855323791504,-4.820124626159668,1.2402353286743164,1520.4867696762085
D4:22:CD:00:05:6E,74.16754913330078,63.8647575378418,141.1587677001953,-5.508414268493652,-5.110553741455078,1.618504524230957,1520.4867696762085
D4:22:CD:00:05:5E,-56.77580642700195,-63.54604721069336,170.0223846435547,-6.678230285644531,-3.0945281982421875,-2.4657416343688965,1520.4867696762085
D4:22:CD:00:05:5D,157.4956512451172,-75.30589294433594,-75.2515869140625,-2.6993565559387207,2.649806022644043,0.7111024856567383,1520.5172140598297
D4:22:CD:00:05:6B,119.95634460449219,-77.12877655029297,136.70977783203125,-4.894042015075684,4.153510093688965,9.211400985717773,1520.5172140598297
D4:22:CD:00:49:AA,-172.6397705078125,-71.75033569335938,98.87174224853516,-5.0118513107299805,-1.4380040168762207,-0.07129192352294922,1520.5172140598297
D4:22:CD:00:05:6E,60.957313537597656,65.93538665771484,117.35317993164062,-8.24609375,-2.8670010566711426,0.5971994400024414,1520.5172140598297
D4:22:CD:00:05:5E,-49.251522064208984,-61.343753814697266,169.67564392089844,-14.130855560302734,8.671342849731445,-5.40877628326416,1520.5172140598297
D4:22:CD:00:05:5D,166.97622680664062,-77.58576202392578,-85.2686767578125,0.3406639099121094,0.050189606845378876,0.622797966003418,1520.5467393398285
D4:22:CD:00:05:6B,142.49986267089844,-80.98570251464844,120.8075942993164,-1.3481335639953613,-1.4597578048706055,3.9364967346191406,1520.5467393398285
D4:22:CD:00:49:AA,-170.5528564453125,-68.9926986694336,101.24958801269531,-1.917484998703003,1.4563579559326172,-4.433778762817383,1520.5467393398285
D4:22:CD:00:05:6E,39.57599639892578,62.72105407714844,91.07508087158203,-1.0616624355316162,-1.6791858673095703,-1.0064468383789062,1520.5467393398285
D4:22:CD:00:05:5E,-52.009368896484375,-62.94358825683594,179.65115356445312,-25.97784423828125,12.460433959960938,-8.834016799926758,1520.5467393398285
D4:22:CD:00:05:5D,179.61338806152344,-80.26237487792969,-101.18868255615234,-2.6636595726013184,1.8597807884216309,0.8432836532592773,1520.576372385025
D4:22:CD:00:05:6B,-152.14952087402344,-83.75794982910156,59.380516052246094,2.9257044792175293,-6.500056266784668,2.7774524688720703,1520.576372385025
D4:22:CD:00:49:AA,-173.216796875,-65.64349365234375,104.62598419189453,2.285228729248047,1.6594891548156738,-0.39440345764160156,1520.576372385025
D4:22:CD:00:05:6E,25.242826461791992,54.87453842163086,70.51886749267578,5.141037940979004,-3.211947441101074,-5.87990665435791,1520.576372385025
D4:22:CD:00:05:5E,-73.13081359863281,-66.34413146972656,-157.352783203125,-17.62542724609375,7.064133644104004,-1.877274990081787,1520.576372385025
D4:22:CD:00:05:5D,-158.97239685058594,-81.73519134521484,-125.51380157470703,-0.6887111663818359,0.7297266721725464,0.5377340316772461,1520.606728553772
D4:22:CD:00:05:6B,-111.916015625,-78.54427337646484,16.823226928710938,-0.8422126770019531,-5.032444953918457,1.077463150024414,1520.606728553772
D4:22:CD:00:49:AA,-176.11911010742188,-62.55120849609375,107.86442565917969,-1.0433552265167236,3.1985692977905273,5.876198768615723,1520.606728553772
D4:22:CD:00:05:6E,22.81377410888672,45.056053161621094,56.028194427490234,4.5548505783081055,-3.895827293395996,-6.643862724304199,1520.606728553772
D4:22:CD:00:05:5E,-99.0390853881836,-66.97518157958984,-129.91110229492188,-8.05284309387207,3.4920105934143066,-4.327383995056152,1520.606728553772
D4:22:CD:00:05:5D,-133.5809326171875,-81.8809585571289,-152.6156005859375,0.01209339126944542,0.31650304794311523,0.0970306396484375,1520.6661901474
D4:22:CD:00:05:6B,-103.0394287109375,-73.0690689086914,3.079724073410034,-3.399993419647217,-2.455172538757324,1.0781383514404297,1520.6661901474
D4:22:CD:00:49:AA,-176.72711181640625,-60.97086715698242,109.902587890625,-7.308716773986816,3.2590432167053223,2.8229856491088867,1520.6661901474
D4:22:CD:00:05:6E,27.359737396240234,36.23426818847656,44.65671157836914,6.671261787414551,0.06175794452428818,-5.571810722351074,1520.6661901474
D4:22:CD:00:05:5E,-119.5458755493164,-64.91215515136719,-106.4152603149414,-4.406092643737793,0.31657838821411133,-10.242149353027344,1520.6661901474
D4:22:CD:00:05:5D,-116.09223175048828,-80.92308044433594,-172.27069091796875,0.8013923168182373,-0.883370041847229,0.0697784423828125,1520.6962661743164
D4:22:CD:00:05:6B,-100.22819519042969,-68.40827178955078,-4.202699184417725,-1.999908447265625,-1.3821845054626465,0.024010658264160156,1520.6962661743164
D4:22:CD:00:49:AA,-175.97654724121094,-60.74259567260742,110.8892593383789,-5.152439117431641,2.8234047889709473,-0.46074581146240234,1520.6962661743164
D4:22:CD:00:05:6E,36.47698211669922,31.217697143554688,37.864662170410156,10.245450973510742,-10.420982360839844,-4.407173156738281,1520.6962661743164
D4:22:CD:00:05:5E,-132.6269073486328,-61.81623840332031,-89.97438049316406,-2.4407310485839844,1.5335450172424316,-12.382455825805664,1520.6962661743164
D4:22:CD:00:05:5D,-106.77933502197266,-79.704345703125,177.8214569091797,2.1360998153686523,-4.262202262878418,-0.9832830429077148,1520.7264776229858
D4:22:CD:00:05:6B,-98.72492218017578,-64.60543823242188,-8.47620964050293,1.3161582946777344,-0.4405786395072937,-1.8185276985168457,1520.7264776229858
D4:22:CD:00:49:AA,-174.5994873046875,-61.302730560302734,111.49748992919922,-1.148773431777954,2.205048084259033,-1.3347768783569336,1520.7264776229858
D4:22:CD:00:05:6E,56.956478118896484,27.85015296936035,39.77959442138672,3.8716893196105957,-8.855730056762695,-14.943056106567383,1520.7264776229858
D4:22:CD:00:05:5E,-141.76412963867188,-59.25517654418945,-78.51223754882812,-2.477999687194824,-0.6007143259048462,-11.890195846557617,1520.7264776229858
D4:22:CD:00:05:5D,-105.002197265625,-78.94734191894531,176.43215942382812,4.1342058181762695,-3.4041099548339844,-1.5965890884399414,1520.7569842338562
D4:22:CD:00:05:6B,-97.08013916015625,-61.41967010498047,-11.44038200378418,1.2046031951904297,0.7042784690856934,-2.61311674118042,1520.7569842338562
D4:22:CD:00:49:AA,-174.7239227294922,-62.50179672241211,113.0522232055664,1.1429998874664307,0.9681534767150879,-1.4421634674072266,1520.7569842338562
D4:22:CD:00:05:6E,81.84961700439453,21.70992660522461,48.00551223754883,-5.610645294189453,8.969709396362305,-9.58822250366211,1520.7569842338562
D4:22:CD:00:05:5E,-151.89222717285156,-58.35683822631836,-69.72909545898438,-3.3109970092773438,-5.768671989440918,-7.569212913513184,1520.7569842338562
D4:22:CD:00:05:5D,-109.5326156616211,-78.5892105102539,-177.67176818847656,4.371295928955078,-4.071819305419922,-0.8992080688476562,1520.7864356040955
D4:22:CD:00:05:6B,-92.72308349609375,-58.86711883544922,-14.722695350646973,0.8142294883728027,0.44819366931915283,-3.509056568145752,1520.7864356040955
D4:22:CD:00:49:AA,-178.08242797851562,-64.21315002441406,115.96199798583984,0.11760424077510834,0.4266696572303772,-3.559572219848633,1520.7864356040955
D4:22:CD:00:05:6E,94.90303802490234,11.766969680786133,56.18875503540039,-6.793863296508789,7.478499412536621,7.02577018737793,1520.7864356040955
D4:22:CD:00:05:5E,-163.95794677734375,-59.4117317199707,-63.188053131103516,0.3787996768951416,-10.401456832885742,0.816676139831543,1520.7864356040955
D4:22:CD:00:05:5D,-120.54192352294922,-78.27862548828125,-164.669189453125,-1.9082427024841309,-1.0417275428771973,-0.8126907348632812,1520.8168416023254
D4:22:CD:00:05:6B,-88.92193603515625,-56.25504684448242,-18.464435577392578,1.6434919834136963,0.23998641967773438,-6.734289169311523,1520.8168416023254
D4:22:CD:00:49:AA,176.05990600585938,-64.98816680908203,119.73922729492188,-1.0018868446350098,0.7020528316497803,-4.532933235168457,1520.8168416023254
D4:22:CD:00:05:6E,91.07930755615234,-2.5343432426452637,60.87331771850586,-10.22806167602539,3.4119997024536133,-0.7822408676147461,1520.8168416023254
D4:22:CD:00:05:5E,-173.1492156982422,-63.49371337890625,-59.022430419921875,9.657880783081055,-14.004108428955078,2.905514717102051,1520.8168416023254
D4:22:CD:00:05:5D,-138.50279235839844,-76.96839141845703,-145.41717529296875,1.5216593742370605,-2.870615005493164,-1.116464614868164,1520.8459162712097
D4:22:CD:00:05:6B,-91.36883544921875,-52.90043258666992,-22.41341781616211,-1.5152928829193115,1.451373815536499,-7.70472526550293,1520.8459162712097
D4:22:CD:00:49:AA,168.46360778808594,-64.59918975830078,124.17098236083984,-0.1565244495868683,-1.4057049751281738,-3.2779502868652344,1520.8459162712097
D4:22:CD:00:05:6E,80.87873077392578,-22.114004135131836,60.041316986083984,1.403482437133789,7.359025001525879,-3.0065722465515137,1520.8459162712097
D4:22:CD:00:05:5E,-176.53579711914062,-68.31844329833984,-54.057945251464844,-6.472799301147461,6.913151741027832,14.131248474121094,1520.8459162712097
D4:22:CD:00:05:5D,-152.2138671875,-73.7292251586914,-128.41085815429688,-2.285843849182129,0.9958597421646118,0.16156673431396484,1520.8767416477203
D4:22:CD:00:05:6B,-92.84883117675781,-50.17760467529297,-27.044469833374023,-6.383745193481445,5.672568321228027,-3.5024304389953613,1520.8767416477203
D4:22:CD:00:49:AA,160.89073181152344,-64.12682342529297,129.68447875976562,2.4680495262145996,-2.9338040351867676,-2.9354867935180664,1520.8767416477203
D4:22:CD:00:05:6E,69.25001525878906,-43.31245422363281,60.575138092041016,16.935134887695312,12.657100677490234,18.672870635986328,1520.8767416477203
D4:22:CD:00:05:5E,174.80047607421875,-68.62358093261719,-46.59638595581055,5.240754127502441,1.194190263748169,1.505859375,1520.8767416477203
D4:22:CD:00:05:5D,-162.2678985595703,-70.00265502929688,-115.4296646118164,-2.546356201171875,2.2145347595214844,-0.07904434204101562,1520.9069108963013
D4:22:CD:00:05:6B,-88.28536987304688,-47.78059005737305,-31.788270950317383,-4.1671905517578125,6.938643455505371,0.11277961730957031,1520.9069108963013
D4:22:CD:00:49:AA,153.25375366210938,-64.82018280029297,137.09359741210938,0.8745934963226318,0.32044970989227295,-2.7795329093933105,1520.9069108963013
D4:22:CD:00:05:6E,52.0387077331543,-56.256282806396484,69.75739288330078,6.277375221252441,4.861059188842773,28.348834991455078,1520.9069108963013
D4:22:CD:00:05:5E,170.6783447265625,-68.97041320800781,-43.778594970703125,9.935768127441406,4.192734718322754,4.853582382202148,1520.9069108963013
D4:22:CD:00:05:5D,-170.67787170410156,-66.13445281982422,-106.66779327392578,1.9107236862182617,0.1644383668899536,-0.2808513641357422,1520.9666020870209
D4:22:CD:00:05:6B,-82.92372131347656,-42.96021270751953,-35.806705474853516,1.1066770553588867,9.50390625,13.273487091064453,1520.9666020870209
D4:22:CD:00:49:AA,147.19879150390625,-65.61820983886719,144.09429931640625,-1.8057539463043213,4.212052345275879,-0.8696870803833008,1520.9666020870209
D4:22:CD:00:05:6E,41.94239807128906,-54.958011627197266,62.985984802246094,25.991058349609375,-2.950831413269043,2.923497200012207,1520.9666020870209
D4:22:CD:00:05:5E,168.81063842773438,-69.6245346069336,-43.101985931396484,-0.6322231292724609,-2.9807863235473633,4.434584617614746,1520.9666020870209
D4:22:CD:00:05:5D,-175.3330841064453,-62.06907653808594,-102.18054962158203,1.333714246749878,-0.24266555905342102,0.5726261138916016,1520.9963812828064
D4:22:CD:00:05:6B,-75.40715789794922,-34.71910095214844,-39.93401336669922,8.409027099609375,5.3723554611206055,10.34820556640625,1520.9963812828064
D4:22:CD:00:49:AA,145.3250732421875,-65.54671478271484,145.273681640625,-2.600717067718506,1.147369384765625,6.016753196716309,1520.9963812828064
D4:22:CD:00:05:6E,57.66328430175781,-46.573631286621094,55.96925735473633,23.656543731689453,1.7092671394348145,6.112870216369629,1520.9963812828064
D4:22:CD:00:05:5E,166.21437072753906,-68.53804779052734,-45.82798767089844,-4.648806571960449,-7.126438140869141,8.396940231323242,1520.9963812828064
D4:22:CD:00:05:5D,-177.87313842773438,-59.0057373046875,-99.56095123291016,1.0022106170654297,2.1215858459472656,0.8770103454589844,1521.0269801616669
D4:22:CD:00:05:6B,-73.35706329345703,-24.184612274169922,-42.51640701293945,7.719814300537109,9.170461654663086,18.427642822265625,1521.0269801616669
D4:22:CD:00:49:AA,142.75897216796875,-66.09150695800781,145.69773864746094,-6.488238334655762,1.8758001327514648,9.254716873168945,1521.0269801616669
D4:22:CD:00:05:6E,75.90497589111328,-35.42258071899414,56.34098815917969,5.583099365234375,9.907184600830078,11.3167724609375,1521.0269801616669
D4:22:CD:00:05:5E,168.845458984375,-67.00140380859375,-47.300193786621094,-1.7538032531738281,-10.471181869506836,9.249814987182617,1521.0269801616669
D4:22:CD:00:05:5D,-178.26028442382812,-57.856407165527344,-98.73220825195312,-3.7283520698547363,2.51981258392334,3.3024158477783203,1521.056517124176
D4:22:CD:00:05:6B,-68.19158172607422,-12.978435516357422,-43.91773986816406,6.687200546264648,10.74864387512207,18.900386810302734,1521.056517124176
D4:22:CD:00:49:AA,142.55728149414062,-67.05326843261719,145.81051635742188,-7.5174150466918945,0.5020462274551392,11.033193588256836,1521.056517124176
D4:22:CD:00:05:6E,82.18377685546875,-27.273475646972656,60.17194366455078,3.9042773246765137,11.962820053100586,3.9115400314331055,1521.056517124176
D4:22:CD:00:05:5E,178.16404724121094,-66.71441650390625,-47.54541015625,0.07765242457389832,-9.014913558959961,11.277687072753906,1521.056517124176
D4:22:CD:00:05:5D,-178.22572326660156,-58.57773971557617,-98.50081634521484,0.14107242226600647,1.329927682876587,1.9089107513427734,1521.0865030288696
D4:22:CD:00:05:6B,-58.178890228271484,-2.3243138790130615,-43.68721008300781,3.1499223709106445,5.249810218811035,13.652042388916016,1521.0865030288696
D4:22:CD:00:49:AA,142.6993865966797,-67.86804962158203,146.1348876953125,-3.855656623840332,-0.6962316036224365,4.72305965423584,1521.0865030288696
D4:22:CD:00:05:6E,85.64064025878906,-23.801410675048828,64.7398910522461,1.0896673202514648,7.517921447753906,-4.633049964904785,1521.0865030288696
D4:22:CD:00:05:5E,-167.22723388671875,-62.082035064697266,-52.6898193359375,6.051599502563477,-7.449420928955078,15.638912200927734,1521.0865030288696
D4:22:CD:00:05:5D,-178.06809997558594,-60.74747848510742,-97.9255142211914,1.1033399105072021,0.3517829179763794,0.5339288711547852,1521.1314961910248
D4:22:CD:00:05:6B,-48.802093505859375,7.42842435836792,-41.22910690307617,-4.174569129943848,0.9611797332763672,13.019586563110352,1521.1314961910248
D4:22:CD:00:49:AA,143.88418579101562,-67.54270935058594,145.11212158203125,0.6067520380020142,1.0152995586395264,2.142679214477539,1521.1314961910248
D4:22:CD:00:05:6E,89.91874694824219,-25.21806526184082,68.0670394897461,-0.5031856298446655,3.3568320274353027,-4.240525245666504,1521.1314961910248
D4:22:CD:00:05:5E,-163.13589477539062,-56.288333892822266,-53.73248291015625,0.7257360219955444,-9.034246444702148,4.816794395446777,1521.1314961910248
D4:22:CD:00:05:5D,-177.61343383789062,-63.44635772705078,-97.26943969726562,0.033768780529499054,-0.6302257776260376,-0.058180809020996094,1521.146518945694
D4:22:CD:00:05:6B,-33.3939323425293,14.447042465209961,-37.709327697753906,-12.790863037109375,-8.086437225341797,4.7841339111328125,1521.146518945694
D4:22:CD:00:49:AA,143.3564453125,-68.5104751586914,147.6739959716797,-1.0227463245391846,0.2877669930458069,0.24772071838378906,1521.146518945694
D4:22:CD:00:05:6E,92.07027435302734,-29.986242294311523,70.34364318847656,0.03261489421129227,2.6725993156433105,-2.539307117462158,1521.146518945694
D4:22:CD:00:05:5E,-159.1086883544922,-54.04477310180664,-54.957862854003906,8.328531265258789,0.3017776608467102,2.2941064834594727,1521.146518945694
D4:22:CD:00:05:5D,-176.33815002441406,-66.4084701538086,-96.91372680664062,-0.2722783088684082,0.47265052795410156,0.6330356597900391,1521.176415681839
D4:22:CD:00:05:6B,-17.095596313476562,17.12645721435547,-32.671817779541016,-11.678764343261719,-2.8323159217834473,-7.654811859130859,1521.176415681839
D4:22:CD:00:49:AA,145.59356689453125,-70.54730224609375,148.11708068847656,-2.418703079223633,1.1011474132537842,-0.37348270416259766,1521.176415681839
D4:22:CD:00:05:6E,91.77706909179688,-37.099159240722656,72.75732421875,1.8152997493743896,3.6571593284606934,-2.483394145965576,1521.176415681839
D4:22:CD:00:05:5E,-155.22103881835938,-53.74432373046875,-58.347251892089844,8.009780883789062,4.726841926574707,-0.2894315719604492,1521.176415681839
D4:22:CD:00:05:5D,-174.96502685546875,-69.77546691894531,-96.59739685058594,0.3115137815475464,0.5167033672332764,-0.07547473907470703,1521.2067959308624
D4:22:CD:00:05:6B,-5.991390228271484,15.218031883239746,-28.172096252441406,-3.225860595703125,0.08564245700836182,-5.75255012512207,1521.2067959308624
D4:22:CD:00:49:AA,149.75149536132812,-72.37831115722656,146.77182006835938,-0.49480223655700684,1.4117002487182617,-1.6551809310913086,1521.2067959308624
D4:22:CD:00:05:6E,90.13427734375,-46.140167236328125,77.40908813476562,1.5779809951782227,3.9344420433044434,-2.1668701171875,1521.2067959308624
D4:22:CD:00:05:5E,-149.72683715820312,-55.20296859741211,-64.8883285522461,7.513149261474609,5.559802055358887,-3.996947765350342,1521.2067959308624
