Device,EulerX,EulerY,EulerZ,FreeAccX,FreeAccY,FreeAccZ,Timestamp
D4:22:CD:00:05:5D,-177.8731231689453,-46.818538665771484,-65.10061645507812,-2.1836352348327637,-2.2549619674682617,2.7330732345581055,516.2861597537994
D4:22:CD:00:05:6B,-58.46868896484375,-4.685879707336426,-96.72420501708984,0.44660234451293945,-0.8733075857162476,19.426265716552734,516.2861597537994
D4:22:CD:00:49:AA,144.59039306640625,-74.14864349365234,149.91427612304688,-5.808502197265625,-0.9972012042999268,8.993598937988281,516.2861597537994
D4:22:CD:00:05:6E,103.65680694580078,-5.1910176277160645,-74.64363861083984,3.204591751098633,1.8826677799224854,-1.5656070709228516,516.2861597537994
D4:22:CD:00:05:5E,-172.2884979248047,-58.74204635620117,-24.304855346679688,2.9831061363220215,4.530403137207031,-2.0211234092712402,516.2861597537994
D4:22:CD:00:05:5D,-176.3832244873047,-49.65523147583008,-65.70311737060547,-2.6434688568115234,-1.8458616733551025,4.165741920471191,516.2961657047272
D4:22:CD:00:05:6B,-47.38331604003906,7.574339866638184,-90.82769775390625,0.3679208755493164,-6.4676408767700195,10.915666580200195,516.2961657047272
D4:22:CD:00:49:AA,144.87127685546875,-76.62922668457031,155.02105712890625,-3.075049877166748,-0.16837340593338013,4.466861724853516,516.2961657047272
D4:22:CD:00:05:6E,109.28349304199219,-18.13349723815918,-74.22200012207031,2.7369918823242188,2.2174806594848633,-0.3520622253417969,516.2961657047272
D4:22:CD:00:05:5E,-173.23199462890625,-66.39815521240234,-20.515966415405273,1.867321252822876,3.3220348358154297,-3.8578453063964844,516.2961657047272
D4:22:CD:00:05:6B,-31.60556411743164,16.11028480529785,-87.5129623413086,-2.23878812789917,-3.271852970123291,2.474384307861328,516.3031680583954
D4:22:CD:00:49:AA,146.4425048828125,-79.49681854248047,158.7410430908203,0.46688592433929443,0.5352866649627686,-0.800811767578125,516.3031680583954
D4:22:CD:00:05:6E,117.46112823486328,-33.83918762207031,-75.76726531982422,2.428555965423584,1.5993716716766357,-3.3927412033081055,516.3031680583954
D4:22:CD:00:05:5E,-179.47816467285156,-75.30937194824219,-15.826375007629395,2.117342948913574,3.2642111778259277,-3.5350165367126465,516.3031680583954
D4:22:CD:00:05:5D,169.76641845703125,-71.78175354003906,-117.43669128417969,-0.005058544687926769,-1.1963956356048584,-0.5922050476074219,516.3071582317352
D4:22:CD:00:49:AA,149.02906799316406,-81.88887023925781,160.99749755859375,-0.2085353434085846,0.9452313184738159,-5.679006576538086,516.3071582317352
D4:22:CD:00:05:6E,135.43069458007812,-49.56362533569336,-81.12352752685547,0.6620426177978516,-2.4758424758911133,2.629547119140625,516.3071582317352
D4:22:CD:00:05:5E,159.99119567871094,-84.47026062011719,3.195765972137451,0.19435009360313416,6.899467468261719,-3.4134955406188965,516.3071582317352
D4:22:CD:00:05:5D,175.6497802734375,-67.14237976074219,-122.4400634765625,-0.6334209442138672,1.7729275226593018,-0.8983640670776367,516.3111584186554
D4:22:CD:00:05:6B,-65.78619384765625,-35.30821990966797,-96.04566955566406,-1.5438470840454102,2.2606515884399414,1.764352798461914,516.3111584186554
D4:22:CD:00:49:AA,85.58283996582031,-44.09036636352539,-156.1482696533203,-5.455144882202148,-4.99955940246582,-4.222185134887695,516.3111584186554
D4:22:CD:00:05:6E,-164.34762573242188,-64.08892059326172,-119.53140258789062,-11.416248321533203,2.4789905548095703,-2.587655544281006,516.3111584186554
D4:22:CD:00:05:5D,176.4903564453125,-62.85285568237305,-122.20641326904297,1.8483359813690186,1.9116175174713135,0.8240737915039062,516.354161977768
D4:22:CD:00:05:6B,-69.00552368164062,-20.486623764038086,-95.0889663696289,-5.330953598022461,9.077896118164062,9.779640197753906,516.354161977768
D4:22:CD:00:49:AA,88.73065948486328,-55.279701232910156,-157.89682006835938,-9.01121711730957,-7.011829376220703,4.467580795288086,516.354161977768
D4:22:CD:00:05:6E,58.58523941040039,-44.54387283325195,143.520751953125,-27.35586166381836,-1.6777303218841553,12.792465209960938,516.354161977768
D4:22:CD:00:05:5E,-157.3610076904297,-62.43550491333008,-43.31838607788086,3.2281131744384766,-6.959959030151367,18.962425231933594,516.354161977768
D4:22:CD:00:05:5D,178.06153869628906,-59.04454040527344,-123.41679382324219,1.6908447742462158,4.120360374450684,-0.11610126495361328,516.3837819099426
D4:22:CD:00:05:6B,-70.26666259765625,-2.7117044925689697,-90.95945739746094,-3.6441383361816406,2.7164478302001953,26.243392944335938,516.3837819099426
D4:22:CD:00:49:AA,96.92338562011719,-66.97443389892578,-163.613525390625,-2.029374122619629,-5.48795223236084,2.4221744537353516,516.3837819099426
D4:22:CD:00:05:6E,137.7709197998047,-61.0474739074707,68.7488784790039,-2.15098237991333,20.602798461914062,9.630804061889648,516.3837819099426
D4:22:CD:00:05:5E,-175.6802978515625,-64.97628784179688,-26.835084915161133,7.159918785095215,-11.810359954833984,19.62981414794922,516.3837819099426
D4:22:CD:00:05:5D,-179.90077209472656,-56.552276611328125,-124.06690216064453,0.22696757316589355,3.5459842681884766,2.5233659744262695,516.4142551422119
D4:22:CD:00:05:6B,-65.4195785522461,16.971004486083984,-83.07864379882812,-0.9562320709228516,-13.654361724853516,23.26822280883789,516.4142551422119
D4:22:CD:00:49:AA,113.82533264160156,-73.30644989013672,-178.1230926513672,-0.6611852645874023,-2.699049472808838,7.537929534912109,516.4142551422119
D4:22:CD:00:05:6E,-135.72608947753906,-65.40460205078125,-6.251099586486816,8.503284454345703,2.471968173980713,7.056886672973633,516.4142551422119
D4:22:CD:00:05:5E,140.9154052734375,-75.8606185913086,20.6025447845459,-3.350844383239746,-1.4257066249847412,5.488897323608398,516.4142551422119
D4:22:CD:00:05:5D,-178.37554931640625,-55.40913009643555,-124.736083984375,-0.9614009857177734,2.9607391357421875,2.7880735397338867,516.4442510604858
D4:22:CD:00:05:6B,-50.45411682128906,34.44159698486328,-70.8909683227539,5.5091705322265625,-22.739727020263672,10.541145324707031,516.4442510604858
D4:22:CD:00:49:AA,132.49734497070312,-75.7035903930664,165.17855834960938,-2.3244528770446777,-2.268118381500244,8.64454460144043,516.4442510604858
D4:22:CD:00:05:6E,-88.0599594116211,-57.65499496459961,-40.4068603515625,9.288942337036133,-17.120731353759766,-3.566816806793213,516.4442510604858
D4:22:CD:00:05:5E,112.64434051513672,-72.79114532470703,46.89617919921875,2.9000515937805176,1.0263516902923584,1.6963844299316406,516.4442510604858
D4:22:CD:00:05:5D,-177.08688354492188,-55.57773208618164,-125.72016906738281,0.41069406270980835,2.41511869430542,2.386259078979492,516.47425365448
D4:22:CD:00:05:6B,-26.370073318481445,45.57182312011719,-55.07313919067383,7.782195091247559,-18.379474639892578,-0.6330728530883789,516.47425365448
D4:22:CD:00:49:AA,148.4934844970703,-76.91768646240234,151.2270965576172,-3.483325958251953,-3.2764320373535156,9.677358627319336,516.47425365448
D4:22:CD:00:05:6E,-74.74051666259766,-52.15946960449219,-47.34318542480469,10.676614761352539,-17.879409790039062,-3.374687671661377,516.47425365448
D4:22:CD:00:05:5E,91.73111724853516,-71.95712280273438,75.76470947265625,1.4262330532073975,9.115608215332031,-2.0882930755615234,516.47425365448
D4:22:CD:00:05:5D,-175.59580993652344,-57.33002853393555,-126.59986877441406,1.1684317588806152,1.7650001049041748,3.0405006408691406,516.5047709941864
D4:22:CD:00:05:6B,-2.193711757659912,50.06684112548828,-41.72044372558594,7.421762466430664,-8.290733337402344,-1.860548496246338,516.5047709941864
D4:22:CD:00:49:AA,164.72605895996094,-77.96498107910156,138.6185302734375,-4.697516441345215,-0.9623068571090698,6.821613311767578,516.5047709941864
D4:22:CD:00:05:6E,-63.94538497924805,-48.91678237915039,-47.27110290527344,16.757984161376953,-16.52234649658203,-6.555765151977539,516.5047709941864
D4:22:CD:00:05:5E,65.48229217529297,-68.9104232788086,106.50714874267578,-1.1824448108673096,3.6822047233581543,-2.64022159576416,516.5047709941864
D4:22:CD:00:05:5D,-173.61595153808594,-60.83498001098633,-126.856201171875,-3.683187961578369,3.3014278411865234,5.915000915527344,516.5337624549866
D4:22:CD:00:05:6B,13.49453067779541,52.057640075683594,-34.42353439331055,0.4728891849517822,-5.952641487121582,-0.6986150741577148,516.5337624549866
D4:22:CD:00:49:AA,179.4532012939453,-79.17931365966797,128.71705627441406,-3.5381627082824707,-1.3134820461273193,5.436361312866211,516.5337624549866
D4:22:CD:00:05:6E,-55.687496185302734,-48.14488983154297,-43.452178955078125,15.041402816772461,-14.901145935058594,-11.361799240112305,516.5337624549866
D4:22:CD:00:05:5E,49.31657791137695,-59.20808792114258,125.45703887939453,-1.4229998588562012,7.129444122314453,-1.4556865692138672,516.5337624549866
D4:22:CD:00:05:5D,-172.92880249023438,-65.15823364257812,-123.90202331542969,-11.478843688964844,-1.2020409107208252,8.275861740112305,516.5640790462494
D4:22:CD:00:05:6B,20.048669815063477,53.03249740600586,-30.255887985229492,-6.738251686096191,-2.5273966789245605,-2.4500203132629395,516.5640790462494
D4:22:CD:00:49:AA,-164.2850341796875,-80.12352752685547,117.79933166503906,-0.8456281423568726,-0.9409281015396118,1.6334171295166016,516.5640790462494
D4:22:CD:00:05:6E,-52.86541748046875,-49.15467834472656,-35.23823547363281,11.900623321533203,-9.086954116821289,-10.370826721191406,516.5640790462494
D4:22:CD:00:05:5E,42.164710998535156,-45.3360481262207,136.6333770751953,-9.891624450683594,10.256439208984375,0.22084522247314453,516.5640790462494
D4:22:CD:00:05:5D,-179.48728942871094,-70.67723846435547,-116.71315002441406,-10.792253494262695,-6.058353424072266,0.000812530517578125,516.6235914230347
D4:22:CD:00:05:6B,14.79604434967041,52.96773910522461,-27.964542388916016,-5.32871150970459,3.0180745124816895,-4.492197036743164,516.6235914230347
D4:22:CD:00:49:AA,-147.18087768554688,-79.67842864990234,105.61453247070312,-0.613951563835144,-0.938052773475647,-2.785797119140625,516.6235914230347
D4:22:CD:00:05:6E,-52.593379974365234,-49.713443756103516,-25.848052978515625,11.178232192993164,-5.5559186935424805,-11.239191055297852,516.6235914230347
D4:22:CD:00:05:5E,36.13644790649414,-32.63788986206055,142.84945678710938,-17.310253143310547,8.312360763549805,-8.867620468139648,516.6235914230347
D4:22:CD:00:05:5D,165.49630737304688,-72.23020935058594,-97.19254302978516,9.379493713378906,-1.8319356441497803,-6.7053327560424805,516.6537749767303
D4:22:CD:00:05:6B,1.7782350778579712,53.95723342895508,-29.552091598510742,-4.309161186218262,-3.5590672492980957,-8.615242004394531,516.6537749767303
D4:22:CD:00:49:AA,-131.6855010986328,-79.24784851074219,93.47138214111328,1.385845422744751,2.7340450286865234,-8.47596549987793,516.6537749767303
D4:22:CD:00:05:6E,-52.03549575805664,-50.640220642089844,-16.65546417236328,6.115396499633789,-0.5346325635910034,-13.156906127929688,516.6537749767303
D4:22:CD:00:05:5E,29.13315773010254,-24.913436889648438,146.01412963867188,-18.986072540283203,6.557132720947266,-15.78073501586914,516.6537749767303
D4:22:CD:00:05:5D,155.30831909179688,-70.63836669921875,-77.2691879272461,2.806558132171631,-3.2801694869995117,-9.704687118530273,516.6846814155579
D4:22:CD:00:05:6B,-10.104959487915039,55.902645111083984,-41.1549072265625,-1.2378900051116943,-3.9130496978759766,-10.859916687011719,516.6846814155579
D4:22:CD:00:49:AA,-117.6366195678711,-80.1064224243164,81.7975845336914,1.389054536819458,3.6528382301330566,-12.859304428100586,516.6846814155579
D4:22:CD:00:05:6E,-50.99930953979492,-51.59496307373047,-8.55737590789795,3.3281359672546387,1.18080472946167,-12.133441925048828,516.6846814155579
D4:22:CD:00:05:5E,23.9276180267334,-21.873994827270508,149.8760223388672,-11.234851837158203,8.728290557861328,-24.17656707763672,516.6846814155579
D4:22:CD:00:05:5D,148.62940979003906,-71.23857879638672,-62.47494888305664,10.697782516479492,-0.7074334621429443,-11.659982681274414,516.7152199745178
D4:22:CD:00:05:6B,-20.119110107421875,54.8309440612793,-64.32740020751953,-3.558469772338867,-2.1922688484191895,-12.675970077514648,516.7152199745178
D4:22:CD:00:49:AA,-95.6104507446289,-81.49845886230469,62.06875228881836,-1.4421045780181885,-1.1712307929992676,-9.253358840942383,516.7152199745178
D4:22:CD:00:05:6E,-48.76417541503906,-52.26618576049805,-1.807822823524475,3.701664924621582,2.598208427429199,-12.145313262939453,516.7152199745178
D4:22:CD:00:05:5E,22.61627769470215,-23.733665466308594,153.63357543945312,-8.100990295410156,-0.5793118476867676,-25.737110137939453,516.7152199745178
D4:22:CD:00:05:5D,150.13111877441406,-70.2661361694336,-57.1228141784668,1.787846565246582,12.341062545776367,-0.9004354476928711,516.7443654537201
D4:22:CD:00:05:6B,-24.229246139526367,47.48957824707031,-88.84505462646484,-6.000741004943848,-4.9154863357543945,-17.214317321777344,516.7443654537201
D4:22:CD:00:49:AA,-71.02418518066406,-80.91336822509766,39.555416107177734,-1.4530465602874756,-2.4159092903137207,-8.768045425415039,516.7443654537201
D4:22:CD:00:05:6E,-44.50785446166992,-53.0610466003418,2.7638750076293945,5.981767654418945,4.050731658935547,-10.809186935424805,516.7443654537201
D4:22:CD:00:05:5E,24.076679229736328,-29.318096160888672,155.8948516845703,-10.938909530639648,-3.8407840728759766,-16.61785888671875,516.7443654537201
D4:22:CD:00:05:5D,152.64486694335938,-69.07801055908203,-57.02943801879883,-1.5759692192077637,2.708789825439453,-1.7452983856201172,516.774373292923
D4:22:CD:00:05:6B,-22.810243606567383,37.051483154296875,-105.81031036376953,-9.41533088684082,-18.929988861083984,-20.07021713256836,516.774373292923
D4:22:CD:00:49:AA,-58.83765411376953,-79.98290252685547,30.371652603149414,0.7979403734207153,-0.09148553013801575,-4.973409652709961,516.774373292923
D4:22:CD:00:05:6E,-40.5113525390625,-54.4481201171875,5.722535133361816,7.525581359863281,7.014730453491211,-7.120447158813477,516.774373292923
D4:22:CD:00:05:5E,19.581602096557617,-38.86640930175781,156.34800720214844,-13.116792678833008,-6.071184158325195,-10.074708938598633,516.774373292923
D4:22:CD:00:05:5D,153.29397583007812,-68.17583465576172,-57.292144775390625,-2.5193347930908203,-3.091930866241455,0.0684499740600586,516.804060459137
D4:22:CD:00:05:6B,-10.715266227722168,35.27337646484375,-117.37194061279297,-3.5377049446105957,6.641524314880371,-19.05937957763672,516.804060459137
D4:22:CD:00:49:AA,-47.84744644165039,-79.42577362060547,21.701393127441406,-0.5933696031570435,1.155681848526001,-1.7397775650024414,516.804060459137
D4:22:CD:00:05:6E,-36.996517181396484,-56.24003219604492,7.0343918800354,7.219923973083496,9.0439453125,-3.2368106842041016,516.804060459137
D4:22:CD:00:05:5E,11.015721321105957,-50.790489196777344,155.6986846923828,-12.202106475830078,-1.8242113590240479,-6.143838882446289,516.804060459137
D4:22:CD:00:05:5D,151.82029724121094,-67.08830261230469,-55.96219253540039,2.8087778091430664,-5.385577201843262,3.0310354232788086,516.8342185020447
D4:22:CD:00:05:6B,-9.78977108001709,37.580875396728516,-113.19251251220703,18.916160583496094,9.999738693237305,-14.203702926635742,516.8342185020447
D4:22:CD:00:49:AA,-46.47237777709961,-79.54108428955078,21.935646057128906,-1.1245365142822266,-0.35710036754608154,0.1593313217163086,516.8342185020447
D4:22:CD:00:05:6E,-33.21236038208008,-58.074981689453125,6.7071919441223145,6.721059799194336,9.609834671020508,-0.3621530532836914,516.8342185020447
D4:22:CD:00:05:5E,5.138859748840332,-60.957191467285156,154.47315979003906,3.6184754371643066,3.2718491554260254,19.83782196044922,516.8342185020447
D4:22:CD:00:05:5D,151.28692626953125,-65.3701171875,-53.05270004272461,1.9156877994537354,0.7490079402923584,2.527524948120117,516.8732187747955
D4:22:CD:00:05:6B,-13.953375816345215,41.128807067871094,-98.86531066894531,-11.021604537963867,-4.413652420043945,-6.812191963195801,516.8732187747955
D4:22:CD:00:49:AA,-43.775638580322266,-80.45748138427734,20.279285430908203,-0.2234610915184021,-1.348691701889038,4.133543014526367,516.8732187747955
D4:22:CD:00:05:6E,-31.601295471191406,-61.2323112487793,6.53992223739624,6.32752799987793,12.409494400024414,3.309814453125,516.8732187747955
D4:22:CD:00:05:5E,11.265363693237305,-63.965003967285156,152.1702880859375,4.220559120178223,-6.073285102844238,6.535604476928711,516.8732187747955
D4:22:CD:00:05:5D,148.51097106933594,-64.24395751953125,-50.37044143676758,2.623844623565674,0.4290704131126404,4.784795761108398,516.9239115715027
D4:22:CD:00:05:6B,-7.50963020324707,44.002708435058594,-80.69327545166016,-8.147899627685547,-8.440521240234375,-11.445533752441406,516.9239115715027
D4:22:CD:00:49:AA,-42.33776092529297,-81.98717498779297,18.68535614013672,-0.24587184190750122,-1.1371080875396729,2.9957046508789062,516.9239115715027
D4:22:CD:00:05:6E,-34.893226623535156,-64.91252899169922,6.290035247802734,4.22707462310791,14.144014358520508,5.808608055114746,516.9239115715027
D4:22:CD:00:05:5E,14.64180850982666,-65.69059753417969,147.4108428955078,-6.101628303527832,-2.2602076530456543,10.672231674194336,516.9239115715027
D4:22:CD:00:05:5D,143.3199462890625,-63.70606994628906,-46.853553771972656,0.7358864545822144,-1.4860918521881104,3.877060890197754,516.9540021419525
D4:22:CD:00:05:6B,-2.532550096511841,43.293338775634766,-62.087581634521484,-4.264338493347168,-3.3303356170654297,-5.770876884460449,516.9540021419525
D4:22:CD:00:49:AA,-49.509361267089844,-83.18939971923828,25.519298553466797,0.6844086647033691,-1.1810636520385742,4.736681938171387,516.9540021419525
D4:22:CD:00:05:6E,-42.592288970947266,-66.9162826538086,6.456571102142334,-2.160696029663086,9.396915435791016,8.957807540893555,516.9540021419525
D4:22:CD:00:05:5E,12.247368812561035,-68.1866455078125,145.3419952392578,-2.4416794776916504,10.388507843017578,6.313941955566406,516.9540021419525
D4:22:CD:00:05:5D,137.6680450439453,-62.828643798828125,-42.65911865234375,2.6873083114624023,-1.1689941883087158,1.7537899017333984,516.9845283031464
D4:22:CD:00:05:6B,-1.8013619184494019,40.6830940246582,-47.5554313659668,-3.3505144119262695,-1.3081862926483154,1.306685447692871,516.9845283031464
D4:22:CD:00:49:AA,-66.60872650146484,-83.9532470703125,41.93584442138672,3.4776430130004883,0.7798217535018921,2.1804580688476562,516.9845283031464
D4:22:CD:00:05:6E,-46.341487884521484,-65.90625762939453,4.4112467765808105,-3.2499542236328125,9.55748176574707,8.35833740234375,516.9845283031464
D4:22:CD:00:05:5E,10.244105339050293,-69.77406311035156,143.30380249023438,-5.5725507736206055,8.010509490966797,-1.9952917098999023,516.9845283031464
D4:22:CD:00:05:5D,131.8367156982422,-61.12769317626953,-41.09152603149414,7.567538261413574,-2.9349498748779297,0.6885662078857422,517.0136270523071
D4:22:CD:00:05:6B,-3.178067207336426,37.22563934326172,-37.62909698486328,-10.487922668457031,5.00016975402832,-1.5387744903564453,517.0136270523071
D4:22:CD:00:49:AA,-93.06710052490234,-83.20571899414062,65.64244842529297,5.017128944396973,5.982104301452637,-1.2383403778076172,517.0136270523071
D4:22:CD:00:05:6E,-44.95181655883789,-63.186805725097656,-2.055572509765625,-0.5819829702377319,4.869192123413086,5.333024978637695,517.0136270523071
D4:22:CD:00:05:5E,14.068707466125488,-69.63453674316406,138.29759216308594,-5.123419761657715,4.157353401184082,-0.3859443664550781,517.0136270523071
D4:22:CD:00:05:5D,125.46039581298828,-59.99382019042969,-43.441619873046875,14.25468635559082,1.0916688442230225,6.466379165649414,517.0447690486908
D4:22:CD:00:05:6B,-8.543575286865234,30.071168899536133,-29.975399017333984,-10.632946014404297,6.089285850524902,-6.928540229797363,517.0447690486908
D4:22:CD:00:49:AA,-118.01486206054688,-81.04527282714844,84.59403228759766,8.868900299072266,6.989354133605957,-4.305853843688965,517.0447690486908
D4:22:CD:00:05:6E,-41.286781311035156,-59.43886947631836,-10.776083946228027,1.213531732559204,-2.297502040863037,-0.007592201232910156,517.0447690486908
D4:22:CD:00:05:5E,19.89177894592285,-68.95096588134766,131.79478454589844,-3.801839828491211,2.811981678009033,-0.8850908279418945,517.0447690486908
D4:22:CD:00:05:5D,126.2203140258789,-56.33806610107422,-55.06148147583008,16.509422302246094,22.062755584716797,10.35965347290039,517.0740764141083
D4:22:CD:00:05:6B,-18.32659912109375,19.161516189575195,-23.580730438232422,-4.177248954772949,-0.18013203144073486,-8.34874153137207,517.0740764141083
D4:22:CD:00:49:AA,-138.73513793945312,-77.7168960571289,97.53618621826172,5.485980033874512,0.9501280784606934,-2.099653720855713,517.0740764141083
D4:22:CD:00:05:6E,-39.146507263183594,-55.09789276123047,-18.84889793395996,6.075861930847168,-11.43442153930664,-2.5745577812194824,517.0740764141083
D4:22:CD:00:05:5E,26.28020477294922,-68.06336975097656,125.86156463623047,-4.723389625549316,0.5766180753707886,-1.2005443572998047,517.0740764141083
D4:22:CD:00:05:5D,134.0341033935547,-50.11517333984375,-70.8906021118164,14.870702743530273,11.644800186157227,-0.622767448425293,517.1041023731232
D4:22:CD:00:05:6B,-28.168506622314453,6.638452053070068,-17.8757266998291,3.1023073196411133,-5.642704010009766,-0.7135105133056641,517.1041023731232
D4:22:CD:00:49:AA,-144.88333129882812,-74.83136749267578,102.71366119384766,-4.318225860595703,-3.5429978370666504,5.503216743469238,517.1041023731232
D4:22:CD:00:05:6E,-39.65250015258789,-52.01317596435547,-25.386491775512695,5.598081588745117,-16.640838623046875,-3.6673035621643066,517.1041023731232
D4:22:CD:00:05:5E,30.716846466064453,-67.71038818359375,122.04196166992188,-5.212322235107422,-0.24920743703842163,-1.4753961563110352,517.1041023731232
D4:22:CD:00:05:5D,142.12838745117188,-42.70866012573242,-86.00285339355469,9.057327270507812,3.605330467224121,-7.960580825805664,517.1341423988342
D4:22:CD:00:05:6B,-36.81917953491211,-6.700504302978516,-13.059988021850586,4.543610572814941,-3.3250718116760254,-2.869983673095703,517.1341423988342
D4:22:CD:00:49:AA,-144.4932403564453,-73.53649139404297,105.28910827636719,-2.227463722229004,1.784334659576416,3.7311840057373047,517.1341423988342
D4:22:CD:00:05:6E,-36.07442855834961,-52.13268280029297,-30.581735610961914,2.919572353363037,-15.90853500366211,-5.270437240600586,517.1341423988342
D4:22:CD:00:05:5E,32.737300872802734,-68.32659149169922,120.00151062011719,-4.106925010681152,0.45194923877716064,-1.4173946380615234,517.1341423988342
D4:22:CD:00:05:5D,151.32131958007812,-34.640625,-98.17833709716797,2.4235496520996094,0.3566940426826477,-12.717294692993164,517.1641421318054
D4:22:CD:00:05:6B,-45.45094299316406,-22.926969528198242,-9.948169708251953,8.63775634765625,-7.232108116149902,-0.6306648254394531,517.1641421318054
D4:22:CD:00:49:AA,-145.354248046875,-72.97416687011719,105.55860900878906,2.5718932151794434,8.085466384887695,-1.3743104934692383,517.1641421318054
D4:22:CD:00:05:6E,-27.466102600097656,-54.98328399658203,-36.10485076904297,5.336304664611816,-11.509828567504883,-8.142948150634766,517.1641421318054
D4:22:CD:00:05:5E,34.5524787902832,-69.42159271240234,118.78294372558594,-3.4075121879577637,2.043827533721924,-1.5357542037963867,517.1641421318054
D4:22:CD:00:05:5D,162.62469482421875,-27.25815773010254,-107.76742553710938,0.5761806964874268,-0.29105454683303833,-11.351198196411133,517.2239563465118
D4:22:CD:00:05:6B,-48.365081787109375,-43.31433868408203,-8.997179985046387,14.078437805175781,-9.943132400512695,12.697921752929688,517.2239563465118
D4:22:CD:00:49:AA,-147.7255401611328,-73.0929946899414,105.83250427246094,2.661182403564453,4.369516372680664,-5.86241340637207,517.2239563465118
D4:22:CD:00:05:6E,-15.966889381408691,-58.96751022338867,-44.453819274902344,5.128656387329102,-6.138916015625,-6.56245231628418,517.2239563465118
D4:22:CD:00:05:5E,37.315162658691406,-71.82694244384766,116.6681137084961,-3.373025894165039,1.0029773712158203,-1.8260979652404785,517.2239563465118
D4:22:CD:00:05:5D,173.74838256835938,-21.808391571044922,-116.28314208984375,-4.52631950378418,-1.801743507385254,-7.259830474853516,517.254435300827
D4:22:CD:00:05:6B,-30.570249557495117,-62.629886627197266,-21.120208740234375,10.00069808959961,0.47351837158203125,31.602153778076172,517.254435300827
D4:22:CD:00:49:AA,-150.81895446777344,-73.0212631225586,107.4176254272461,0.2354305386543274,0.75792396068573,-5.82163143157959,517.254435300827
D4:22:CD:00:05:6E,-0.7375935316085815,-61.84321594238281,-56.80350112915039,3.549745559692383,-2.8614845275878906,-5.976606369018555,517.254435300827
D4:22:CD:00:05:5E,42.17909240722656,-75.51448059082031,111.25444030761719,-4.2323808670043945,1.2473056316375732,-1.80792236328125,517.254435300827
D4:22:CD:00:05:5D,-179.79318237304688,-19.273395538330078,-124.25935363769531,-13.48944091796875,-2.628077983856201,-5.135489463806152,517.283951997757
D4:22:CD:00:05:6B,-7.033158779144287,-71.12317657470703,-39.827884674072266,-5.951694488525391,-0.029418230056762695,13.884662628173828,517.283951997757
D4:22:CD:00:49:AA,-150.6143035888672,-73.29569244384766,107.09021759033203,-2.1743507385253906,-2.3466615676879883,-4.798925399780273,517.283951997757
D4:22:CD:00:05:6E,16.928863525390625,-62.439212799072266,-71.04821014404297,2.129305362701416,-1.4567818641662598,-5.723545074462891,517.283951997757
D4:22:CD:00:05:5E,51.15673828125,-79.4441146850586,101.68566131591797,-4.442299842834473,-0.21570217609405518,-1.5156288146972656,517.283951997757
D4:22:CD:00:05:5D,175.33746337890625,-20.50188446044922,-129.983154296875,-17.386821746826172,5.48123836517334,6.081398010253906,517.3140020370483
D4:22:CD:00:05:6B,-3.7654244899749756,-70.05227661132812,-28.677410125732422,18.48391342163086,8.41630744934082,4.049391746520996,517.3140020370483
D4:22:CD:00:49:AA,-148.50540161132812,-73.3731918334961,105.6639633178711,0.4341980218887329,-2.1182336807250977,-1.381089210510254,517.3140020370483
D4:22:CD:00:05:6E,34.448158264160156,-60.761375427246094,-84.49932861328125,3.5611886978149414,-0.15638914704322815,-1.4840469360351562,517.3140020370483
D4:22:CD:00:05:5E,70.60054016113281,-82.7080307006836,81.55789947509766,-5.252246856689453,2.1022844314575195,-1.4957847595214844,517.3140020370483
D4:22:CD:00:05:5D,169.564208984375,-18.906166076660156,-127.8739013671875,-12.373405456542969,-11.935813903808594,3.5909557342529297,517.344006061554
D4:22:CD:00:05:6B,-18.23046112060547,-64.37189483642578,-5.966376304626465,14.222372055053711,-0.5407171249389648,10.544523239135742,517.344006061554
D4:22:CD:00:49:AA,-144.8711700439453,-73.69488525390625,102.04608154296875,6.692487716674805,6.43116569519043,2.398538589477539,517.344006061554
D4:22:CD:00:05:6E,50.25109100341797,-56.68714141845703,-96.70584869384766,3.7445693016052246,-0.29675501585006714,8.833417892456055,517.344006061554
D4:22:CD:00:05:5E,100.57500457763672,-84.14415740966797,50.50235366821289,-5.907788276672363,3.5581655502319336,-0.8111753463745117,517.344006061554
D4:22:CD:00:05:5D,178.6309356689453,-19.885629653930664,-123.54885864257812,2.0425076484680176,-22.996047973632812,2.6619176864624023,517.3749418258667
D4:22:CD:00:05:6B,-34.48713684082031,-54.430267333984375,4.926070690155029,16.131572723388672,-1.989494800567627,14.668025970458984,517.3749418258667
D4:22:CD:00:49:AA,-148.4357452392578,-72.93123626708984,102.78862762451172,3.3733696937561035,2.6954030990600586,2.9179868698120117,517.3749418258667
D4:22:CD:00:05:6E,63.36562728881836,-49.36503601074219,-103.97581481933594,3.6813430786132812,4.369546890258789,22.417808532714844,517.3749418258667
D4:22:CD:00:05:5E,122.25609588623047,-84.12413787841797,27.818944931030273,-6.189552307128906,3.964963912963867,-0.008370399475097656,517.3749418258667
D4:22:CD:00:05:5D,-177.76516723632812,-22.00132179260254,-120.44808197021484,-7.429920196533203,-12.663021087646484,8.249404907226562,517.4046468734741
D4:22:CD:00:05:6B,-38.941219329833984,-44.68402862548828,4.235132217407227,14.09311294555664,-6.934996604919434,7.163507461547852,517.4046468734741
D4:22:CD:00:49:AA,-152.86996459960938,-73.12982940673828,103.86466979980469,-1.5271601676940918,2.4580583572387695,12.485477447509766,517.4046468734741
D4:22:CD:00:05:6E,74.55561828613281,-39.787269592285156,-108.65571594238281,13.181001663208008,16.656280517578125,28.085163116455078,517.4046468734741
D4:22:CD:00:05:5E,124.12930297851562,-84.01811218261719,25.248088836669922,-5.068958282470703,5.214417457580566,0.235198974609375,517.4046468734741
D4:22:CD:00:05:5D,177.65805053710938,-22.5872802734375,-122.19561004638672,-8.453939437866211,-11.294820785522461,10.100868225097656,517.4336547851562
D4:22:CD:00:05:6B,-43.19257354736328,-37.58759689331055,0.0953347235918045,10.664363861083984,-4.820585250854492,-0.5460672378540039,517.4336547851562
D4:22:CD:00:49:AA,-153.42604064941406,-73.57108306884766,103.17955780029297,-1.1899168491363525,3.411996841430664,9.719585418701172,517.4336547851562
D4:22:CD:00:05:6E,82.09843444824219,-27.2478084564209,-116.15540313720703,11.481283187866211,16.88681411743164,25.34576416015625,517.4336547851562
D4:22:CD:00:05:5E,108.51061248779297,-83.6025161743164,40.37314987182617,-5.783496856689453,4.236753463745117,0.2615175247192383,517.4336547851562
D4:22:CD:00:05:5D,173.20980834960938,-22.556167602539062,-127.73076629638672,-19.452194213867188,-6.876921653747559,6.221796035766602,517.4736692905426
D4:22:CD:00:05:6B,-51.74578857421875,-34.749000549316406,-6.6062726974487305,2.266810417175293,-6.581235885620117,-1.6788177490234375,517.4736692905426
D4:22:CD:00:49:AA,-158.08486938476562,-73.35272216796875,106.30197143554688,5.86563777923584,5.678199768066406,9.612493515014648,517.4736692905426
D4:22:CD:00:05:6E,85.90022277832031,-11.216707229614258,-123.23104095458984,4.723504066467285,5.874320983886719,19.77277374267578,517.4736692905426
D4:22:CD:00:05:5E,82.87992858886719,-82.64720916748047,64.75603485107422,-7.230846405029297,2.707866668701172,0.3929939270019531,517.4736692905426
D4:22:CD:00:05:5D,169.5297393798828,-24.0089054107666,-131.5665740966797,-21.685955047607422,-3.4804768562316895,3.500330924987793,517.524317741394
D4:22:CD:00:05:6B,-61.602760314941406,-36.79113006591797,-15.033714294433594,-4.334267616271973,-5.453746795654297,5.5706892013549805,517.524317741394
D4:22:CD:00:49:AA,-164.93646240234375,-73.13066864013672,109.61204528808594,4.706633567810059,4.216693878173828,6.652519226074219,517.524317741394
D4:22:CD:00:05:6E,86.43711853027344,6.427388668060303,-130.02308654785156,2.5177087783813477,-2.883594036102295,8.321714401245117,517.524317741394
D4:22:CD:00:05:5E,53.35021209716797,-80.5286865234375,91.46988677978516,-4.260395050048828,9.532360076904297,2.7117395401000977,517.524317741394
D4:22:CD:00:05:5D,166.01185607910156,-28.47116470336914,-131.7637481689453,-0.17866820096969604,-5.09401798248291,4.0209550857543945,517.5544736385345
D4:22:CD:00:05:6B,-63.638710021972656,-41.83367156982422,-26.228670120239258,-4.021913528442383,-1.23555588722229,-0.11882495880126953,517.5544736385345
D4:22:CD:00:49:AA,-173.08889770507812,-73.51258850097656,112.5528335571289,3.442627429962158,-1.1425645351409912,5.6819000244140625,517.5544736385345
D4:22:CD:00:05:6E,81.7983627319336,23.201738357543945,-138.57965087890625,1.8384919166564941,-6.171145439147949,1.0851430892944336,517.5544736385345
D4:22:CD:00:05:5E,29.304353713989258,-76.50971984863281,111.25054168701172,0.44449830055236816,3.3198423385620117,14.326850891113281,517.5544736385345
D4:22:CD:00:05:5D,164.86672973632812,-32.86825942993164,-132.5281219482422,-6.239574432373047,-6.741182327270508,-4.196656227111816,517.5833168029785
D4:22:CD:00:05:6B,-61.002525329589844,-47.64494705200195,-39.697669982910156,-3.1948928833007812,-3.013205051422119,-4.883662223815918,517.5833168029785
D4:22:CD:00:49:AA,178.5312042236328,-74.58497619628906,115.95539855957031,2.1365389823913574,0.7121407985687256,-2.205495834350586,517.5833168029785
D4:22:CD:00:05:6E,71.24539947509766,36.659488677978516,-150.93218994140625,6.3106279373168945,-6.067649841308594,-4.894858360290527,517.5833168029785
D4:22:CD:00:05:5E,21.70819664001465,-71.5998764038086,120.39083862304688,-7.020620346069336,3.1562938690185547,-3.289224147796631,517.5833168029785
D4:22:CD:00:05:5D,160.3090057373047,-39.31776428222656,-132.62783813476562,-5.687067985534668,-0.48345696926116943,-7.2138214111328125,517.6139342784882
D4:22:CD:00:05:6B,-59.53932571411133,-52.765377044677734,-53.3359260559082,-3.154005527496338,-3.1856303215026855,-5.916494369506836,517.6139342784882
D4:22:CD:00:49:AA,170.15296936035156,-74.4155502319336,119.10667419433594,2.607905864715576,0.6330212354660034,-7.430397033691406,517.6139342784882
D4:22:CD:00:05:6E,51.74376678466797,43.88816833496094,-167.35409545898438,11.388799667358398,-9.094064712524414,-6.566714286804199,517.6139342784882
D4:22:CD:00:05:5E,12.759970664978027,-73.66181182861328,125.24333953857422,-7.342144012451172,8.646749496459961,-10.742258071899414,517.6139342784882
D4:22:CD:00:05:5D,155.70884704589844,-47.56461715698242,-132.10263061523438,-5.197662353515625,-4.100719451904297,-18.581676483154297,517.6440732479095
D4:22:CD:00:05:6B,-59.22150421142578,-56.751529693603516,-66.9820327758789,-3.0222787857055664,-0.5815474987030029,-5.366556167602539,517.6440732479095
D4:22:CD:00:49:AA,168.03402709960938,-73.44599914550781,116.6316146850586,-2.5729947090148926,0.028717614710330963,-9.285219192504883,517.6440732479095
D4:22:CD:00:05:6E,26.813831329345703,44.47097396850586,179.9949951171875,11.710067749023438,-1.8273499011993408,-9.904199600219727,517.6440732479095
D4:22:CD:00:05:5E,-4.410245895385742,-78.08456420898438,135.9424285888672,1.043611764907837,-8.31787109375,-6.61446475982666,517.6440732479095
D4:22:CD:00:05:5D,153.3582763671875,-61.70236587524414,-131.21852111816406,-5.980560302734375,-2.8186745643615723,-10.962984085083008,517.6740791797638
D4:22:CD:00:05:6B,-55.94265365600586,-59.41065216064453,-82.09458923339844,-2.8274126052856445,1.4785654544830322,-5.63619327545166,517.6740791797638
D4:22:CD:00:49:AA,166.49668884277344,-73.93833923339844,115.92623138427734,-2.1614151000976562,2.008334159851074,-8.095762252807617,517.6740791797638
D4:22:CD:00:05:6E,8.818161010742188,43.63317108154297,179.5873260498047,1.2667808532714844,5.108955383300781,-7.849884033203125,517.6740791797638
D4:22:CD:00:05:5E,-21.90040397644043,-78.20085906982422,145.53125,-4.731415748596191,-8.455619812011719,-10.641292572021484,517.6740791797638
D4:22:CD:00:05:5D,143.68453979492188,-82.49134063720703,-124.67417907714844,1.6185662746429443,1.6761689186096191,17.283458709716797,517.7045891284943
D4:22:CD:00:05:6B,-48.42102813720703,-61.06134033203125,-99.14183807373047,-2.458772659301758,1.6159749031066895,-6.971163749694824,517.7045891284943
D4:22:CD:00:49:AA,158.32861328125,-75.94945526123047,121.53852081298828,0.9677654504776001,1.8837175369262695,-8.655851364135742,517.7045891284943
D4:22:CD:00:05:6E,6.31034517288208,46.51648712158203,-169.56655883789062,-7.03940486907959,-3.839641571044922,-8.575883865356445,517.7045891284943
D4:22:CD:00:05:5E,-38.031368255615234,-79.45924377441406,154.4912109375,-12.257568359375,0.5921392440795898,-6.487691879272461,517.7045891284943
D4:22:CD:00:05:5D,-17.182689666748047,-77.5269546508789,34.46754455566406,17.264278411865234,5.145357131958008,16.910446166992188,517.7341783046722
D4:22:CD:00:05:6B,-38.6632080078125,-61.99640655517578,-114.83203887939453,-2.414285659790039,1.6137075424194336,-6.809233665466309,517.7341783046722
D4:22:CD:00:49:AA,152.52017211914062,-77.01756286621094,123.95333099365234,2.1117100715637207,-1.9411461353302002,-9.510822296142578,517.7341783046722
D4:22:CD:00:05:6E,19.50896644592285,48.73313522338867,-146.73648071289062,-15.690397262573242,-13.730030059814453,-23.781494140625,517.7341783046722
D4:22:CD:00:05:5E,-55.042484283447266,-80.5535888671875,168.47869873046875,-4.155501365661621,0.20650696754455566,-4.657655715942383,517.7341783046722
D4:22:CD:00:05:5D,-9.900972366333008,-67.8310546875,28.45871925354004,20.503223419189453,13.781890869140625,-30.81835174560547,517.7641859054565
D4:22:CD:00:05:6B,-28.386781692504883,-63.05849838256836,-130.66342163085938,-2.241316318511963,2.954329490661621,-5.797245979309082,517.7641859054565
D4:22:CD:00:49:AA,152.19137573242188,-77.19526672363281,122.19222259521484,0.5685678720474243,-4.008749008178711,-3.7776002883911133,517.7641859054565
D4:22:CD:00:05:6E,42.27775192260742,44.370262145996094,-124.3802719116211,-12.197612762451172,-25.02507781982422,-38.14476776123047,517.7641859054565
D4:22:CD:00:05:5E,-78.69210815429688,-80.70999908447266,-170.35101318359375,1.0384557247161865,2.365084648132324,-1.7460289001464844,517.7641859054565
D4:22:CD:00:05:5D,-10.945740699768066,-69.02326202392578,26.49582290649414,14.962362289428711,3.521620750427246,-10.805488586425781,517.8237152099609
D4:22:CD:00:05:6B,-18.1893310546875,-64.04358673095703,-145.74349975585938,-0.6802017688751221,2.947096824645996,-4.762006759643555,517.8237152099609
D4:22:CD:00:49:AA,152.09393310546875,-77.7809829711914,121.06433868408203,-0.7555702924728394,-0.7268990278244019,-1.2564458847045898,517.8237152099609
D4:22:CD:00:05:6E,60.32559585571289,47.506534576416016,-127.6563491821289,2.7753095626831055,11.638622283935547,-10.250068664550781,517.8237152099609
D4:22:CD:00:05:5E,-104.2786865234375,-79.00946807861328,-150.18548583984375,-4.223721504211426,1.3380165100097656,4.585895538330078,517.8237152099609
D4:22:CD:00:05:5D,4.271655559539795,-74.68067169189453,15.443829536437988,11.128591537475586,-0.06574292480945587,-2.8019399642944336,517.8540832996368
D4:22:CD:00:05:6B,-12.184308052062988,-65.03929138183594,-157.4626922607422,-3.418537139892578,1.9720590114593506,-4.085951805114746,517.8540832996368
D4:22:CD:00:49:AA,149.90335083007812,-78.7188720703125,121.26239013671875,3.27777099609375,4.868231773376465,-0.629298210144043,517.8540832996368
D4:22:CD:00:05:6E,63.97758865356445,53.585731506347656,-143.83494567871094,2.910076141357422,-13.475399017333984,-2.1171646118164062,517.8540832996368
D4:22:CD:00:05:5E,-114.35047912597656,-76.94487762451172,-141.287109375,-6.03708553314209,-1.6218342781066895,0.6378517150878906,517.8540832996368
D4:22:CD:00:05:5D,42.860843658447266,-80.1406478881836,-12.129585266113281,9.89950180053711,4.012142181396484,-1.1023378372192383,517.8838837146759
D4:22:CD:00:05:6B,-6.426426410675049,-67.7868423461914,-168.6231231689453,-2.608750820159912,3.6458420753479004,3.482250213623047,517.8838837146759
D4:22:CD:00:49:AA,152.47811889648438,-79.44354248046875,117.70123291015625,2.4061408042907715,1.7658233642578125,1.9837026596069336,517.8838837146759
D4:22:CD:00:05:6E,46.32211685180664,56.82129669189453,-171.34976196289062,-4.533913612365723,-8.2138671875,-11.976604461669922,517.8838837146759
D4:22:CD:00:05:5E,-117.28411865234375,-75.21711730957031,-138.00271606445312,-3.1793785095214844,3.2352209091186523,4.256466865539551,517.8838837146759
D4:22:CD:00:05:5D,98.30132293701172,-80.43059539794922,-58.25762176513672,-3.5010461807250977,-0.5237958431243896,6.862039566040039,517.9139182567596
D4:22:CD:00:05:6B,3.392839193344116,-71.47142791748047,177.6281280517578,-0.4550211429595947,5.536349296569824,6.155738830566406,517.9139182567596
D4:22:CD:00:49:AA,158.48541259765625,-79.97850036621094,111.8408203125,1.0100030899047852,4.376768112182617,3.288418769836426,517.9139182567596
D4:22:CD:00:05:6E,25.567707061767578,50.99436569213867,158.1441192626953,-1.827103614807129,9.219461441040039,-15.422313690185547,517.9139182567596
D4:22:CD:00:05:5E,-116.83265686035156,-73.66569519042969,-137.8266143798828,-5.965084075927734,1.1321790218353271,3.1548280715942383,517.9139182567596
D4:22:CD:00:05:5D,115.52396392822266,-79.45713806152344,-78.30328369140625,1.9487342834472656,-14.522026062011719,2.2950439453125,517.9439158439636
D4:22:CD:00:05:6B,18.621906280517578,-75.22919464111328,161.42088317871094,0.01878952980041504,4.195596694946289,6.662961959838867,517.9439158439636
D4:22:CD:00:49:AA,164.09182739257812,-79.881591796875,107.35090637207031,3.249943256378174,3.113926410675049,6.550956726074219,517.9439158439636
D4:22:CD:00:05:6E,24.26370620727539,37.35610580444336,138.9517059326172,-3.6658387184143066,-9.526643753051758,-12.090307235717773,517.9439158439636
D4:22:CD:00:05:5E,-113.27349090576172,-72.56836700439453,-140.14366149902344,-5.181491851806641,2.4242196083068848,2.767388343811035,517.9439158439636
D4:22:CD:00:05:5D,131.1807861328125,-78.94652557373047,-91.28665924072266,-11.086421966552734,-5.956267356872559,15.677738189697266,517.9739234447479
D4:22:CD:00:05:6B,36.70576858520508,-78.60065460205078,145.51193237304688,1.254955530166626,3.7328410148620605,8.017208099365234,517.9739234447479
D4:22:CD:00:49:AA,169.68678283691406,-79.20471954345703,103.69369506835938,0.7530103921890259,-0.4796122908592224,2.877438545227051,517.9739234447479
D4:22:CD:00:05:6E,25.567716598510742,20.600797653198242,126.36478424072266,-4.125583648681641,1.3821065425872803,-12.260517120361328,517.9739234447479
D4:22:CD:00:05:5E,-107.06369018554688,-71.57036590576172,-144.58973693847656,-6.694174766540527,0.029562268406152725,0.6621379852294922,517.9739234447479
D4:22:CD:00:05:5D,144.8168182373047,-76.06070709228516,-96.43482971191406,0.7052942514419556,3.543748378753662,-1.2316303253173828,518.0041499137878
D4:22:CD:00:05:6B,54.5555305480957,-82.09003448486328,131.17184448242188,1.6927077770233154,3.218186378479004,5.4424943923950195,518.0041499137878
D4:22:CD:00:49:AA,175.0020751953125,-77.35935974121094,101.10980224609375,-0.13718464970588684,-1.498309850692749,2.9265289306640625,518.0041499137878
D4:22:CD:00:05:6E,33.6385383605957,4.65727424621582,116.33724975585938,2.3056440353393555,11.070972442626953,-1.4066858291625977,518.0041499137878
D4:22:CD:00:05:5E,-96.9079360961914,-70.74275970458984,-151.25997924804688,-5.048635482788086,-1.4503850936889648,1.6807861328125,518.0041499137878
D4:22:CD:00:05:5D,154.0634765625,-74.71137237548828,-102.23464965820312,-6.600313186645508,9.057056427001953,1.3569440841674805,518.0342435836792
D4:22:CD:00:05:6B,82.68960571289062,-86.28495788574219,107.35778045654297,2.184875011444092,2.62307071685791,3.332609176635742,518.0342435836792
D4:22:CD:00:49:AA,177.05709838867188,-75.31547546386719,102.56800079345703,-2.9332618713378906,1.5530686378479004,1.9872169494628906,518.0342435836792
D4:22:CD:00:05:6E,43.43659591674805,-6.387223243713379,109.36628723144531,17.805721282958984,18.224105834960938,13.750846862792969,518.0342435836792
D4:22:CD:00:05:5E,-80.43544006347656,-69.7034912109375,-160.76394653320312,-9.04307746887207,-1.169288158416748,-2.911990165710449,518.0342435836792
D4:22:CD:00:05:5D,160.52005004882812,-74.0585708618164,-107.33383178710938,-2.562002182006836,-0.4670636057853699,1.61279296875,518.0642437934875
D4:22:CD:00:05:6B,-178.29959106445312,-87.36648559570312,14.889124870300293,3.235597610473633,0.08997368812561035,-0.8405523300170898,518.0642437934875
D4:22:CD:00:49:AA,-179.19309997558594,-73.7703628540039,104.21307373046875,-1.2242529392242432,-1.699066400527954,-2.153136730194092,518.0642437934875
D4:22:CD:00:05:6E,57.32670211791992,-11.004816055297852,110.36930084228516,3.2387170791625977,3.6642417907714844,1.0413694381713867,518.0642437934875
D4:22:CD:00:05:5E,-63.50408935546875,-68.94035339355469,-163.8054656982422,-23.421783447265625,9.070335388183594,-11.311056137084961,518.0642437934875
D4:22:CD:00:05:5D,168.63710021972656,-73.42212677001953,-113.96310424804688,-0.6424535512924194,-1.1439366340637207,-0.5974893569946289,518.1237556934357
D4:22:CD:00:05:6B,-147.273193359375,-84.32142639160156,-9.351269721984863,1.9436023235321045,-6.283489227294922,-8.223398208618164,518.1237556934357
D4:22:CD:00:49:AA,-174.993896484375,-71.9869155883789,106.49513244628906,0.5900791883468628,-1.378279447555542,-2.577610492706299,518.1237556934357
D4:22:CD:00:05:6E,59.9162712097168,-12.190940856933594,111.49681854248047,-12.093141555786133,-14.491004943847656,14.458475112915039,518.1237556934357
D4:22:CD:00:05:5E,-57.159034729003906,-70.52298736572266,-153.4333038330078,-28.341461181640625,5.216221809387207,-8.896745681762695,518.1237556934357
D4:22:CD:00:05:5D,174.31256103515625,-72.10023498535156,-119.01458740234375,1.059600591659546,-1.9267609119415283,0.030942916870117188,518.1538972854614
D4:22:CD:00:05:6B,-157.960693359375,-83.5995101928711,1.0254532098770142,4.342737197875977,-19.260051727294922,-7.368678092956543,518.1538972854614
D4:22:CD:00:49:AA,-176.78787231445312,-70.47850799560547,110.95919799804688,2.6395440101623535,4.0237321853637695,-1.7417926788330078,518.1538972854614
D4:22:CD:00:05:6E,54.10942840576172,-11.348814964294434,109.97808837890625,9.543497085571289,-2.9055047035217285,-2.836812973022461,518.1538972854614
D4:22:CD:00:05:5E,-81.7348861694336,-73.8051986694336,-121.52245330810547,-19.48041534423828,-5.842609405517578,-11.137514114379883,518.1538972854614
D4:22:CD:00:05:5D,177.2613525390625,-70.55415344238281,-120.90657806396484,1.1188979148864746,-2.342529773712158,-0.5936899185180664,518.1994152069092
D4:22:CD:00:05:6B,-178.12307739257812,-84.80326080322266,12.94497299194336,-4.93825626373291,8.313911437988281,-2.077014446258545,518.1994152069092
D4:22:CD:00:49:AA,177.66746520996094,-70.19895935058594,115.02838897705078,-0.2576449513435364,1.1580846309661865,-0.26566505432128906,518.1994152069092
D4:22:CD:00:05:6E,62.473365783691406,-11.316041946411133,109.71574401855469,8.527381896972656,-3.3496904373168945,-13.121183395385742,518.1994152069092
D4:22:CD:00:05:5E,-124.90460205078125,-72.75629425048828,-78.56570434570312,-6.750972747802734,-4.962656021118164,-10.644235610961914,518.1994152069092
D4:22:CD:00:05:5D,178.7270050048828,-68.86328125,-121.00084686279297,-0.5445703268051147,0.14778518676757812,0.16299057006835938,518.2144141197205
D4:22:CD:00:05:6B,158.53440856933594,-85.29660034179688,34.46519470214844,-4.585492134094238,1.2757952213287354,1.248128890991211,518.2144141197205
D4:22:CD:00:49:AA,173.31082153320312,-70.44573211669922,119.02637481689453,-6.3971405029296875,1.4651048183441162,0.7781124114990234,518.2144141197205
D4:22:CD:00:05:6E,79.6817626953125,-15.178844451904297,110.08335876464844,-2.692073345184326,-2.788503646850586,-5.812877655029297,518.2144141197205
D4:22:CD:00:05:5E,-155.14358520507812,-67.74575805664062,-51.26335525512695,0.5565674304962158,-1.9416067600250244,-8.594537734985352,518.2144141197205
D4:22:CD:00:05:5D,179.20883178710938,-67.11259460449219,-120.9535140991211,-1.341787576675415,0.02939239889383316,-0.2709531784057617,518.2445120811462
D4:22:CD:00:05:6B,154.19923400878906,-85.50643157958984,36.74578857421875,-0.17840024828910828,0.655231237411499,0.3999290466308594,518.2445120811462
D4:22:CD:00:49:AA,170.97311401367188,-70.9563217163086,121.71492767333984,-3.574376106262207,-0.09085622429847717,-0.3812370300292969,518.2445120811462
D4:22:CD:00:05:6E,92.21495056152344,-23.763967514038086,110.64887237548828,-2.619075298309326,-1.312596082687378,3.153752326965332,518.2445120811462
D4:22:CD:00:05:5E,-172.6665496826172,-64.4677505493164,-35.72664260864258,7.6864213943481445,-1.5821104049682617,-6.771644592285156,518.2445120811462
D4:22:CD:00:05:5D,178.90513610839844,-64.67529296875,-120.9635009765625,-0.4592167139053345,-2.427579879760742,-1.194993019104004,518.2736511230469
D4:22:CD:00:05:6B,-173.09173583984375,-87.00173950195312,1.8058655261993408,0.13273632526397705,2.988219738006592,-0.690730094909668,518.2736511230469
D4:22:CD:00:49:AA,167.38255310058594,-71.51336669921875,123.98414611816406,0.7261255979537964,-1.001671552658081,-4.119908332824707,518.2736511230469
D4:22:CD:00:05:6E,94.11888122558594,-37.14652633666992,110.9671630859375,-2.1762213706970215,2.7684082984924316,7.111625671386719,518.2736511230469
D4:22:CD:00:05:5E,175.6150360107422,-65.69248962402344,-22.948360443115234,15.318092346191406,-3.046546459197998,-5.718090057373047,518.2736511230469
D4:22:CD:00:05:5D,178.74180603027344,-61.53352355957031,-120.64063262939453,-0.6017155647277832,-0.5012667179107666,-0.738189697265625,518.3041679859161
D4:22:CD:00:05:6B,-102.94869232177734,-83.60987854003906,-70.86626434326172,-0.6745650768280029,6.684332847595215,1.216273307800293,518.3041679859161
D4:22:CD:00:49:AA,161.81712341308594,-71.93272399902344,127.64981842041016,-0.16005674004554749,0.3981170058250427,-3.600088596343994,518.3041679859161
D4:22:CD:00:05:6E,85.61105346679688,-53.52800369262695,111.3411865234375,-0.27021366357803345,9.988458633422852,16.112953186035156,518.3041679859161
D4:22:CD:00:05:5E,163.046875,-70.40675354003906,-5.118207931518555,-1.94181489944458,12.296466827392578,12.214349746704102,518.3041679859161
D4:22:CD:00:05:5D,178.20339965820312,-57.94645690917969,-119.74026489257812,-0.24670419096946716,-1.526242733001709,-0.7177715301513672,518.3343002796173
D4:22:CD:00:05:6B,-85.5067367553711,-74.95630645751953,-87.81609344482422,1.4697847366333008,6.347524642944336,5.694724082946777,518.3343002796173
D4:22:CD:00:49:AA,155.84237670898438,-72.26361083984375,133.42745971679688,-1.3269665241241455,-1.7910454273223877,-3.349111557006836,518.3343002796173
D4:22:CD:00:05:6E,68.77912139892578,-66.50361633300781,117.07742309570312,4.013164520263672,15.852184295654297,27.185470581054688,518.3343002796173
D4:22:CD:00:05:5E,158.70199584960938,-72.91695404052734,5.490602493286133,16.960735321044922,7.100150108337402,3.1680145263671875,518.3343002796173
D4:22:CD:00:05:5D,177.83116149902344,-54.31136703491211,-118.57019805908203,-0.43301451206207275,0.21604403853416443,0.25263500213623047,518.3644270896912
D4:22:CD:00:05:6B,-75.74356842041016,-63.19407272338867,-94.57238006591797,1.1151375770568848,4.528705596923828,10.940013885498047,518.3644270896912
D4:22:CD:00:49:AA,147.260498046875,-72.74357604980469,141.97103881835938,0.9860892295837402,-0.9608482122421265,-1.864354133605957,518.3644270896912
D4:22:CD:00:05:6E,67.05555725097656,-65.53368377685547,115.35729217529297,3.8203959465026855,5.83974552154541,-2.15818452835083,518.3644270896912
D4:22:CD:00:05:5E,157.0042724609375,-74.0268783569336,10.741966247558594,6.959212303161621,9.206499099731445,12.75649642944336,518.3644270896912
D4:22:CD:00:05:5D,177.88491821289062,-51.16972351074219,-118.01142120361328,-0.7061306238174438,0.4221893548965454,0.6901664733886719,518.424426317215
D4:22:CD:00:05:6B,-68.91409301757812,-49.23954772949219,-95.78714752197266,-5.046316146850586,9.288673400878906,16.500259399414062,518.424426317215
D4:22:CD:00:49:AA,140.85133361816406,-72.60540008544922,148.42294311523438,-0.3124898672103882,0.3626249432563782,5.217187881469727,518.424426317215
D4:22:CD:00:05:6E,74.306640625,-57.13743209838867,109.32284545898438,-7.317990303039551,24.969440460205078,1.020665168762207,518.424426317215
D4:22:CD:00:05:5E,164.9250030517578,-72.53526306152344,1.779367446899414,4.898731231689453,4.440386772155762,13.774518966674805,518.424426317215
D4:22:CD:00:05:5D,178.62925720214844,-48.780216217041016,-118.5345458984375,-2.1140518188476562,1.6863102912902832,1.539240837097168,518.4544186592102
D4:22:CD:00:05:6B,-59.32713317871094,-35.627262115478516,-89.7281265258789,3.970681667327881,5.801901817321777,15.033927917480469,518.4544186592102
D4:22:CD:00:49:AA,139.1616973876953,-72.21089172363281,152.15240478515625,-1.763105869293213,-1.744347095489502,6.542442321777344,518.4544186592102
D4:22:CD:00:05:6E,80.76760864257812,-50.3629150390625,111.75469207763672,-9.732383728027344,11.795076370239258,0.4350442886352539,518.4544186592102
D4:22:CD:00:05:5E,173.99644470214844,-69.39506530761719,-8.642857551574707,-0.04523371160030365,-2.651566982269287,13.145397186279297,518.4544186592102
D4:22:CD:00:05:5D,-179.94656372070312,-47.52749252319336,-119.81254577636719,0.2398723065853119,0.15529412031173706,1.3966560363769531,518.484370470047
D4:22:CD:00:05:6B,-42.04010772705078,-21.73688316345215,-80.99088287353516,-0.9097630977630615,-2.624439239501953,18.050800323486328,518.484370470047
D4:22:CD:00:49:AA,139.72335815429688,-72.3906021118164,153.19876098632812,-0.17044517397880554,0.7465424537658691,6.5231781005859375,518.484370470047
D4:22:CD:00:05:6E,84.45146179199219,-49.93108367919922,119.42668914794922,-11.341846466064453,6.839483261108398,5.204413414001465,518.484370470047
D4:22:CD:00:05:5E,-178.27381896972656,-66.0665512084961,-15.184843063354492,5.399418830871582,-5.397180557250977,7.315700531005859,518.484370470047
D4:22:CD:00:05:5D,-177.9958038330078,-47.62620162963867,-121.7979965209961,-1.1465938091278076,1.498260259628296,2.542819023132324,518.5143706798553
D4:22:CD:00:05:6B,-26.380741119384766,-6.970092296600342,-69.2821044921875,1.5151515007019043,-11.310441970825195,13.681879043579102,518.5143706798553
D4:22:CD:00:49:AA,141.8278350830078,-72.88720703125,152.05538940429688,-0.4857097268104553,0.46348631381988525,7.5048980712890625,518.5143706798553
D4:22:CD:00:05:6E,88.57073211669922,-53.74273681640625,128.03326416015625,-9.721731185913086,-3.6498403549194336,11.042165756225586,518.5143706798553
D4:22:CD:00:05:5E,-178.05140686035156,-64.84737396240234,-16.533903121948242,4.55986213684082,-5.793630599975586,2.570476531982422,518.5143706798553
D4:22:CD:00:05:5D,-175.56190490722656,-49.055145263671875,-124.67689514160156,-0.9261797666549683,1.0758395195007324,2.0110549926757812,518.5443716049194
D4:22:CD:00:05:6B,-12.248106956481934,5.667978286743164,-59.35673522949219,9.461091995239258,-9.938047409057617,7.527744293212891,518.5443716049194
D4:22:CD:00:49:AA,145.5686798095703,-73.26203155517578,149.69529724121094,-4.294808387756348,-0.520550012588501,8.677362442016602,518.5443716049194
D4:22:CD:00:05:6E,92.9160385131836,-61.843868255615234,135.8057403564453,1.5709819793701172,-0.9609400033950806,12.121236801147461,518.5443716049194
D4:22:CD:00:05:5E,178.1448516845703,-67.99771118164062,-14.661703109741211,2.1289825439453125,-1.3589017391204834,2.741659164428711,518.5443716049194
