Device,EulerX,EulerY,EulerZ,FreeAccX,FreeAccY,FreeAccZ,Timestamp
D4:22:CD:00:05:5D,174.4032440185547,-51.20710372924805,-121.65214538574219,0.8961007595062256,0.9858361482620239,2.766055107116699,1360.1328206062317
D4:22:CD:00:05:6B,-66.1195068359375,5.157898426055908,-123.1818618774414,13.253656387329102,-5.253674507141113,22.81267547607422,1360.1328206062317
D4:22:CD:00:49:AA,143.18820190429688,-66.4100570678711,136.8014678955078,-0.643385648727417,0.4200592637062073,10.821056365966797,1360.1328206062317
D4:22:CD:00:05:6E,72.36217498779297,-51.754249572753906,3.835500955581665,13.798971176147461,7.4008941650390625,5.234509468078613,1360.1328206062317
D4:22:CD:00:05:5E,-176.80577087402344,-68.64122009277344,5.2569122314453125,7.477320671081543,-4.728598594665527,14.14529037475586,1360.1328206062317
D4:22:CD:00:05:6B,-53.07131576538086,21.56787872314453,-121.74197387695312,1.4966073036193848,-10.733322143554688,14.66264533996582,1360.1448180675507
D4:22:CD:00:49:AA,147.3682403564453,-65.35067749023438,132.33274841308594,-3.3570470809936523,-4.054003715515137,8.853414535522461,1360.1448180675507
D4:22:CD:00:05:6E,78.52605438232422,-56.99483108520508,8.151665687561035,4.931053161621094,9.741996765136719,7.6954803466796875,1360.1448180675507
D4:22:CD:00:05:5E,-169.53472900390625,-63.8574333190918,-1.31777822971344,3.8125686645507812,-10.93946647644043,7.882665634155273,1360.1448180675507
D4:22:CD:00:05:5D,-150.88697814941406,-73.38874053955078,-112.83164978027344,-1.544567584991455,0.5076045989990234,-0.6183509826660156,1360.1538171768188
D4:22:CD:00:49:AA,150.30604553222656,-65.11975860595703,129.59100341796875,-5.0443525314331055,-0.7035109996795654,7.790945053100586,1360.1538171768188
D4:22:CD:00:05:6E,82.09868621826172,-66.6724853515625,14.859302520751953,1.481987714767456,8.098846435546875,9.719463348388672,1360.1538171768188
D4:22:CD:00:05:5E,-173.93959045410156,-61.812522888183594,-1.025010108947754,3.6771445274353027,-2.2364773750305176,2.2926082611083984,1360.1538171768188
D4:22:CD:00:05:5D,-160.7667999267578,-72.16729736328125,-102.2054214477539,0.886939525604248,0.11305966973304749,-1.2082834243774414,1360.1608228683472
D4:22:CD:00:05:6B,-64.91254425048828,-27.261642456054688,-79.06737518310547,2.6207847595214844,0.5503171682357788,-2.7401132583618164,1360.1608228683472
D4:22:CD:00:05:6E,84.99980926513672,-76.69001007080078,29.587560653686523,-13.52743911743164,7.783588409423828,17.363651275634766,1360.1608228683472
D4:22:CD:00:05:5E,-176.75022888183594,-65.2033462524414,2.74922513961792,1.9251139163970947,3.611478328704834,-0.7536306381225586,1360.1608228683472
D4:22:CD:00:05:5D,-168.34010314941406,-68.27400970458984,-91.82783508300781,-3.6061573028564453,1.0348334312438965,-0.9952154159545898,1360.1679005622864
D4:22:CD:00:05:6B,-61.06719970703125,-24.021240234375,-83.06262969970703,3.464050769805908,-1.1503174304962158,-0.45450878143310547,1360.1679005622864
D4:22:CD:00:49:AA,148.46676635742188,-75.2434310913086,127.3314208984375,-0.9530967473983765,0.07368305325508118,1.636448860168457,1360.1679005622864
D4:22:CD:00:05:5D,-176.81085205078125,-63.37632751464844,-81.91779327392578,-2.961348056793213,1.4718677997589111,0.3870658874511719,1360.198046207428
D4:22:CD:00:05:6B,-56.23650360107422,-18.452848434448242,-89.64892578125,1.1063525676727295,-0.27374958992004395,11.410429000854492,1360.198046207428
D4:22:CD:00:49:AA,146.63890075683594,-75.30522918701172,129.13992309570312,-2.6507363319396973,0.7533669471740723,5.035129547119141,1360.198046207428
D4:22:CD:00:05:6E,122.04317474365234,-79.52202606201172,1.0743029117584229,4.981681823730469,1.3850669860839844,11.007591247558594,1360.198046207428
D4:22:CD:00:05:5E,-139.46728515625,-72.69570922851562,-36.589847564697266,0.4272148609161377,-5.46527099609375,18.74502944946289,1360.198046207428
D4:22:CD:00:05:5D,179.0047607421875,-58.82344055175781,-77.17809295654297,-2.6370015144348145,1.9823901653289795,1.8461322784423828,1360.2271201610565
D4:22:CD:00:05:6B,-55.89631652832031,-9.78735637664795,-92.79906463623047,0.5665833950042725,5.396308898925781,21.63992691040039,1360.2271201610565
D4:22:CD:00:49:AA,153.8960723876953,-77.17823791503906,123.02359008789062,1.381476879119873,-1.6631169319152832,7.730625152587891,1360.2271201610565
D4:22:CD:00:05:6E,177.51229858398438,-86.48949432373047,-56.886070251464844,10.586101531982422,5.175798416137695,14.190650939941406,1360.2271201610565
D4:22:CD:00:05:5E,-158.86328125,-71.08732604980469,-18.248018264770508,2.237034320831299,-3.170903205871582,16.949356079101562,1360.2271201610565
D4:22:CD:00:05:5D,177.52931213378906,-55.64643478393555,-75.72692108154297,-1.3418724536895752,1.6286900043487549,1.7799272537231445,1360.2571835517883
D4:22:CD:00:05:6B,-54.090309143066406,4.79953670501709,-90.75468444824219,8.961984634399414,-0.8418958187103271,33.24101257324219,1360.2571835517883
D4:22:CD:00:49:AA,157.57728576660156,-75.59684753417969,120.13034057617188,4.604100227355957,-2.657036304473877,9.688575744628906,1360.2571835517883
D4:22:CD:00:05:6E,-90.4111557006836,-78.954345703125,-140.29934692382812,-6.363919258117676,1.3789746761322021,17.06084442138672,1360.2571835517883
D4:22:CD:00:05:5E,-178.90989685058594,-69.79439544677734,-0.857759416103363,9.652017593383789,-5.278985023498535,8.751031875610352,1360.2571835517883
D4:22:CD:00:05:5D,177.54617309570312,-54.05529022216797,-75.91781616210938,-0.7580902576446533,1.2423765659332275,1.883066177368164,1360.2873239517212
D4:22:CD:00:05:6B,-40.361629486083984,21.435684204101562,-82.77119445800781,3.1642560958862305,-13.233051300048828,28.39666748046875,1360.2873239517212
D4:22:CD:00:49:AA,159.8880157470703,-72.9997787475586,118.60678100585938,0.6964547634124756,-1.4246821403503418,9.62685775756836,1360.2873239517212
D4:22:CD:00:05:6E,-81.94186401367188,-76.77117919921875,-142.0115966796875,-15.57162857055664,-0.8115857839584351,11.931438446044922,1360.2873239517212
D4:22:CD:00:05:5E,162.0404510498047,-76.75372314453125,18.12321662902832,3.2987332344055176,1.8430109024047852,6.772523880004883,1360.2873239517212
D4:22:CD:00:05:5D,177.91250610351562,-54.286231994628906,-76.65528106689453,-0.12498252093791962,1.4993646144866943,2.211933135986328,1360.3170506954193
D4:22:CD:00:05:6B,-18.164716720581055,30.966320037841797,-68.72330474853516,-4.890059471130371,-7.614361763000488,13.538887023925781,1360.3170506954193
D4:22:CD:00:49:AA,163.55776977539062,-72.35069274902344,115.70655059814453,-0.46790021657943726,-0.12110334634780884,8.18754768371582,1360.3170506954193
D4:22:CD:00:05:6E,-75.43777465820312,-76.13861846923828,-140.07919311523438,-13.283445358276367,-0.4698528051376343,2.596543312072754,1360.3170506954193
D4:22:CD:00:05:5E,118.3285903930664,-83.73452758789062,60.04827117919922,1.9705967903137207,-0.8316690921783447,1.3088092803955078,1360.3170506954193
D4:22:CD:00:05:5D,178.58767700195312,-56.3336181640625,-77.51884460449219,-0.30257517099380493,1.5490617752075195,2.6833953857421875,1360.3476786613464
D4:22:CD:00:05:6B,1.1653497219085693,33.11996841430664,-55.11823654174805,-13.779548645019531,1.444035530090332,6.897455215454102,1360.3476786613464
D4:22:CD:00:49:AA,169.96990966796875,-72.94367218017578,111.30935668945312,-3.5416011810302734,0.22063499689102173,7.582614898681641,1360.3476786613464
D4:22:CD:00:05:6E,-66.7520751953125,-72.66229248046875,-135.63478088378906,-14.84675407409668,-9.244726181030273,-3.858083724975586,1360.3476786613464
D4:22:CD:00:05:5E,32.42232131958008,-77.0243148803711,141.54100036621094,8.229631423950195,-2.1508021354675293,-0.738525390625,1360.3476786613464
D4:22:CD:00:05:5D,-179.9970703125,-60.237606048583984,-78.16098022460938,-0.48710644245147705,0.9033148288726807,6.122490882873535,1360.3766815662384
D4:22:CD:00:05:6B,11.7352876663208,34.5362663269043,-49.43190383911133,-10.28598403930664,-1.9172718524932861,-0.5052061080932617,1360.3766815662384
D4:22:CD:00:49:AA,-178.9443359375,-73.04878234863281,104.29488372802734,-4.450894355773926,3.930037021636963,0.7959461212158203,1360.3766815662384
D4:22:CD:00:05:6E,-61.45498275756836,-68.24242401123047,-127.66371154785156,-10.79277229309082,-7.39091682434082,-7.696126937866211,1360.3766815662384
D4:22:CD:00:05:5E,12.785367965698242,-57.02205276489258,153.2441864013672,-6.270769119262695,-1.7545907497406006,6.9696044921875,1360.3766815662384
D4:22:CD:00:05:5D,-179.5498046875,-65.54817199707031,-78.08403778076172,0.1630920171737671,-12.16114616394043,14.23590087890625,1360.437706708908
D4:22:CD:00:05:6B,15.274422645568848,39.50990295410156,-51.890235900878906,-3.9533629417419434,-4.936402320861816,-8.409402847290039,1360.437706708908
D4:22:CD:00:49:AA,-166.3453826904297,-71.71497344970703,96.8303451538086,-1.7914893627166748,-1.3156790733337402,-3.166165351867676,1360.437706708908
D4:22:CD:00:05:6E,-59.81827926635742,-63.758766174316406,-118.84851837158203,-9.675394058227539,-14.617656707763672,-11.625371932983398,1360.437706708908
D4:22:CD:00:05:5E,7.941074371337891,-35.02874755859375,152.4193115234375,-31.23309326171875,12.90156364440918,4.773713111877441,1360.437706708908
D4:22:CD:00:05:5D,172.71449279785156,-70.62516784667969,-76.44491577148438,2.7855215072631836,-3.8250231742858887,-4.204093933105469,1360.4679198265076
D4:22:CD:00:05:6B,16.58838653564453,46.11503601074219,-63.056121826171875,-5.12143611907959,-3.219688892364502,-15.885173797607422,1360.4679198265076
D4:22:CD:00:49:AA,-156.66336059570312,-68.35388946533203,91.6796646118164,2.2989349365234375,-1.5919079780578613,-4.00516414642334,1360.4679198265076
D4:22:CD:00:05:6E,-65.10843658447266,-59.77470779418945,-110.48087310791016,-2.8643836975097656,-9.316957473754883,-11.852508544921875,1360.4679198265076
D4:22:CD:00:05:5E,12.997905731201172,-19.681243896484375,151.17587280273438,-24.640033721923828,22.525493621826172,-26.431148529052734,1360.4679198265076
D4:22:CD:00:05:5D,166.90802001953125,-70.23370361328125,-70.11822509765625,2.7710866928100586,1.5964741706848145,-8.636764526367188,1360.4981679916382
D4:22:CD:00:05:6B,10.42561149597168,52.244537353515625,-84.29296875,4.7938232421875,-6.818850517272949,-16.37628936767578,1360.4981679916382
D4:22:CD:00:49:AA,-153.94509887695312,-66.925048828125,90.26701354980469,3.7402687072753906,1.9746181964874268,-12.037981033325195,1360.4981679916382
D4:22:CD:00:05:6E,-68.94469451904297,-56.13338851928711,-104.14522552490234,0.4692726731300354,-8.12887191772461,-12.31062126159668,1360.4981679916382
D4:22:CD:00:05:5E,19.115386962890625,-13.813157081604004,153.37557983398438,-15.963777542114258,0.48081231117248535,-32.073829650878906,1360.4981679916382
D4:22:CD:00:05:5D,162.9814910888672,-71.95841979980469,-61.96770477294922,7.505827903747559,-8.275415420532227,-15.43891716003418,1360.527672290802
D4:22:CD:00:05:6B,-13.367378234863281,53.66336441040039,-113.55265808105469,-5.562494277954102,-13.562788009643555,-30.277721405029297,1360.527672290802
D4:22:CD:00:49:AA,-151.8531494140625,-68.077880859375,89.49687957763672,-0.8562393188476562,0.3989090323448181,-8.698856353759766,1360.527672290802
D4:22:CD:00:05:6E,-71.30842590332031,-53.743865966796875,-100.06214904785156,1.9810850620269775,-6.616589546203613,-11.429840087890625,1360.527672290802
D4:22:CD:00:05:5E,15.55798053741455,-17.659608840942383,156.282958984375,-5.464839935302734,1.1695137023925781,-30.036972045898438,1360.527672290802
D4:22:CD:00:05:5D,161.80487060546875,-75.71604919433594,-54.22882080078125,-10.260177612304688,20.98737335205078,-2.0021162033081055,1360.5578513145447
D4:22:CD:00:05:6B,-37.77701950073242,47.65254211425781,-138.5606231689453,-15.488300323486328,-7.874321937561035,-32.029541015625,1360.5578513145447
D4:22:CD:00:49:AA,-147.2822265625,-70.69766235351562,87.29408264160156,-3.335937976837158,-1.552076816558838,-6.261463165283203,1360.5578513145447
D4:22:CD:00:05:6E,-71.05199432373047,-53.820457458496094,-98.61283874511719,1.0142822265625,-4.453693389892578,-10.593358993530273,1360.5578513145447
D4:22:CD:00:05:5E,11.855813026428223,-24.95671844482422,159.765869140625,-7.14827823638916,6.122982025146484,-16.252796173095703,1360.5578513145447
D4:22:CD:00:05:5D,160.0814971923828,-73.11537170410156,-44.97929763793945,2.309687614440918,-0.8909933567047119,-6.591274261474609,1360.5877568721771
D4:22:CD:00:05:6B,-56.85486602783203,45.82901382446289,-143.52621459960938,12.016834259033203,5.859335899353027,-8.931819915771484,1360.5877568721771
D4:22:CD:00:49:AA,-139.8284912109375,-72.41697692871094,83.70013427734375,-1.3587923049926758,0.5729827880859375,-4.149477005004883,1360.5877568721771
D4:22:CD:00:05:6E,-68.19617462158203,-56.9549446105957,-98.80358123779297,0.6197981834411621,-5.664525985717773,-6.114668846130371,1360.5877568721771
D4:22:CD:00:05:5E,9.826473236083984,-33.03853988647461,164.08201599121094,-11.367185592651367,-2.799647331237793,-9.546770095825195,1360.5877568721771
D4:22:CD:00:05:5D,159.68115234375,-71.0495834350586,-39.41193771362305,-0.37542444467544556,-0.46245163679122925,1.6059274673461914,1360.6176128387451
D4:22:CD:00:05:6B,-67.7456283569336,52.66849136352539,-136.53958129882812,-16.493576049804688,-6.199355125427246,7.007270812988281,1360.6176128387451
D4:22:CD:00:49:AA,-133.5395965576172,-74.04947662353516,80.86727905273438,1.4839260578155518,2.5661239624023438,-1.208603858947754,1360.6176128387451
D4:22:CD:00:05:6E,-64.10212707519531,-62.218685150146484,-99.35150909423828,2.6995649337768555,-8.014699935913086,-2.1192173957824707,1360.6176128387451
D4:22:CD:00:05:5E,6.200713634490967,-42.20526123046875,167.9069061279297,-13.598377227783203,-4.1342315673828125,-8.252681732177734,1360.6176128387451
D4:22:CD:00:05:5D,158.81983947753906,-70.20482635498047,-36.18609619140625,2.618654251098633,-0.8625485897064209,3.649454116821289,1360.6471853256226
D4:22:CD:00:05:6B,-53.34668731689453,57.72203826904297,-126.4298324584961,-5.907693862915039,1.9253013134002686,-10.243303298950195,1360.6471853256226
D4:22:CD:00:49:AA,-130.76138305664062,-75.49974060058594,79.73656463623047,1.8272063732147217,1.374053955078125,-0.06775665283203125,1360.6471853256226
D4:22:CD:00:05:6E,-59.4063835144043,-66.98572540283203,-100.31806182861328,4.222227096557617,-7.005382537841797,-0.8223056793212891,1360.6471853256226
D4:22:CD:00:05:5E,0.34944331645965576,-51.809993743896484,171.1887664794922,-10.015317916870117,-3.215245246887207,-3.701265811920166,1360.6471853256226
D4:22:CD:00:05:5D,156.387451171875,-69.69540405273438,-33.693443298339844,3.0414319038391113,-2.529327869415283,3.7327346801757812,1360.677193403244
D4:22:CD:00:05:6B,-32.595497131347656,61.479549407958984,-106.47281646728516,2.7303009033203125,3.337430953979492,-18.404727935791016,1360.677193403244
D4:22:CD:00:49:AA,-133.2509765625,-76.58789825439453,81.10940551757812,1.3236896991729736,0.19692718982696533,1.8978757858276367,1360.677193403244
D4:22:CD:00:05:6E,-58.389991760253906,-69.42245483398438,-99.28683471679688,3.6665587425231934,-5.804004669189453,-1.6767635345458984,1360.677193403244
D4:22:CD:00:05:5E,-5.453940391540527,-59.9675178527832,174.30020141601562,-12.34769058227539,-2.1827034950256348,-5.473191261291504,1360.677193403244
D4:22:CD:00:05:5D,152.69161987304688,-69.01168823242188,-30.333026885986328,0.5161632299423218,0.6109268665313721,2.1826696395874023,1360.7376804351807
D4:22:CD:00:05:6B,-16.423465728759766,61.34504318237305,-86.34307098388672,-3.286472797393799,-2.7917652130126953,-11.655689239501953,1360.7376804351807
D4:22:CD:00:49:AA,-138.2578582763672,-77.31300354003906,83.50941467285156,0.27760398387908936,-2.472586154937744,2.649935722351074,1360.7376804351807
D4:22:CD:00:05:6E,-65.19976043701172,-70.17332458496094,-93.39429473876953,5.937869071960449,-4.380155563354492,-0.8621387481689453,1360.7376804351807
D4:22:CD:00:05:5E,-12.05231761932373,-68.18966674804688,176.77330017089844,-13.477773666381836,-6.990918159484863,-0.4430198669433594,1360.7376804351807
D4:22:CD:00:05:5D,147.34552001953125,-68.57601165771484,-26.025283813476562,-2.3147010803222656,1.6167876720428467,-3.1399831771850586,1360.7677993774414
D4:22:CD:00:05:6B,-6.463101387023926,59.049678802490234,-72.77689361572266,-0.6049790382385254,0.3232384920120239,-9.939945220947266,1360.7677993774414
D4:22:CD:00:49:AA,-140.54347229003906,-78.04579162597656,83.22748565673828,-1.6544408798217773,-2.2940611839294434,0.21305465698242188,1360.7677993774414
D4:22:CD:00:05:6E,-76.58039093017578,-69.3322982788086,-86.73910522460938,6.963735580444336,-6.2057600021362305,-1.5621061325073242,1360.7677993774414
D4:22:CD:00:05:5E,-19.90729331970215,-73.11945343017578,-176.13136291503906,18.201946258544922,-9.098182678222656,9.377645492553711,1360.7677993774414
D4:22:CD:00:05:5D,141.330078125,-68.20116424560547,-21.618854522705078,3.1770687103271484,0.492498517036438,2.4513168334960938,1360.7970259189606
D4:22:CD:00:05:6B,-4.3218674659729,56.306251525878906,-64.11219787597656,-3.958772659301758,-1.1612772941589355,-4.154390335083008,1360.7970259189606
D4:22:CD:00:49:AA,-140.07374572753906,-78.86198425292969,79.70601654052734,-0.16730660200119019,-1.2953085899353027,-5.021893501281738,1360.7970259189606
D4:22:CD:00:05:6E,-89.42777252197266,-68.3102035522461,-82.89061737060547,4.138096809387207,-3.02311372756958,-1.6860580444335938,1360.7970259189606
D4:22:CD:00:05:5E,-25.220443725585938,-76.90253448486328,-174.37985229492188,-12.94827651977539,-0.4332802891731262,11.248411178588867,1360.7970259189606
D4:22:CD:00:05:5D,135.5735321044922,-66.9382095336914,-17.24064064025879,3.082853317260742,-3.38409423828125,4.907204627990723,1360.8270516395569
D4:22:CD:00:05:6B,-4.513156890869141,53.27006530761719,-58.71894073486328,-5.362110137939453,0.0005383491516113281,2.295231819152832,1360.8270516395569
D4:22:CD:00:49:AA,-138.93576049804688,-78.28985595703125,76.51546478271484,0.762840986251831,-2.010826587677002,-0.17322063446044922,1360.8270516395569
D4:22:CD:00:05:6E,-98.55171203613281,-67.93889617919922,-82.47969055175781,1.2180819511413574,-2.3651256561279297,4.135663986206055,1360.8270516395569
D4:22:CD:00:05:5E,-17.09101676940918,-78.46826171875,178.46885681152344,-5.482732772827148,0.5783470869064331,-0.9016332626342773,1360.8270516395569
D4:22:CD:00:05:5D,126.9057388305664,-66.87881469726562,-13.282806396484375,8.008459091186523,-0.5429040193557739,6.8209075927734375,1360.857059955597
D4:22:CD:00:05:6B,-6.584620475769043,49.32859420776367,-54.14067840576172,-2.7584228515625,1.920506238937378,7.441965103149414,1360.857059955597
D4:22:CD:00:49:AA,-143.1967315673828,-76.20098876953125,77.40143585205078,5.063880920410156,1.4212000370025635,3.3015546798706055,1360.857059955597
D4:22:CD:00:05:6E,-103.43241882324219,-68.76889038085938,-84.19100952148438,-1.3085107803344727,-3.5774683952331543,5.8654937744140625,1360.857059955597
D4:22:CD:00:05:5E,-8.640730857849121,-79.97952270507812,171.29412841796875,-5.623784065246582,-1.9194116592407227,-0.07709217071533203,1360.857059955597
D4:22:CD:00:05:5D,123.7164306640625,-65.64006042480469,-19.003440856933594,6.711434364318848,14.469635009765625,3.8410024642944336,1360.8870606422424
D4:22:CD:00:05:6B,-9.732135772705078,44.1259765625,-48.667198181152344,-2.4080772399902344,5.107285499572754,10.340314865112305,1360.8870606422424
D4:22:CD:00:49:AA,-146.94729614257812,-73.84382629394531,76.61717987060547,8.027872085571289,0.14263686537742615,0.3025684356689453,1360.8870606422424
D4:22:CD:00:05:6E,-105.37503051757812,-70.79491424560547,-85.76793670654297,-1.7032191753387451,1.1448159217834473,3.729839324951172,1360.8870606422424
D4:22:CD:00:05:5E,0.8341320157051086,-80.55191802978516,162.806884765625,-6.949024200439453,0.693960428237915,-0.3800010681152344,1360.8870606422424
D4:22:CD:00:05:5D,133.59983825683594,-61.639522552490234,-33.63984680175781,6.449071884155273,23.44579315185547,4.976840019226074,1360.9176733493805
D4:22:CD:00:05:6B,-15.056600570678711,37.382110595703125,-42.406925201416016,8.873147964477539,19.15692901611328,5.69180965423584,1360.9176733493805
D4:22:CD:00:49:AA,-151.37669372558594,-72.31795501708984,78.84391784667969,1.3082969188690186,3.149897575378418,2.2921199798583984,1360.9176733493805
D4:22:CD:00:05:6E,-100.29696655273438,-71.66980743408203,-88.37723541259766,-4.854253768920898,0.6359366178512573,2.287342071533203,1360.9176733493805
D4:22:CD:00:05:5E,9.565241813659668,-79.89683532714844,154.3199920654297,-5.865025520324707,1.3219776153564453,-0.40340232849121094,1360.9176733493805
D4:22:CD:00:05:5D,144.99388122558594,-54.76868438720703,-50.84244155883789,2.059885025024414,13.28573226928711,3.0854854583740234,1360.947808265686
D4:22:CD:00:05:6B,-28.16928482055664,29.64720916748047,-37.73920440673828,7.715786933898926,11.68429946899414,5.834653854370117,1360.947808265686
D4:22:CD:00:49:AA,-154.90054321289062,-70.83972930908203,81.78997802734375,0.11092008650302887,2.1056771278381348,4.8278961181640625,1360.947808265686
D4:22:CD:00:05:6E,-94.80479431152344,-71.76068115234375,-91.48222351074219,-8.097557067871094,-6.615431785583496,0.7839822769165039,1360.947808265686
D4:22:CD:00:05:5E,15.195961952209473,-78.2755126953125,148.9748992919922,-5.363149642944336,1.644531488418579,-0.9559249877929688,1360.947808265686
D4:22:CD:00:05:5D,151.66934204101562,-45.62569808959961,-65.46559143066406,0.07551245391368866,2.561591148376465,-3.0992650985717773,1360.977819442749
D4:22:CD:00:05:6B,-39.75712203979492,19.468637466430664,-35.54657745361328,4.170177459716797,2.68754243850708,-1.5988826751708984,1360.977819442749
D4:22:CD:00:49:AA,-156.76284790039062,-68.927001953125,84.29882049560547,3.9019083976745605,2.970519542694092,1.813690185546875,1360.977819442749
D4:22:CD:00:05:6E,-94.33858489990234,-71.8311538696289,-92.95939636230469,-2.991821765899658,-2.593562602996826,0.10529327392578125,1360.977819442749
D4:22:CD:00:05:5E,18.622365951538086,-76.18531799316406,145.90660095214844,-4.739204406738281,0.17688888311386108,-1.189427375793457,1360.977819442749
D4:22:CD:00:05:5D,157.26087951660156,-35.81930160522461,-75.48039245605469,-2.4949707984924316,-3.6463022232055664,-10.14375114440918,1361.037089586258
D4:22:CD:00:05:6B,-48.724952697753906,7.000848293304443,-33.63325881958008,4.946603775024414,-3.741694927215576,-1.3780479431152344,1361.037089586258
D4:22:CD:00:49:AA,-157.85122680664062,-67.55559539794922,86.8949203491211,3.9277243614196777,4.3321380615234375,1.7481975555419922,1361.037089586258
D4:22:CD:00:05:6E,-93.72647857666016,-72.20613098144531,-93.42417907714844,0.08215925097465515,-2.7298669815063477,0.008919715881347656,1361.037089586258
D4:22:CD:00:05:5E,20.998321533203125,-74.40634155273438,144.20335388183594,-4.055294990539551,-2.2222185134887695,-1.917405605316162,1361.037089586258
D4:22:CD:00:05:5D,163.4988555908203,-27.87126922607422,-81.60272216796875,-1.7074949741363525,-2.9701790809631348,-12.437854766845703,1361.0674831867218
D4:22:CD:00:05:6B,-54.799034118652344,-5.079761505126953,-31.520933151245117,3.3534274101257324,-9.809444427490234,5.18337345123291,1361.0674831867218
D4:22:CD:00:49:AA,-159.3189697265625,-67.17701721191406,88.64544677734375,1.5549728870391846,2.3687362670898438,0.5446443557739258,1361.0674831867218
D4:22:CD:00:05:6E,-87.84374237060547,-73.57618713378906,-95.98413848876953,0.7878652811050415,-2.393765449523926,-1.677511215209961,1361.0674831867218
D4:22:CD:00:05:5E,22.03453826904297,-73.89183807373047,143.42486572265625,-3.5409369468688965,-3.165276050567627,-1.8951096534729004,1361.0674831867218
D4:22:CD:00:05:5D,168.63394165039062,-23.846694946289062,-86.75503540039062,-3.725113868713379,-3.684807300567627,-10.348819732666016,1361.09752035141
D4:22:CD:00:05:6B,-56.115760803222656,-14.278436660766602,-29.71211814880371,-1.2760345935821533,-5.613984107971191,2.342963218688965,1361.09752035141
D4:22:CD:00:49:AA,-160.96229553222656,-67.97456359863281,89.99738311767578,2.177304267883301,1.4461462497711182,-3.4318466186523438,1361.09752035141
D4:22:CD:00:05:6E,-74.81013488769531,-76.21453857421875,-103.45973205566406,1.1235039234161377,-0.8007196187973022,-4.5283098220825195,1361.09752035141
D4:22:CD:00:05:5E,19.937353134155273,-75.94216918945312,144.57716369628906,-2.9933671951293945,2.870828628540039,-1.5436553955078125,1361.09752035141
D4:22:CD:00:05:5D,168.37484741210938,-24.45172882080078,-91.1090316772461,-5.829033851623535,-9.682453155517578,-12.719247817993164,1361.128101825714
D4:22:CD:00:05:6B,-58.02654266357422,-21.585832595825195,-27.7232723236084,-2.7864274978637695,-1.580608606338501,-9.242795944213867,1361.128101825714
D4:22:CD:00:49:AA,-161.65618896484375,-69.12894439697266,90.66753387451172,2.6934213638305664,0.5368893146514893,-5.804771423339844,1361.128101825714
D4:22:CD:00:05:6E,-48.39577865600586,-79.02496337890625,-123.19340515136719,1.9685494899749756,-0.6813222169876099,-6.79578971862793,1361.128101825714
D4:22:CD:00:05:5E,4.303985595703125,-81.25196838378906,155.3544921875,-2.320216178894043,-1.2276079654693604,-4.509025573730469,1361.128101825714
D4:22:CD:00:05:5D,165.62838745117188,-29.557558059692383,-92.80279541015625,-5.861912727355957,-12.758956909179688,-13.354591369628906,1361.1575152873993
D4:22:CD:00:05:6B,-62.58082962036133,-29.575788497924805,-25.290407180786133,-0.661516547203064,-3.202241897583008,-5.3145904541015625,1361.1575152873993
D4:22:CD:00:49:AA,-162.74246215820312,-70.31890869140625,90.86518096923828,4.389703750610352,1.1780943870544434,-8.497474670410156,1361.1575152873993
D4:22:CD:00:05:6E,-4.475467681884766,-78.32551574707031,-158.74095153808594,0.38664549589157104,-0.8964961767196655,-6.44792366027832,1361.1575152873993
D4:22:CD:00:05:5E,-41.61473846435547,-85.13027954101562,-164.8047332763672,-7.9604949951171875,-5.819543838500977,-4.663583755493164,1361.1575152873993
D4:22:CD:00:05:5D,165.59922790527344,-31.77532196044922,-92.52464294433594,-4.95744514465332,9.595283508300781,46.86229705810547,1361.1895155906677
D4:22:CD:00:05:6B,-61.98382568359375,-38.6805419921875,-25.93463706970215,1.7308216094970703,-1.2645001411437988,-0.6084613800048828,1361.1895155906677
D4:22:CD:00:49:AA,-165.61598205566406,-70.96171569824219,90.9388427734375,5.325884819030762,2.7020978927612305,-6.30191707611084,1361.1895155906677
D4:22:CD:00:05:6E,29.644712448120117,-73.24181365966797,175.42225646972656,-0.8422983884811401,-7.475059509277344,-2.428244113922119,1361.1895155906677
D4:22:CD:00:05:5E,-95.21857452392578,-84.31087493896484,-112.6451416015625,-4.636361122131348,-1.4576659202575684,0.025336265563964844,1361.1895155906677
D4:22:CD:00:05:5D,168.12222290039062,-32.49088668823242,-89.93678283691406,-3.81577730178833,-19.88039779663086,3.8015317916870117,1361.217521429062
D4:22:CD:00:05:6B,-49.63765335083008,-49.977081298828125,-30.81972312927246,7.200800895690918,-5.283600807189941,12.387210845947266,1361.217521429062
D4:22:CD:00:49:AA,-167.04312133789062,-71.0602798461914,88.41303253173828,-0.8297721147537231,-1.9502077102661133,-1.8392601013183594,1361.217521429062
D4:22:CD:00:05:6E,54.3940315246582,-64.447998046875,158.8797149658203,1.3806650638580322,-11.821937561035156,9.457828521728516,1361.217521429062
D4:22:CD:00:05:5E,-123.50292205810547,-79.95002746582031,-87.1368179321289,-5.200429916381836,-0.01262490451335907,-1.4315252304077148,1361.217521429062
D4:22:CD:00:05:5D,172.26417541503906,-30.19754981994629,-86.00117492675781,-9.459192276000977,-19.134288787841797,13.415637969970703,1361.2476851940155
D4:22:CD:00:05:6B,-30.680896759033203,-56.15879440307617,-41.17012405395508,32.55937194824219,-3.1168394088745117,16.428787231445312,1361.2476851940155
D4:22:CD:00:49:AA,-169.72866821289062,-68.9886245727539,88.65921020507812,-6.760069847106934,-4.15023136138916,6.2007598876953125,1361.2476851940155
D4:22:CD:00:05:6E,73.57952117919922,-50.61125946044922,149.5712890625,7.806485176086426,-15.251422882080078,25.736804962158203,1361.2476851940155
D4:22:CD:00:05:5E,-133.87716674804688,-76.43859100341797,-78.7313003540039,-4.010793685913086,1.535184383392334,1.6815948486328125,1361.2476851940155
D4:22:CD:00:05:5D,174.60018920898438,-22.76342010498047,-82.48902130126953,2.4272799491882324,-15.481950759887695,15.351709365844727,1361.2776889801025
D4:22:CD:00:05:6B,-45.78635787963867,-51.98349380493164,-34.835723876953125,18.696125030517578,-5.373512268066406,7.856225967407227,1361.2776889801025
D4:22:CD:00:49:AA,-171.41062927246094,-68.9291763305664,89.22186279296875,2.0862841606140137,-0.40511274337768555,4.598321914672852,1361.2776889801025
D4:22:CD:00:05:6E,82.75437927246094,-33.288978576660156,139.54039001464844,11.227334976196289,-15.983478546142578,24.900760650634766,1361.2776889801025
D4:22:CD:00:05:5E,-138.70724487304688,-75.56942749023438,-74.0459976196289,-5.147871017456055,1.6994476318359375,0.8459596633911133,1361.2776889801025
D4:22:CD:00:05:5D,171.01992797851562,-14.534029960632324,-82.56993865966797,-3.771670341491699,-16.98816680908203,12.874408721923828,1361.3371412754059
D4:22:CD:00:05:6B,-55.911094665527344,-42.7560920715332,-28.23328399658203,4.394566535949707,-12.335092544555664,17.645305633544922,1361.3371412754059
D4:22:CD:00:49:AA,-171.38351440429688,-68.31443786621094,89.1318588256836,2.1198534965515137,4.463228225708008,7.731227874755859,1361.3371412754059
D4:22:CD:00:05:6E,84.28895568847656,-13.559417724609375,127.92769622802734,6.590614318847656,-6.999849319458008,23.579021453857422,1361.3371412754059
D4:22:CD:00:05:5E,-140.08447265625,-76.26959991455078,-72.57035064697266,-7.298890113830566,0.5241047143936157,-0.23222064971923828,1361.3371412754059
D4:22:CD:00:05:5D,166.25106811523438,-7.970107555389404,-84.01172637939453,-3.3518919944763184,-11.283761978149414,2.627549171447754,1361.3672857284546
D4:22:CD:00:05:6B,-52.64067077636719,-35.81410217285156,-27.43826675415039,11.418241500854492,-7.585000991821289,2.240234375,1361.3672857284546
D4:22:CD:00:49:AA,-174.3426055908203,-68.6435775756836,91.88076782226562,4.018763542175293,3.66664457321167,10.907760620117188,1361.3672857284546
D4:22:CD:00:05:6E,75.06167602539062,6.154518127441406,116.42424774169922,-4.7132062911987305,5.59774112701416,7.035039901733398,1361.3672857284546
D4:22:CD:00:05:5E,-134.88104248046875,-78.03985595703125,-78.50055694580078,-8.069086074829102,0.1750459372997284,-0.626948356628418,1361.3672857284546
D4:22:CD:00:05:5D,165.03981018066406,-5.63734769821167,-85.399169921875,-5.080982208251953,-3.3154072761535645,-6.618766784667969,1361.3992989063263
D4:22:CD:00:05:6B,-59.82678985595703,-31.687416076660156,-28.383493423461914,-1.6852974891662598,-3.0688509941101074,-0.1731433868408203,1361.3992989063263
D4:22:CD:00:49:AA,-179.57315063476562,-69.17346954345703,95.91741943359375,6.453512191772461,4.781250953674316,9.491798400878906,1361.3992989063263
D4:22:CD:00:05:6E,59.85077667236328,20.163394927978516,107.36453247070312,-1.384434700012207,1.200406551361084,-3.2239394187927246,1361.3992989063263
D4:22:CD:00:05:5E,-117.49273681640625,-80.22949981689453,-98.05091857910156,-9.057239532470703,0.3185819387435913,0.5665626525878906,1361.3992989063263
D4:22:CD:00:05:5D,164.97509765625,-9.23617935180664,-86.03536224365234,-5.728233337402344,-0.43844074010849,-12.074487686157227,1361.426821231842
D4:22:CD:00:05:6B,-66.6142578125,-33.15309524536133,-31.009859085083008,-6.7867631912231445,3.3531622886657715,3.9325742721557617,1361.426821231842
D4:22:CD:00:49:AA,173.76026916503906,-69.2750473022461,100.45191955566406,6.172082901000977,3.474672794342041,9.886831283569336,1361.426821231842
D4:22:CD:00:05:6E,42.177799224853516,27.813016891479492,101.8627700805664,-6.728758811950684,-4.849983215332031,-4.040509223937988,1361.426821231842
D4:22:CD:00:05:5E,-66.85751342773438,-79.90361785888672,-151.62498474121094,-5.5435791015625,-5.283869743347168,11.021339416503906,1361.426821231842
D4:22:CD:00:05:5D,163.045166015625,-18.63104248046875,-85.80437469482422,-3.305333137512207,-1.8478052616119385,-17.517459869384766,1361.4578201770782
D4:22:CD:00:05:6B,-68.34211730957031,-37.71949768066406,-34.18606185913086,-1.8328251838684082,3.518655776977539,-1.8856453895568848,1361.4578201770782
D4:22:CD:00:49:AA,165.55377197265625,-69.75592041015625,106.0041732788086,1.857748031616211,2.1020665168762207,3.16446590423584,1361.4578201770782
D4:22:CD:00:05:6E,22.294912338256836,31.386232376098633,99.24161529541016,-1.2104275226593018,-5.8876800537109375,-6.225272178649902,1361.4578201770782
D4:22:CD:00:05:5E,-30.454837799072266,-75.24799346923828,175.69149780273438,-16.810592651367188,-5.756340026855469,0.1306610107421875,1361.4578201770782
D4:22:CD:00:05:5D,158.99713134765625,-32.04021453857422,-84.82154083251953,-0.8025128841400146,-5.061230659484863,-17.35712432861328,1361.4869170188904
D4:22:CD:00:05:6B,-69.26759338378906,-43.669925689697266,-37.312347412109375,1.2005031108856201,3.0334320068359375,-4.527685165405273,1361.4869170188904
D4:22:CD:00:49:AA,158.05810546875,-69.40811157226562,111.34906768798828,-0.8883715867996216,0.9057930707931519,-9.547639846801758,1361.4869170188904
D4:22:CD:00:05:6E,9.843151092529297,34.192604064941406,99.97779846191406,11.666709899902344,-1.7869970798492432,-5.217233657836914,1361.4869170188904
D4:22:CD:00:05:5E,-18.960987091064453,-76.86022186279297,167.9603271484375,-19.96331787109375,-7.412472724914551,-14.487932205200195,1361.4869170188904
D4:22:CD:00:05:5D,156.58172607421875,-47.5185432434082,-82.3598403930664,1.3758103847503662,-4.623675346374512,-10.106302261352539,1361.516892671585
D4:22:CD:00:05:6B,-72.11473846435547,-49.00910568237305,-40.625057220458984,3.030935287475586,2.169527053833008,-6.1024627685546875,1361.516892671585
D4:22:CD:00:49:AA,156.29820251464844,-67.57685089111328,111.95709991455078,-4.16778564453125,-2.5759572982788086,-12.423973083496094,1361.516892671585
D4:22:CD:00:05:6E,13.312793731689453,36.561012268066406,103.88847351074219,2.7475619316101074,-1.8684077262878418,-7.209397315979004,1361.516892671585
D4:22:CD:00:05:5E,-10.659997940063477,-79.28462982177734,159.02908325195312,3.3635473251342773,-5.42616081237793,-12.541719436645508,1361.516892671585
D4:22:CD:00:05:5D,154.48019409179688,-64.86734771728516,-78.23042297363281,1.7311837673187256,-3.4524002075195312,2.1537370681762695,1361.5473103523254
D4:22:CD:00:05:6B,-77.34931945800781,-52.6663703918457,-43.91245651245117,0.3089388608932495,3.242166042327881,-3.8432388305664062,1361.5473103523254
D4:22:CD:00:49:AA,157.97808837890625,-67.36259460449219,111.80924224853516,-3.045320987701416,-1.34708571434021,-4.754412651062012,1361.5473103523254
D4:22:CD:00:05:6E,25.12360191345215,37.64033508300781,110.96258544921875,-6.019043922424316,0.8283542394638062,-8.315530776977539,1361.5473103523254
D4:22:CD:00:05:5E,3.057485580444336,-79.5424575805664,142.87733459472656,6.835588455200195,7.610769271850586,-0.5340375900268555,1361.5473103523254
D4:22:CD:00:05:5D,137.6500701904297,-83.4448013305664,-59.22901916503906,1.512962818145752,1.6458220481872559,16.009380340576172,1361.5773305892944
D4:22:CD:00:05:6B,-79.20734405517578,-55.16292953491211,-47.00709915161133,-0.09806346893310547,5.610657691955566,-3.1559834480285645,1361.5773305892944
D4:22:CD:00:49:AA,157.51316833496094,-69.5897445678711,113.49332427978516,2.1256814002990723,3.9832816123962402,-11.70584487915039,1361.5773305892944
D4:22:CD:00:05:6E,36.23384094238281,36.5748176574707,122.13154602050781,-10.618291854858398,4.309683799743652,-11.174453735351562,1361.5773305892944
D4:22:CD:00:05:5E,18.82302474975586,-75.76473999023438,136.9040985107422,5.94216251373291,10.596885681152344,-2.829958438873291,1361.5773305892944
D4:22:CD:00:05:5D,-1.503381371498108,-76.10820770263672,81.5304946899414,-3.9319705963134766,22.21710205078125,22.572052001953125,1361.637154340744
D4:22:CD:00:05:6B,-77.77210235595703,-56.19557189941406,-50.382652282714844,1.7511248588562012,4.619139671325684,-4.773089408874512,1361.637154340744
D4:22:CD:00:49:AA,156.71148681640625,-70.72000122070312,113.6427001953125,3.362952709197998,1.6410796642303467,-12.234355926513672,1361.637154340744
D4:22:CD:00:05:6E,43.43756103515625,32.645652770996094,135.9752655029297,-15.398365020751953,8.001052856445312,-15.983827590942383,1361.637154340744
D4:22:CD:00:05:5E,17.554763793945312,-77.37044525146484,136.94544982910156,2.839634418487549,-0.23806488513946533,2.20369815826416,1361.637154340744
D4:22:CD:00:05:5D,-10.239386558532715,-66.02660369873047,82.79264831542969,-1.678598403930664,26.809349060058594,-40.367828369140625,1361.667550086975
D4:22:CD:00:05:6B,-76.43399047851562,-56.23506546020508,-53.689788818359375,0.62031090259552,3.4762353897094727,-4.5513458251953125,1361.667550086975
D4:22:CD:00:49:AA,156.5139923095703,-70.24467468261719,112.68899536132812,0.17183732986450195,-3.6040306091308594,-3.5453991889953613,1361.667550086975
D4:22:CD:00:05:6E,46.83734893798828,28.583364486694336,146.46653747558594,-16.687606811523438,6.421290397644043,-14.709592819213867,1361.667550086975
D4:22:CD:00:05:5E,-5.133920669555664,-83.13804626464844,148.94020080566406,-2.2826218605041504,-0.08545860648155212,3.0691614151000977,1361.667550086975
D4:22:CD:00:05:5D,-14.13737964630127,-66.94087982177734,79.3543701171875,13.37606430053711,-1.326023817062378,1.6543397903442383,1361.6977708339691
D4:22:CD:00:05:6B,-75.07889556884766,-56.43700408935547,-56.24745559692383,-0.9892885684967041,4.312786102294922,-3.116814613342285,1361.6977708339691
D4:22:CD:00:49:AA,162.6420440673828,-69.1062240600586,108.20967102050781,-1.4678268432617188,-3.6489272117614746,4.86370849609375,1361.6977708339691
D4:22:CD:00:05:6E,53.886573791503906,31.129066467285156,145.23019409179688,11.349380493164062,-1.331726312637329,-12.896871566772461,1361.6977708339691
D4:22:CD:00:05:5E,-42.86980056762695,-85.5370864868164,-178.07627868652344,-9.346933364868164,-6.588608741760254,1.6458797454833984,1361.6977708339691
D4:22:CD:00:05:5D,-7.3956074714660645,-70.93585205078125,73.17169189453125,2.327077865600586,12.620342254638672,-3.2253541946411133,1361.7273664474487
D4:22:CD:00:05:6B,-73.09956359863281,-57.12825012207031,-57.21967697143555,-0.8862477540969849,4.287040710449219,-1.609461784362793,1361.7273664474487
D4:22:CD:00:49:AA,169.78469848632812,-69.61698913574219,103.6846694946289,4.225794792175293,3.60072660446167,5.9613752365112305,1361.7273664474487
D4:22:CD:00:05:6E,64.87049102783203,37.137123107910156,137.37632751464844,-7.383195877075195,-3.8113040924072266,-3.847978115081787,1361.7273664474487
D4:22:CD:00:05:5E,-50.32857894897461,-85.23902130126953,-168.44931030273438,-3.88787841796875,2.915701389312744,-0.6951169967651367,1361.7273664474487
D4:22:CD:00:05:5D,8.43637752532959,-76.997314453125,63.562225341796875,11.306760787963867,2.504793167114258,2.2480106353759766,1361.7574665546417
D4:22:CD:00:05:6B,-73.75706481933594,-58.271240234375,-55.33628845214844,0.807456374168396,3.055271625518799,1.7249469757080078,1361.7574665546417
D4:22:CD:00:49:AA,176.46546936035156,-70.2651138305664,97.89561462402344,4.605020523071289,4.2617292404174805,0.9979104995727539,1361.7574665546417
D4:22:CD:00:05:6E,68.56338500976562,45.1973762512207,124.05722045898438,-8.749166488647461,6.334894180297852,-4.229212760925293,1361.7574665546417
D4:22:CD:00:05:5E,-65.99716186523438,-84.18331146240234,-152.69876098632812,-6.736440658569336,-2.0482144355773926,3.093785285949707,1361.7574665546417
D4:22:CD:00:05:5D,42.8205451965332,-82.87297058105469,39.77767562866211,2.641897201538086,14.077661514282227,-0.4333515167236328,1361.787537097931
D4:22:CD:00:05:6B,-76.86931610107422,-59.6807746887207,-50.53986740112305,0.27312934398651123,2.787473201751709,2.658127784729004,1361.787537097931
D4:22:CD:00:49:AA,-178.88998413085938,-69.66204071044922,93.8624496459961,1.8438818454742432,1.337080717086792,3.041858673095703,1361.787537097931
D4:22:CD:00:05:6E,62.74017333984375,52.71733474731445,99.27935791015625,-15.343351364135742,7.506264686584473,-7.663756370544434,1361.787537097931
D4:22:CD:00:05:5E,-62.991825103759766,-82.52656555175781,-153.50404357910156,-3.544365882873535,-1.7669806480407715,2.9545488357543945,1361.787537097931
D4:22:CD:00:05:5D,89.78311920166016,-83.70458984375,-1.7917746305465698,-8.557279586791992,-7.644756317138672,4.638217926025391,1361.8172726631165
D4:22:CD:00:05:6B,-79.92890167236328,-61.31908416748047,-43.87885665893555,2.6012158393859863,1.1495580673217773,2.593839645385742,1361.8172726631165
D4:22:CD:00:49:AA,-177.90017700195312,-69.3079605102539,93.78717803955078,1.910292148590088,1.2957468032836914,3.515721321105957,1361.8172726631165
D4:22:CD:00:05:6E,47.66680908203125,53.254920959472656,69.7482681274414,0.3566129803657532,3.606067180633545,-6.675609588623047,1361.8172726631165
D4:22:CD:00:05:5E,-65.05377960205078,-80.52269744873047,-147.7523956298828,-3.460968494415283,-3.086543083190918,2.8589534759521484,1361.8172726631165
D4:22:CD:00:05:5D,108.65023040771484,-85.04074096679688,-20.566680908203125,15.526998519897461,-3.382603168487549,5.32215690612793,1361.847600221634
D4:22:CD:00:05:6B,-84.44143676757812,-62.80818176269531,-36.69654083251953,1.9072470664978027,3.136131763458252,3.23330020904541,1361.847600221634
D4:22:CD:00:49:AA,-176.06382751464844,-68.10944366455078,93.33175659179688,-0.9286221265792847,-0.3795289993286133,-0.024125099182128906,1361.847600221634
D4:22:CD:00:05:6E,39.93697738647461,48.53453063964844,47.489097595214844,2.1824727058410645,-5.521222114562988,-8.011594772338867,1361.847600221634
D4:22:CD:00:05:5E,-72.20476531982422,-77.88520812988281,-135.27667236328125,-2.6737852096557617,-8.071542739868164,4.431051254272461,1361.847600221634
D4:22:CD:00:05:5D,141.80319213867188,-84.08274841308594,-45.00398254394531,-5.236659049987793,5.325594902038574,0.7325143814086914,1361.8771073818207
D4:22:CD:00:05:6B,-87.93962860107422,-63.9577751159668,-29.481361389160156,-0.19234353303909302,1.461360216140747,3.1145734786987305,1361.8771073818207
D4:22:CD:00:49:AA,-174.5192413330078,-66.33109283447266,94.97897338867188,-0.8433985710144043,-2.3218278884887695,-0.8080997467041016,1361.8771073818207
D4:22:CD:00:05:6E,41.03636169433594,41.01991653442383,32.72999954223633,2.2027111053466797,-10.997665405273438,-9.639837265014648,1361.8771073818207
D4:22:CD:00:05:5E,-77.28630828857422,-75.40393829345703,-124.23080444335938,-18.791786193847656,-6.375541687011719,-5.041140556335449,1361.8771073818207
D4:22:CD:00:05:5D,158.7137451171875,-81.76546478271484,-55.87257766723633,-6.656338691711426,-5.885566711425781,5.315084457397461,1361.9376592636108
D4:22:CD:00:05:6B,-87.89912414550781,-63.559146881103516,-24.282682418823242,-0.625269889831543,-0.8655993938446045,1.5197315216064453,1361.9376592636108
D4:22:CD:00:49:AA,-176.14776611328125,-64.86112213134766,100.00214385986328,-3.1624979972839355,-0.09397535026073456,-1.325861930847168,1361.9376592636108
D4:22:CD:00:05:6E,55.116031646728516,33.61185836791992,25.297996520996094,5.974161148071289,-21.436325073242188,-17.473281860351562,1361.9376592636108
D4:22:CD:00:05:5E,-82.20317840576172,-74.70482635498047,-109.7767333984375,-21.46166229248047,4.1996259689331055,-6.338981628417969,1361.9376592636108
D4:22:CD:00:05:5D,170.4210205078125,-79.26212310791016,-64.84635162353516,-0.8388177156448364,-0.2124052345752716,0.08454608917236328,1361.9676592350006
D4:22:CD:00:05:6B,-84.40497589111328,-62.76094055175781,-22.21566390991211,3.3280744552612305,-4.057458877563477,-3.72005558013916,1361.9676592350006
D4:22:CD:00:49:AA,-178.21224975585938,-64.39866638183594,105.07447814941406,-4.627681732177734,2.3215808868408203,1.2722272872924805,1361.9676592350006
D4:22:CD:00:05:6E,82.76036834716797,26.009906768798828,25.841320037841797,-1.1335103511810303,4.679766654968262,-13.39498519897461,1361.9676592350006
D4:22:CD:00:05:5E,-92.03840637207031,-73.59284210205078,-88.88236236572266,-18.273521423339844,-1.7480816841125488,-12.277555465698242,1361.9676592350006
D4:22:CD:00:05:5D,176.88299560546875,-77.22393035888672,-70.29737854003906,1.3313097953796387,2.2447104454040527,0.9784765243530273,1361.9977464675903
D4:22:CD:00:05:6B,-83.95015716552734,-62.95634078979492,-22.45267677307129,-2.0755066871643066,-1.6425902843475342,2.305267333984375,1361.9977464675903
D4:22:CD:00:49:AA,179.40843200683594,-65.77229309082031,108.0743179321289,-0.2688091993331909,2.278564453125,5.565486907958984,1361.9977464675903
D4:22:CD:00:05:6E,98.5201416015625,16.764877319335938,27.206737518310547,3.6316938400268555,0.13168936967849731,13.244012832641602,1361.9977464675903
D4:22:CD:00:05:5E,-110.62320709228516,-71.56417846679688,-64.03255462646484,-10.253807067871094,-2.6316423416137695,-14.851802825927734,1361.9977464675903
D4:22:CD:00:05:5D,179.68338012695312,-75.51533508300781,-72.67138671875,-0.5296447277069092,0.058846935629844666,0.6199140548706055,1362.0274136066437
D4:22:CD:00:05:6B,-78.39151000976562,-64.3100814819336,-28.0681095123291,-1.9337289333343506,-0.9567291736602783,4.085261344909668,1362.0274136066437
D4:22:CD:00:49:AA,175.86968994140625,-67.6692886352539,111.56063842773438,0.4640861749649048,2.683633804321289,3.398984909057617,1362.0274136066437
D4:22:CD:00:05:6E,106.83628845214844,6.9014129638671875,28.022735595703125,-5.829713821411133,-3.774627685546875,1.6797876358032227,1362.0274136066437
D4:22:CD:00:05:5E,-130.49734497070312,-68.40752410888672,-42.02280044555664,-4.116297721862793,-2.069775104522705,-10.708868026733398,1362.0274136066437
D4:22:CD:00:05:5D,-179.2425079345703,-73.74943542480469,-73.67406463623047,1.5668199062347412,-1.1794941425323486,-0.1994342803955078,1362.0630733966827
D4:22:CD:00:05:6B,-73.07273864746094,-64.07537841796875,-36.355220794677734,-0.7881768941879272,0.8975096940994263,3.099656105041504,1362.0630733966827
D4:22:CD:00:49:AA,170.63961791992188,-70.32266235351562,117.11461639404297,-4.135092735290527,0.34184694290161133,-4.181638717651367,1362.0630733966827
D4:22:CD:00:05:6E,115.3836441040039,-6.9498186111450195,26.76272964477539,-0.2702038884162903,2.19081974029541,8.443855285644531,1362.0630733966827
D4:22:CD:00:05:5E,-148.78408813476562,-64.3559341430664,-26.23508071899414,-2.653606414794922,-2.9273438453674316,-8.823923110961914,1362.0630733966827
D4:22:CD:00:05:5D,-179.57669067382812,-71.56102752685547,-73.33553314208984,2.6057615280151367,0.24887394905090332,-1.0568933486938477,1362.0872147083282
D4:22:CD:00:05:6B,-67.39470672607422,-61.48000717163086,-46.761993408203125,-1.7414684295654297,0.33754563331604004,-1.455657958984375,1362.0872147083282
D4:22:CD:00:49:AA,163.33123779296875,-72.55970764160156,123.79342651367188,-3.028110980987549,-0.38911134004592896,-7.36403751373291,1362.0872147083282
D4:22:CD:00:05:6E,116.54559326171875,-22.415773391723633,21.71257781982422,7.270859718322754,-3.047150135040283,3.595975875854492,1362.0872147083282
D4:22:CD:00:05:5E,-164.72215270996094,-61.04709243774414,-15.556720733642578,0.32738667726516724,-2.234370708465576,-6.362085342407227,1362.0872147083282
D4:22:CD:00:05:5D,178.8399200439453,-68.93124389648438,-71.4345932006836,1.4946105480194092,-0.5867598056793213,-0.6170787811279297,1362.1180777549744
D4:22:CD:00:05:6B,-62.159278869628906,-57.27296829223633,-56.72393035888672,-0.45584046840667725,-1.1323449611663818,-6.52433967590332,1362.1180777549744
D4:22:CD:00:49:AA,155.49642944335938,-73.17778015136719,130.5780792236328,-0.3359900116920471,-0.2047889232635498,-4.52890682220459,1362.1180777549744
D4:22:CD:00:05:6E,114.89651489257812,-40.5335578918457,17.542455673217773,16.725250244140625,-2.593630790710449,12.792634963989258,1362.1180777549744
D4:22:CD:00:05:5E,-175.48081970214844,-61.1837158203125,-7.950404167175293,11.726741790771484,0.7803367376327515,-8.59927749633789,1362.1180777549744
D4:22:CD:00:05:5D,176.2871856689453,-65.42549133300781,-68.13719177246094,1.693676233291626,-0.9737340211868286,-1.2485036849975586,1362.1470830440521
D4:22:CD:00:05:6B,-60.92173767089844,-52.63908386230469,-64.45758056640625,-0.6083072423934937,-1.3278279304504395,-8.812604904174805,1362.1470830440521
D4:22:CD:00:49:AA,147.35897827148438,-73.52166748046875,137.30043029785156,-0.17541095614433289,-0.22159957885742188,-4.333324432373047,1362.1470830440521
D4:22:CD:00:05:6E,111.57269287109375,-57.319732666015625,18.24798011779785,16.609241485595703,2.6164236068725586,23.929149627685547,1362.1470830440521
D4:22:CD:00:05:5E,-177.98562622070312,-66.38817596435547,0.3651103675365448,-14.439111709594727,6.794338226318359,15.154848098754883,1362.1470830440521
D4:22:CD:00:05:5D,174.29750061035156,-61.358341217041016,-65.48143768310547,-0.6956156492233276,-0.39656829833984375,-0.7859897613525391,1362.177078485489
D4:22:CD:00:05:6B,-58.5975456237793,-48.564544677734375,-71.5579833984375,-2.1538729667663574,3.5322561264038086,-3.980754852294922,1362.177078485489
D4:22:CD:00:49:AA,138.45370483398438,-73.7063217163086,144.56048583984375,1.1202540397644043,-0.35478007793426514,-4.359292984008789,1362.177078485489
D4:22:CD:00:05:6E,110.68004608154297,-59.31528854370117,13.42025375366211,-1.5196454524993896,-10.095403671264648,2.850226402282715,1362.177078485489
D4:22:CD:00:05:5E,-173.60414123535156,-69.71577453613281,4.682267189025879,20.435192108154297,4.0784149169921875,-2.3988099098205566,1362.177078485489
D4:22:CD:00:05:5D,173.28125,-57.143577575683594,-63.82990264892578,-2.2139978408813477,-0.7943428754806519,0.1327371597290039,1362.2222726345062
D4:22:CD:00:05:6B,-56.870967864990234,-44.0366325378418,-78.13871765136719,1.5070629119873047,2.1927084922790527,0.10052680969238281,1362.2222726345062
D4:22:CD:00:49:AA,129.38563537597656,-73.34519958496094,151.62615966796875,0.03095654398202896,1.4224658012390137,-1.5433378219604492,1362.2222726345062
D4:22:CD:00:05:6E,105.44379425048828,-53.285072326660156,8.366865158081055,19.339378356933594,-4.756115913391113,0.8134660720825195,1362.2222726345062
D4:22:CD:00:05:5E,-170.364013671875,-71.98332214355469,6.338505744934082,8.85236930847168,0.5548473596572876,17.145488739013672,1362.2222726345062
D4:22:CD:00:05:5D,173.0786590576172,-53.29323959350586,-63.78299331665039,-3.9182748794555664,0.0815562903881073,2.2162561416625977,1362.2676103115082
D4:22:CD:00:05:6B,-59.624813079833984,-36.76818084716797,-84.21250915527344,1.323007583618164,3.6057944297790527,11.261085510253906,1362.2676103115082
D4:22:CD:00:49:AA,126.3737564086914,-72.5281753540039,153.9930419921875,-6.464471817016602,-1.4105415344238281,4.240477561950684,1362.2676103115082
D4:22:CD:00:05:6E,102.15941619873047,-49.38569641113281,10.117176055908203,13.466150283813477,9.225252151489258,5.082612991333008,1362.2676103115082
D4:22:CD:00:05:5E,-165.2071533203125,-69.01805114746094,1.4347063302993774,6.197649955749512,10.628755569458008,19.887752532958984,1362.2676103115082
D4:22:CD:00:05:5D,173.48016357421875,-50.57225799560547,-65.00035858154297,0.6555861234664917,0.9270771741867065,1.5218162536621094,1362.2977402210236
D4:22:CD:00:05:6B,-68.88168334960938,-25.946945190429688,-89.49886322021484,6.069173812866211,15.954864501953125,19.733604431152344,1362.2977402210236
D4:22:CD:00:49:AA,131.49258422851562,-71.78189849853516,151.23365783691406,-3.8116307258605957,-4.992009162902832,8.483325958251953,1362.2977402210236
D4:22:CD:00:05:6E,97.77642059326172,-43.578426361083984,13.197375297546387,19.91199493408203,1.9092233180999756,6.18337345123291,1362.2977402210236
D4:22:CD:00:05:5E,-161.1522216796875,-64.07442474365234,-2.202773094177246,9.932332992553711,-3.7735047340393066,15.214996337890625,1362.2977402210236
D4:22:CD:00:05:5D,174.25906372070312,-49.239418029785156,-66.30657196044922,0.4084504246711731,1.6687791347503662,2.066995620727539,1362.32750248909
D4:22:CD:00:05:6B,-73.50527954101562,-10.67791748046875,-93.29347229003906,24.408493041992188,22.920448303222656,36.591346740722656,1362.32750248909
D4:22:CD:00:49:AA,137.0233154296875,-71.33164978027344,148.40382385253906,2.6330113410949707,-1.256592035293579,7.833837509155273,1362.32750248909
D4:22:CD:00:05:6E,101.48252868652344,-36.40806579589844,21.32933235168457,10.461156845092773,7.95084285736084,11.478935241699219,1362.32750248909
D4:22:CD:00:05:5E,-162.38595581054688,-59.404930114746094,-3.5155277252197266,12.671365737915039,-5.253436088562012,7.7880401611328125,1362.32750248909
D4:22:CD:00:05:5D,174.95526123046875,-49.48894119262695,-66.89125061035156,0.06442146003246307,0.9193766117095947,1.9927444458007812,1362.3575065135956
D4:22:CD:00:05:6B,-66.92808532714844,10.665932655334473,-94.33949279785156,17.002788543701172,-0.6458654403686523,25.948104858398438,1362.3575065135956
D4:22:CD:00:49:AA,141.29705810546875,-72.06968688964844,145.67337036132812,0.30691856145858765,-0.17903029918670654,10.303142547607422,1362.3575065135956
D4:22:CD:00:05:6E,98.88438415527344,-33.074371337890625,32.03953170776367,6.02076530456543,3.478522300720215,9.14358901977539,1362.3575065135956
D4:22:CD:00:05:5E,-163.22781372070312,-59.605079650878906,-3.4976987838745117,7.017803192138672,2.921633720397949,4.126187324523926,1362.3575065135956
D4:22:CD:00:05:5D,175.56838989257812,-50.91435241699219,-67.00349426269531,0.47681695222854614,1.1335031986236572,1.8989715576171875,1362.387307882309
D4:22:CD:00:05:6B,-57.01157760620117,30.20378303527832,-90.8932876586914,1.8029513359069824,-5.915497779846191,13.309476852416992,1362.387307882309
D4:22:CD:00:49:AA,144.5987548828125,-73.24040985107422,144.09835815429688,-7.135260581970215,-0.34687554836273193,8.33812141418457,1362.387307882309
D4:22:CD:00:05:6E,99.88690948486328,-33.49938201904297,44.24497604370117,-0.38356858491897583,1.4988839626312256,7.363513946533203,1362.387307882309
D4:22:CD:00:05:5E,-164.5753173828125,-65.55455780029297,-2.7684571743011475,2.6805410385131836,2.7934165000915527,-0.19209003448486328,1362.387307882309
