Device,EulerX,EulerY,EulerZ,FreeAccX,FreeAccY,FreeAccZ,Timestamp
D4:22:CD:00:05:5D,178.88978576660156,-66.07356262207031,-85.65287017822266,-1.036121129989624,0.6512999534606934,0.8570499420166016,2290.924866437912
D4:22:CD:00:05:6B,-83.91018676757812,-44.43940353393555,-94.51097106933594,11.60849380493164,12.60600471496582,18.31527328491211,2290.924866437912
D4:22:CD:00:49:AA,134.86410522460938,-78.27151489257812,154.0231475830078,1.8589468002319336,-0.04375232756137848,1.7156496047973633,2290.924866437912
D4:22:CD:00:05:6E,78.79869079589844,-20.183746337890625,18.253353118896484,10.147506713867188,9.125005722045898,-4.1258745193481445,2290.924866437912
D4:22:CD:00:05:5E,-159.13218688964844,-62.98090744018555,66.66106414794922,-0.9662433862686157,2.7323246002197266,7.845335006713867,2290.924866437912
D4:22:CD:00:05:5D,179.92503356933594,-67.36373138427734,-87.83296966552734,-0.692615270614624,0.15418368577957153,0.5843477249145508,2290.928792953491
D4:22:CD:00:05:6B,-77.62676239013672,-28.338890075683594,-94.08647155761719,7.629386901855469,6.035116195678711,18.91159439086914,2290.928792953491
D4:22:CD:00:49:AA,137.96485900878906,-77.89219665527344,150.08738708496094,2.7658300399780273,1.868453025817871,2.123356819152832,2290.928792953491
D4:22:CD:00:05:6E,82.89996337890625,-11.977783203125,27.444454193115234,1.1749958992004395,9.322967529296875,-5.001742362976074,2290.928792953491
D4:22:CD:00:05:5E,-156.36083984375,-59.58130645751953,62.18933868408203,-2.3055481910705566,1.5328106880187988,3.4850616455078125,2290.928792953491
D4:22:CD:00:05:5E,-151.57505798339844,-57.37060546875,55.6041259765625,-2.0233845710754395,-0.21148839592933655,-1.293665885925293,2290.9317920207977
D4:22:CD:00:05:5D,-177.40652465820312,-70.53628540039062,-118.8382568359375,1.4765472412109375,-0.6188563108444214,-0.081298828125,2290.9713332653046
D4:22:CD:00:05:6B,-61.389434814453125,-59.20782470703125,-75.50016021728516,-2.2058496475219727,-2.2354283332824707,2.3797378540039062,2290.9713332653046
D4:22:CD:00:49:AA,109.44197845458984,-71.45272827148438,-175.4879608154297,-1.657193899154663,0.8760440349578857,0.5913457870483398,2290.9713332653046
D4:22:CD:00:05:6E,109.75444793701172,-56.00194549560547,29.47026252746582,2.606769561767578,5.310369491577148,11.696586608886719,2290.9713332653046
D4:22:CD:00:05:5D,-175.9674835205078,-67.40390014648438,-119.12284088134766,-0.2654082179069519,0.3031255602836609,-0.06718730926513672,2291.0063331127167
D4:22:CD:00:05:6B,-68.22801208496094,-56.33686065673828,-70.635498046875,-2.3459973335266113,-2.4090828895568848,4.0477705001831055,2291.0063331127167
D4:22:CD:00:49:AA,108.12342071533203,-74.61908721923828,-174.46392822265625,-4.43508243560791,-3.1646552085876465,4.304461479187012,2291.0063331127167
D4:22:CD:00:05:6E,120.64891052246094,-57.08790588378906,25.859342575073242,-3.9474353790283203,3.6697144508361816,6.657295227050781,2291.0063331127167
D4:22:CD:00:05:5E,150.14926147460938,-66.83769226074219,-18.797531127929688,9.33473014831543,4.287992477416992,5.209420204162598,2291.0063331127167
D4:22:CD:00:05:5D,-176.63414001464844,-65.97698211669922,-117.46527862548828,-0.2597191333770752,1.0807878971099854,0.7984409332275391,2291.0615377426147
D4:22:CD:00:05:6B,-80.75577545166016,-51.191986083984375,-64.103271484375,-1.6411898136138916,-3.8107895851135254,8.456958770751953,2291.0615377426147
D4:22:CD:00:49:AA,129.06613159179688,-78.97205352783203,164.62051391601562,0.23505157232284546,-0.9564530849456787,2.3603830337524414,2291.0615377426147
D4:22:CD:00:05:6E,124.66559600830078,-54.65869140625,26.790935516357422,-2.875938892364502,5.656680107116699,-3.1816372871398926,2291.0615377426147
D4:22:CD:00:05:5E,179.68960571289062,-71.9205551147461,-44.89137268066406,5.930988311767578,4.329118728637695,6.28875732421875,2291.0615377426147
D4:22:CD:00:05:5D,-176.04275512695312,-65.21746063232422,-116.85308074951172,1.399937629699707,-0.15364950895309448,0.5193233489990234,2291.091535806656
D4:22:CD:00:05:6B,-89.25177001953125,-44.539615631103516,-60.97237014770508,-1.331134557723999,2.1899423599243164,13.455484390258789,2291.091535806656
D4:22:CD:00:49:AA,144.2804718017578,-79.29031372070312,149.05825805664062,1.1103649139404297,1.4259405136108398,4.138378143310547,2291.091535806656
D4:22:CD:00:05:6E,128.8652801513672,-56.884498596191406,29.38419532775879,-4.401060104370117,3.3269805908203125,-7.441985130310059,2291.091535806656
D4:22:CD:00:05:5E,-134.34432983398438,-67.50214385986328,-88.63704681396484,0.3154422640800476,2.119138717651367,1.3531723022460938,2291.091535806656
D4:22:CD:00:05:5D,-173.28297424316406,-65.13250732421875,-116.82666015625,0.1018608808517456,0.6488549709320068,0.7102594375610352,2291.1205377578735
D4:22:CD:00:05:6B,-90.99468994140625,-33.406620025634766,-59.17481994628906,1.8643343448638916,7.251811981201172,15.576372146606445,2291.1205377578735
D4:22:CD:00:49:AA,148.48483276367188,-79.83738708496094,144.53216552734375,-3.2939701080322266,0.658737301826477,4.19757080078125,2291.1205377578735
D4:22:CD:00:05:6E,132.8146209716797,-63.559234619140625,31.67399787902832,-6.504397392272949,-0.654799222946167,-7.911581039428711,2291.1205377578735
D4:22:CD:00:05:5E,-122.3784408569336,-61.479400634765625,-101.89248657226562,0.6842032670974731,1.4212512969970703,-3.725609302520752,2291.1205377578735
D4:22:CD:00:05:5D,-171.533447265625,-65.5894775390625,-116.5135498046875,0.14505678415298462,0.7017693519592285,0.9592475891113281,2291.1505444049835
D4:22:CD:00:05:6B,-86.79874420166016,-16.98289680480957,-56.727821350097656,8.553060531616211,5.871116638183594,15.646432876586914,2291.1505444049835
D4:22:CD:00:49:AA,152.1971893310547,-81.41212463378906,140.97459411621094,-3.1516075134277344,0.5619415044784546,1.2024164199829102,2291.1505444049835
D4:22:CD:00:05:6E,134.20843505859375,-73.06478118896484,32.57213592529297,-4.560182571411133,-1.609973669052124,-9.189815521240234,2291.1505444049835
D4:22:CD:00:05:5E,-114.40668487548828,-57.608924865722656,-112.15750885009766,1.020226240158081,1.1523034572601318,-6.431243896484375,2291.1505444049835
D4:22:CD:00:05:5D,-170.26394653320312,-66.82818603515625,-116.44474029541016,-0.23604688048362732,1.1749293804168701,1.0092525482177734,2291.1807889938354
D4:22:CD:00:05:6B,-72.39566802978516,1.3468067646026611,-52.66194152832031,16.936111450195312,1.7304091453552246,17.85599136352539,2291.1807889938354
D4:22:CD:00:49:AA,158.16778564453125,-83.22254180908203,134.8627471923828,-1.2162692546844482,0.39735686779022217,-0.9293174743652344,2291.1807889938354
D4:22:CD:00:05:6E,137.43658447265625,-84.39388275146484,32.153160095214844,-3.35976505279541,-2.896846294403076,-7.679780006408691,2291.1807889938354
D4:22:CD:00:05:5E,-105.83527374267578,-55.24042892456055,-123.2640151977539,0.19303104281425476,-0.708412766456604,-8.068012237548828,2291.1807889938354
D4:22:CD:00:05:5D,-168.97283935546875,-68.84905242919922,-117.2405014038086,-2.0388031005859375,1.1089694499969482,0.7367076873779297,2291.210788011551
D4:22:CD:00:05:6B,-46.53432846069336,17.44882583618164,-46.228233337402344,10.970325469970703,-11.945083618164062,10.07147216796875,2291.210788011551
D4:22:CD:00:49:AA,165.14195251464844,-84.8984603881836,127.42819213867188,-0.5046508312225342,-0.3875153660774231,-2.5510306358337402,2291.210788011551
D4:22:CD:00:05:6E,-49.00397491455078,-84.45285034179688,-138.5409393310547,-6.7412109375,-10.15524673461914,-8.15963363647461,2291.210788011551
D4:22:CD:00:05:5E,-93.6385498046875,-54.278472900390625,-136.73382568359375,-1.44073486328125,-2.2026920318603516,-7.872568130493164,2291.210788011551
D4:22:CD:00:05:5D,-167.57359313964844,-71.30740356445312,-119.48944854736328,-1.566321849822998,0.269534707069397,0.21449947357177734,2291.2407960891724
D4:22:CD:00:05:6B,-20.482221603393555,28.5314884185791,-37.48963928222656,0.9048280715942383,-16.198226928710938,0.7663812637329102,2291.2407960891724
D4:22:CD:00:49:AA,173.76731872558594,-86.1941909790039,118.13098907470703,-1.0495667457580566,0.06953945755958557,-3.7100510597229004,2291.2407960891724
D4:22:CD:00:05:6E,-47.80158996582031,-74.8111572265625,-137.05563354492188,-1.703216552734375,-4.977103233337402,-6.895598411560059,2291.2407960891724
D4:22:CD:00:05:5E,-77.65194702148438,-53.83143997192383,-153.1249237060547,-8.44270133972168,1.6960079669952393,-9.335334777832031,2291.2407960891724
D4:22:CD:00:05:5D,-166.32920837402344,-73.82027435302734,-122.59848022460938,0.7059712409973145,-1.0634779930114746,-0.35660743713378906,2291.2764763832092
D4:22:CD:00:05:6B,1.9331809282302856,35.862300872802734,-28.992706298828125,-6.205439567565918,-18.17383575439453,-7.612605094909668,2291.2764763832092
D4:22:CD:00:49:AA,-171.62306213378906,-86.71472930908203,103.88082122802734,-3.0174455642700195,0.35964351892471313,-3.23885440826416,2291.2764763832092
D4:22:CD:00:05:6E,-39.0827751159668,-67.20684051513672,-134.26974487304688,-5.488872528076172,-11.605764389038086,-7.2202301025390625,2291.2764763832092
D4:22:CD:00:05:5E,-69.57176971435547,-54.08904266357422,-167.56509399414062,-11.19222640991211,2.05600643157959,-8.10940933227539,2291.2764763832092
D4:22:CD:00:05:5D,-165.60635375976562,-75.98181915283203,-125.49800872802734,0.3679763078689575,-1.984041690826416,-0.9276790618896484,2291.3065407276154
D4:22:CD:00:05:6B,17.94416618347168,40.994049072265625,-20.583234786987305,-7.267786026000977,-10.66767692565918,-13.876964569091797,2291.3065407276154
D4:22:CD:00:49:AA,-154.2470703125,-86.60315704345703,88.01719665527344,-2.680391788482666,-0.4637397527694702,-2.1545019149780273,2291.3065407276154
D4:22:CD:00:05:6E,-34.90477752685547,-62.0217170715332,-129.10574340820312,-1.8264353275299072,-15.865211486816406,-11.320125579833984,2291.3065407276154
D4:22:CD:00:05:5E,-68.64427947998047,-55.219425201416016,-179.24530029296875,-14.904460906982422,9.933963775634766,-6.126040458679199,2291.3065407276154
D4:22:CD:00:05:5D,-166.83926391601562,-77.39160919189453,-125.80284118652344,0.5430389642715454,-2.1841554641723633,-1.2474632263183594,2291.3359525203705
D4:22:CD:00:05:6B,26.061931610107422,45.68193435668945,-14.430813789367676,-5.417186737060547,-2.9589152336120605,-14.71487808227539,2291.3359525203705
D4:22:CD:00:49:AA,-143.92320251464844,-86.3796157836914,79.70655059814453,-1.1021714210510254,-1.2532873153686523,-1.845292091369629,2291.3359525203705
D4:22:CD:00:05:6E,-40.143741607666016,-58.20280838012695,-121.05668640136719,2.7671422958374023,-11.329208374023438,-8.914474487304688,2291.3359525203705
D4:22:CD:00:05:5E,-74.75687408447266,-56.7841682434082,175.85598754882812,-9.577018737792969,13.737350463867188,-6.239773750305176,2291.3359525203705
D4:22:CD:00:05:5D,-170.74154663085938,-77.95980072021484,-122.26025390625,0.7313710451126099,-2.3043956756591797,-0.9953117370605469,2291.390517950058
D4:22:CD:00:05:6B,30.850366592407227,51.913536071777344,-15.420554161071777,0.1770341396331787,1.844526767730713,-10.78848648071289,2291.390517950058
D4:22:CD:00:49:AA,-143.7545623779297,-86.28923034667969,81.3518295288086,-0.8152134418487549,-1.9000270366668701,-1.2344646453857422,2291.390517950058
D4:22:CD:00:05:6E,-49.39726257324219,-54.60535430908203,-111.6084213256836,5.071549415588379,-11.822046279907227,-5.7421875,2291.390517950058
D4:22:CD:00:05:5E,-80.91102600097656,-58.852012634277344,177.54615783691406,-11.484224319458008,29.52557373046875,-10.195610046386719,2291.390517950058
D4:22:CD:00:05:5D,-177.61398315429688,-77.4237060546875,-114.78697204589844,1.36763596534729,-3.2338194847106934,-0.9964923858642578,2291.421511888504
D4:22:CD:00:05:6B,29.332155227661133,60.154502868652344,-28.631258010864258,4.184988975524902,8.440053939819336,-6.114312171936035,2291.421511888504
D4:22:CD:00:49:AA,-142.49273681640625,-86.97624969482422,80.50406646728516,-0.20756104588508606,-0.980242133140564,-0.4193439483642578,2291.421511888504
D4:22:CD:00:05:6E,-59.53437423706055,-51.432167053222656,-103.85568237304688,4.846408843994141,-14.561418533325195,-2.333183765411377,2291.421511888504
D4:22:CD:00:05:5E,-93.92825317382812,-62.15876007080078,-170.87171936035156,-15.573801040649414,0.03992835432291031,-8.027570724487305,2291.421511888504
D4:22:CD:00:05:5D,174.97836303710938,-75.84066772460938,-105.77503967285156,0.29542267322540283,-1.469419002532959,-0.3734474182128906,2291.4505381584167
D4:22:CD:00:05:6B,4.674432754516602,65.09419250488281,-60.88770294189453,4.885072708129883,4.479898452758789,-14.189544677734375,2291.4505381584167
D4:22:CD:00:49:AA,-132.87631225585938,-87.89755249023438,69.6967544555664,0.47844934463500977,-1.6864299774169922,-0.26249027252197266,2291.4505381584167
D4:22:CD:00:05:6E,-68.87203979492188,-49.74658966064453,-99.18698120117188,1.838416337966919,-15.49763298034668,0.1673717498779297,2291.4505381584167
D4:22:CD:00:05:5E,-102.43192291259766,-65.99256134033203,-160.82424926757812,-8.70068359375,-15.078187942504883,-0.4582862854003906,2291.4505381584167
D4:22:CD:00:05:5D,168.1915283203125,-73.78687286376953,-97.42803955078125,-0.050483301281929016,0.3077085018157959,-0.006953239440917969,2291.4810643196106
D4:22:CD:00:05:6B,-27.524972915649414,59.65126037597656,-96.18363952636719,-6.540373802185059,-8.740106582641602,-24.822486877441406,2291.4810643196106
D4:22:CD:00:49:AA,-114.11897277832031,-88.13533782958984,49.93559646606445,-0.0984342098236084,-1.1132540702819824,2.133917808532715,2291.4810643196106
D4:22:CD:00:05:6E,-77.65278625488281,-50.30503463745117,-95.91984558105469,2.3266077041625977,-12.831296920776367,1.2587862014770508,2291.4810643196106
D4:22:CD:00:05:5E,-114.55068969726562,-68.14620208740234,-149.4756622314453,6.557622909545898,-2.1608200073242188,18.533145904541016,2291.4810643196106
D4:22:CD:00:05:5D,161.9207763671875,-72.07510375976562,-89.79560852050781,-1.5862820148468018,2.1192493438720703,0.9521903991699219,2291.5113439559937
D4:22:CD:00:05:6B,-39.686458587646484,53.06572723388672,-117.5215072631836,-4.8764142990112305,-2.159236431121826,-21.054161071777344,2291.5113439559937
D4:22:CD:00:49:AA,-98.53359985351562,-87.76805114746094,33.52138900756836,-0.3276105523109436,-0.5217735767364502,2.5210351943969727,2291.5113439559937
D4:22:CD:00:05:6E,-85.02550506591797,-53.985374450683594,-92.3961410522461,2.378474235534668,-5.581514358520508,0.08815956115722656,2291.5113439559937
D4:22:CD:00:05:5E,-128.8673858642578,-67.62439727783203,-138.82435607910156,-3.0294580459594727,1.9843127727508545,0.5177574157714844,2291.5113439559937
D4:22:CD:00:05:5D,155.35877990722656,-71.2835464477539,-81.82710266113281,-1.4754762649536133,2.063988208770752,1.8673324584960938,2291.541480779648
D4:22:CD:00:05:6B,-61.80263137817383,57.14218521118164,-117.02867889404297,-7.495390892028809,13.693315505981445,-0.9518899917602539,2291.541480779648
D4:22:CD:00:49:AA,-104.9962387084961,-87.16703796386719,39.08589553833008,0.9790850877761841,-2.7057857513427734,1.2247600555419922,2291.541480779648
D4:22:CD:00:05:6E,-88.99164581298828,-58.186614990234375,-88.66407012939453,-0.8381481170654297,-3.7346715927124023,-1.651158332824707,2291.541480779648
D4:22:CD:00:05:5E,-135.18568420410156,-69.17687225341797,-132.555908203125,-2.956728935241699,3.44744873046875,-0.7681026458740234,2291.541480779648
D4:22:CD:00:05:5D,147.3692626953125,-71.28948211669922,-72.80188751220703,1.0370173454284668,0.47742390632629395,1.8801498413085938,2291.5756933689117
D4:22:CD:00:05:6B,-60.361244201660156,62.681854248046875,-97.93757629394531,-13.227771759033203,-16.887367248535156,1.3305950164794922,2291.5756933689117
D4:22:CD:00:49:AA,-107.4585952758789,-86.09881591796875,40.1507453918457,3.3194937705993652,-0.3696099519729614,2.201171875,2291.5756933689117
D4:22:CD:00:05:6E,-91.32461547851562,-61.26914596557617,-85.97688293457031,-0.24954745173454285,-4.736146926879883,-2.047959327697754,2291.5756933689117
D4:22:CD:00:05:5E,-140.139892578125,-71.27925872802734,-127.96196746826172,-5.0037946701049805,0.19962522387504578,-0.48493480682373047,2291.5756933689117
D4:22:CD:00:05:5D,138.62664794921875,-72.00212860107422,-63.92247009277344,4.992464065551758,-1.758772850036621,3.814234733581543,2291.605818748474
D4:22:CD:00:05:6B,-28.890487670898438,57.96304702758789,-71.06531524658203,-13.120473861694336,3.624199390411377,-15.141874313354492,2291.605818748474
D4:22:CD:00:49:AA,-104.61560821533203,-84.83070373535156,35.70756530761719,7.052346229553223,3.661498546600342,-1.4248666763305664,2291.605818748474
D4:22:CD:00:05:6E,-91.77606964111328,-61.876800537109375,-86.29791259765625,1.2656893730163574,-3.0441341400146484,-1.3840084075927734,2291.605818748474
D4:22:CD:00:05:5E,-144.7150421142578,-72.7876205444336,-124.61385345458984,-4.077890396118164,0.6176507472991943,-0.6417999267578125,2291.605818748474
D4:22:CD:00:05:5D,124.37311553955078,-73.78556060791016,-56.676483154296875,6.621615409851074,-0.5895290374755859,2.1541929244995117,2291.635815143585
D4:22:CD:00:05:6B,-11.042765617370605,44.62384796142578,-52.97678756713867,-5.367422103881836,1.254159927368164,-7.479373931884766,2291.635815143585
D4:22:CD:00:49:AA,-115.4789810180664,-83.38096618652344,45.20626449584961,3.719411849975586,-0.12135143578052521,-1.5729188919067383,2291.635815143585
D4:22:CD:00:05:6E,-90.59876251220703,-60.91234588623047,-87.24906921386719,-1.4502394199371338,-3.9644036293029785,-1.6417179107666016,2291.635815143585
D4:22:CD:00:05:5E,-147.4425048828125,-74.21501922607422,-122.69647979736328,-2.075164794921875,0.16185668110847473,0.9162435531616211,2291.635815143585
D4:22:CD:00:05:5D,119.42507934570312,-72.6138916015625,-58.82182312011719,8.692014694213867,13.72157096862793,4.280697822570801,2291.6913640499115
D4:22:CD:00:05:6B,-8.1232271194458,28.232954025268555,-42.895179748535156,-3.3111472129821777,4.163873672485352,-6.260076522827148,2291.6913640499115
D4:22:CD:00:49:AA,-118.98037719726562,-82.42438507080078,49.107177734375,2.0932626724243164,0.4794241189956665,2.1213159561157227,2291.6913640499115
D4:22:CD:00:05:6E,-88.88872528076172,-60.26041030883789,-86.81676483154297,-2.7550511360168457,-8.146062850952148,-3.302663803100586,2291.6913640499115
D4:22:CD:00:05:5E,-148.22677612304688,-76.10633087158203,-121.66680145263672,-3.772937774658203,-0.6524425745010376,0.3472614288330078,2291.6913640499115
D4:22:CD:00:05:5D,127.45906066894531,-66.72607421875,-72.98201751708984,18.675914764404297,12.292333602905273,5.528838157653809,2291.7213640213013
D4:22:CD:00:05:6B,-11.047657012939453,9.741368293762207,-34.59749221801758,-1.9493136405944824,-0.4550703763961792,-6.707188606262207,2291.7213640213013
D4:22:CD:00:49:AA,-121.00855255126953,-82.54546356201172,51.72226333618164,4.637001037597656,2.6065850257873535,0.8479070663452148,2291.7213640213013
D4:22:CD:00:05:6E,-88.9638900756836,-60.399986267089844,-85.8381576538086,-3.1499433517456055,-7.126334190368652,-4.050749778747559,2291.7213640213013
D4:22:CD:00:05:5E,-146.0290985107422,-79.3876724243164,-122.30455017089844,-2.129328727722168,-0.22491884231567383,0.0063018798828125,2291.7213640213013
D4:22:CD:00:05:5D,139.6423797607422,-56.91539001464844,-86.99156188964844,9.590681076049805,4.853666305541992,4.306449890136719,2291.751379966736
D4:22:CD:00:05:6B,-15.909856796264648,-8.295763969421387,-24.55927085876465,4.490558624267578,-0.5637655258178711,-5.828153610229492,2291.751379966736
D4:22:CD:00:49:AA,-127.81559753417969,-82.73472595214844,58.26118087768555,5.023599624633789,1.7346694469451904,-0.6689558029174805,2291.751379966736
D4:22:CD:00:05:6E,-89.37397766113281,-61.523380279541016,-84.54025268554688,-2.5933432579040527,-5.1027679443359375,-3.851384162902832,2291.751379966736
D4:22:CD:00:05:5E,-138.17727661132812,-82.75067138671875,-126.24089813232422,-2.7391457557678223,1.1793603897094727,-2.1406593322753906,2291.751379966736
D4:22:CD:00:05:5D,147.18983459472656,-46.696258544921875,-97.41515350341797,2.625539779663086,-1.8108885288238525,-2.152733325958252,2291.7809071540833
D4:22:CD:00:05:6B,-23.379941940307617,-22.849802017211914,-11.647993087768555,5.537006378173828,-2.4209513664245605,-1.5159873962402344,2291.7809071540833
D4:22:CD:00:49:AA,-133.0235137939453,-83.1471176147461,63.03373336791992,2.282515525817871,1.2370808124542236,-1.2573280334472656,2291.7809071540833
D4:22:CD:00:05:6E,-87.87159729003906,-63.297821044921875,-83.69449615478516,-1.5801432132720947,-4.269329071044922,-3.0708041191101074,2291.7809071540833
D4:22:CD:00:05:5E,-136.2786102294922,-83.46499633789062,-126.4053726196289,-1.5937347412109375,0.44166362285614014,-1.6888580322265625,2291.7809071540833
D4:22:CD:00:05:5D,152.6359405517578,-37.4564094543457,-105.20516204833984,-2.6703805923461914,-3.1569857597351074,-6.266548156738281,2291.811058998108
D4:22:CD:00:05:6B,-28.063993453979492,-31.468982696533203,1.0011744499206543,1.0602166652679443,-1.2551851272583008,3.6320648193359375,2291.811058998108
D4:22:CD:00:49:AA,-137.4331817626953,-83.37635040283203,67.16510009765625,0.7506405115127563,1.599457025527954,-2.829324722290039,2291.811058998108
D4:22:CD:00:05:6E,-84.18267059326172,-65.3173599243164,-83.48876190185547,-1.545858383178711,-3.743673324584961,-3.3283958435058594,2291.811058998108
D4:22:CD:00:05:5E,-137.38107299804688,-82.62211608886719,-123.68004608154297,-2.900691032409668,-1.4020593166351318,-2.007476806640625,2291.811058998108
D4:22:CD:00:05:5D,157.51231384277344,-30.28724479675293,-111.10833740234375,-5.953454971313477,-1.6181037425994873,-10.054500579833984,2291.841162443161
D4:22:CD:00:05:6B,-25.196971893310547,-33.54747009277344,8.390357971191406,-0.4689072370529175,1.783301830291748,-0.47747802734375,2291.841162443161
D4:22:CD:00:49:AA,-140.59169006347656,-83.66309356689453,69.90209197998047,2.392127513885498,-0.7934297323226929,-3.1096668243408203,2291.841162443161
D4:22:CD:00:05:6E,-80.56981658935547,-67.2216567993164,-83.04510498046875,-0.13467836380004883,-5.964565277099609,-4.373343467712402,2291.841162443161
D4:22:CD:00:05:5E,-143.2335662841797,-79.28795623779297,-117.12252807617188,-4.293760299682617,-1.3757081031799316,-2.2896790504455566,2291.841162443161
D4:22:CD:00:05:5D,160.30885314941406,-26.142358779907227,-115.91435241699219,-6.612617492675781,1.2578613758087158,-9.389142990112305,2291.9005908966064
D4:22:CD:00:05:6B,-25.47694206237793,-33.15861892700195,9.745081901550293,-1.422196626663208,8.03750228881836,-9.479385375976562,2291.9005908966064
D4:22:CD:00:49:AA,-132.5090789794922,-85.00393676757812,61.364051818847656,1.0568184852600098,0.77152419090271,-2.4157562255859375,2291.9005908966064
D4:22:CD:00:05:6E,-78.57402038574219,-69.7391586303711,-83.53982543945312,5.711080551147461,-11.434280395507812,-6.497381210327148,2291.9005908966064
D4:22:CD:00:05:5E,-148.4976043701172,-74.21836853027344,-111.44596099853516,-8.347236633300781,-0.921953558921814,-2.909238815307617,2291.9005908966064
D4:22:CD:00:05:5D,161.12586975097656,-25.216266632080078,-119.78951263427734,-10.779207229614258,-2.9190778732299805,-9.159990310668945,2291.9055902957916
D4:22:CD:00:05:6B,-34.75578308105469,-34.215484619140625,6.989256858825684,2.2270398139953613,-0.020929455757141113,-6.966554641723633,2291.9055902957916
D4:22:CD:00:49:AA,-119.73439025878906,-85.78559875488281,48.23849868774414,0.3880503177642822,-0.41265976428985596,-4.7896728515625,2291.9055902957916
D4:22:CD:00:05:6E,-74.32003784179688,-74.32414245605469,-90.4880142211914,6.020565032958984,-15.495014190673828,-0.9867324829101562,2291.9055902957916
D4:22:CD:00:05:5E,-152.22137451171875,-69.33876037597656,-108.38027954101562,-4.274003028869629,1.0005927085876465,-0.7353172302246094,2291.9055902957916
D4:22:CD:00:05:5D,159.49237060546875,-27.882949829101562,-121.42135620117188,-11.423852920532227,-3.361654758453369,-7.354804039001465,2291.961546897888
D4:22:CD:00:05:6B,-45.209041595458984,-38.655975341796875,0.2502472698688507,8.859537124633789,-6.184765815734863,-0.00901031494140625,2291.961546897888
D4:22:CD:00:49:AA,-106.67377471923828,-86.06886291503906,34.76879119873047,-0.6664760112762451,0.011028353124856949,-4.510232925415039,2291.961546897888
D4:22:CD:00:05:6E,-48.20144271850586,-82.9637222290039,-125.76628112792969,9.492183685302734,-21.098430633544922,9.985227584838867,2291.961546897888
D4:22:CD:00:05:5E,-154.02493286132812,-65.670654296875,-106.95403289794922,-2.148221492767334,-0.017248939722776413,2.238525390625,2291.961546897888
D4:22:CD:00:05:5D,159.09640502929688,-32.20209503173828,-121.2505874633789,-2.2490787506103516,-2.20932674407959,10.03849983215332,2291.9906947612762
D4:22:CD:00:05:6B,-50.943504333496094,-48.14533233642578,-11.904075622558594,21.738910675048828,-14.682262420654297,21.76717758178711,2291.9906947612762
D4:22:CD:00:49:AA,-104.04389953613281,-85.70764923095703,31.896875381469727,-1.0960893630981445,-1.0018126964569092,0.47051429748535156,2291.9906947612762
D4:22:CD:00:05:6E,37.41157150268555,-76.8834228515625,142.7366180419922,10.785993576049805,-29.603805541992188,8.15481948852539,2291.9906947612762
D4:22:CD:00:05:5E,-155.55075073242188,-63.62960433959961,-105.34013366699219,-3.770312786102295,0.008618658408522606,-0.4961118698120117,2291.9906947612762
D4:22:CD:00:05:5D,162.2793731689453,-31.93653678894043,-119.36803436279297,-13.876152038574219,-11.890495300292969,9.195755004882812,2292.02068901062
D4:22:CD:00:05:6B,-61.892826080322266,-56.25008010864258,-18.439014434814453,7.487070083618164,-6.94547176361084,28.840843200683594,2292.02068901062
D4:22:CD:00:49:AA,-117.73995208740234,-85.15839385986328,45.6299934387207,2.801295280456543,-0.8088276386260986,2.3343210220336914,2292.02068901062
D4:22:CD:00:05:6E,44.821449279785156,-59.47633743286133,122.67570495605469,4.596687316894531,-23.542022705078125,9.729949951171875,2292.02068901062
D4:22:CD:00:05:5E,-157.635009765625,-62.288963317871094,-103.34892272949219,-2.241633415222168,0.6238597631454468,1.241607666015625,2292.02068901062
D4:22:CD:00:05:5D,163.57489013671875,-26.996755599975586,-113.71562194824219,-9.108095169067383,-9.831499099731445,12.919733047485352,2292.0507147312164
D4:22:CD:00:05:6B,-83.76297760009766,-53.74613952636719,-10.231550216674805,23.707538604736328,16.449710845947266,12.136837005615234,2292.0507147312164
D4:22:CD:00:49:AA,-133.44546508789062,-84.4416275024414,61.439083099365234,-0.7000058889389038,0.7555046081542969,2.578998565673828,2292.0507147312164
D4:22:CD:00:05:6E,42.1605339050293,-40.47754669189453,111.29154205322266,3.604158878326416,-12.103361129760742,12.818929672241211,2292.0507147312164
D4:22:CD:00:05:5E,-159.7415771484375,-61.62067794799805,-101.58431243896484,-3.715637683868408,1.2955231666564941,0.5716476440429688,2292.0507147312164
D4:22:CD:00:05:5D,163.55795288085938,-18.421489715576172,-108.8860855102539,-6.883148193359375,-15.283332824707031,18.566234588623047,2292.0812327861786
D4:22:CD:00:05:6B,-83.36064147949219,-47.78094482421875,-5.330967903137207,3.4175286293029785,-8.650390625,14.873109817504883,2292.0812327861786
D4:22:CD:00:49:AA,-137.23892211914062,-84.31373596191406,66.61358642578125,1.1718788146972656,1.2631025314331055,8.960258483886719,2292.0812327861786
D4:22:CD:00:05:6E,34.667869567871094,-23.92361831665039,102.33432006835938,-3.47878360748291,-9.688220977783203,11.432769775390625,2292.0812327861786
D4:22:CD:00:05:5E,-161.85609436035156,-62.695106506347656,-99.97208404541016,-1.8842875957489014,1.2945878505706787,3.0412425994873047,2292.0812327861786
D4:22:CD:00:05:5D,160.61912536621094,-7.682685852050781,-106.25395965576172,-6.050751686096191,-14.30235481262207,11.337663650512695,2292.111330270767
D4:22:CD:00:05:6B,-61.41883850097656,-42.874149322509766,-4.93734884262085,12.818700790405273,-11.870105743408203,7.675260543823242,2292.111330270767
D4:22:CD:00:49:AA,-140.0708465576172,-84.74834442138672,71.2577896118164,5.116267204284668,4.282554626464844,6.975921630859375,2292.111330270767
D4:22:CD:00:05:6E,24.941333770751953,-12.982390403747559,96.6047592163086,-1.6374127864837646,-4.802127838134766,2.5000905990600586,2292.111330270767
D4:22:CD:00:05:5E,-162.9874267578125,-66.18504333496094,-99.36099243164062,-7.0363616943359375,3.1440811157226562,1.720198631286621,2292.111330270767
D4:22:CD:00:05:5D,158.64524841308594,2.0788185596466064,-105.49913787841797,-4.181365966796875,-7.118074417114258,-1.4697017669677734,2292.1412465572357
D4:22:CD:00:05:6B,-52.89216613769531,-39.2950325012207,-6.343104362487793,11.469688415527344,-5.04852294921875,-8.402151107788086,2292.1412465572357
D4:22:CD:00:49:AA,-150.62152099609375,-84.69622039794922,83.1980972290039,7.424695014953613,6.5156049728393555,11.32659912109375,2292.1412465572357
D4:22:CD:00:05:6E,20.483848571777344,-6.061016082763672,94.38365936279297,-8.290401458740234,-3.4202160835266113,0.8710184097290039,2292.1412465572357
D4:22:CD:00:05:5E,-159.77403259277344,-71.88369750976562,-104.37503051757812,-6.980898857116699,0.621441125869751,5.644070625305176,2292.1412465572357
D4:22:CD:00:05:5D,158.15777587890625,7.847193241119385,-105.84520721435547,-2.6136770248413086,1.1797447204589844,-12.15882682800293,2292.176836013794
D4:22:CD:00:05:6B,-62.473602294921875,-39.9420051574707,-8.961750030517578,-2.041593074798584,-8.568601608276367,0.1971120834350586,2292.176836013794
D4:22:CD:00:49:AA,-165.96006774902344,-85.2737045288086,98.9537582397461,4.205997467041016,1.6608912944793701,10.39117431640625,2292.176836013794
D4:22:CD:00:05:6E,14.167215347290039,-0.22258491814136505,94.68353271484375,-5.694436073303223,-1.3208913803100586,-5.870282173156738,2292.176836013794
D4:22:CD:00:05:5E,-134.12423706054688,-81.96994018554688,-125.53107452392578,-0.12101304531097412,-4.5982255935668945,6.531606674194336,2292.176836013794
D4:22:CD:00:05:5D,158.53024291992188,6.814319133758545,-106.16722106933594,-5.487433433532715,5.758716583251953,-20.538616180419922,2292.205848455429
D4:22:CD:00:05:6B,-71.59294891357422,-46.21387481689453,-13.124876022338867,-6.330644607543945,0.7137086391448975,7.697399139404297,2292.205848455429
D4:22:CD:00:49:AA,173.95748901367188,-85.872802734375,118.72498321533203,1.6796247959136963,0.6634845733642578,0.8178396224975586,2292.205848455429
D4:22:CD:00:05:6E,9.132997512817383,5.12581205368042,97.54279327392578,-0.5096209049224854,-0.045525096356868744,-8.616151809692383,2292.205848455429
D4:22:CD:00:05:5E,-104.467529296875,-83.84929656982422,-149.30059814453125,0.6212434768676758,2.9860024452209473,-5.739830017089844,2292.205848455429
D4:22:CD:00:05:5D,155.8235626220703,-1.566571831703186,-106.24100494384766,-5.538775444030762,2.9060797691345215,-21.771583557128906,2292.2613813877106
D4:22:CD:00:05:6B,-78.33019256591797,-56.182411193847656,-18.416940689086914,-2.908857822418213,1.4710633754730225,5.013758659362793,2292.2613813877106
D4:22:CD:00:49:AA,151.26853942871094,-85.06453704833984,140.03233337402344,3.3002004623413086,1.0242993831634521,-6.338967323303223,2292.2613813877106
D4:22:CD:00:05:6E,11.254719734191895,9.977033615112305,103.52165985107422,0.7096667289733887,1.7003140449523926,-10.240718841552734,2292.2613813877106
D4:22:CD:00:05:5E,-110.43852996826172,-82.19194030761719,-144.14202880859375,-4.512054443359375,0.842939019203186,-8.461631774902344,2292.2613813877106
D4:22:CD:00:05:5D,153.0355682373047,-15.294620513916016,-105.1579818725586,-6.059297561645508,-6.536398887634277,-19.958057403564453,2292.2913813591003
D4:22:CD:00:05:6B,-85.215087890625,-66.66400909423828,-24.323925018310547,-4.297840118408203,0.31240546703338623,2.234006881713867,2292.2913813591003
D4:22:CD:00:49:AA,141.18038940429688,-84.33572387695312,148.77780151367188,-0.3362996578216553,-0.9422590732574463,-7.911701202392578,2292.2913813591003
D4:22:CD:00:05:6E,23.832719802856445,13.553375244140625,113.81646728515625,-3.5646071434020996,7.431822776794434,-13.958011627197266,2292.2913813591003
D4:22:CD:00:05:5E,-115.18496704101562,-80.52157592773438,-144.66590881347656,0.8193020820617676,-6.45130729675293,-8.444257736206055,2292.2913813591003
D4:22:CD:00:05:5D,153.548095703125,-31.52241325378418,-102.43157958984375,-4.242722511291504,-9.395868301391602,-10.263179779052734,2292.3213806152344
D4:22:CD:00:05:6B,-87.07003021240234,-73.00053405761719,-36.79978942871094,-6.256915092468262,8.088191986083984,0.07206439971923828,2292.3213806152344
D4:22:CD:00:49:AA,126.28672790527344,-84.97270202636719,162.13815307617188,-1.0641436576843262,1.2726895809173584,-10.043054580688477,2292.3213806152344
D4:22:CD:00:05:6E,45.056392669677734,15.183406829833984,128.0509796142578,-29.21929168701172,25.393692016601562,-16.541088104248047,2292.3213806152344
D4:22:CD:00:05:5E,-114.28611755371094,-79.78311920166016,-147.87059020996094,-1.8469278812408447,10.952232360839844,-4.327587127685547,2292.3213806152344
D4:22:CD:00:05:5D,153.33413696289062,-49.63936233520508,-98.1524658203125,-3.458012580871582,-7.694424629211426,2.7538976669311523,2292.3513979911804
D4:22:CD:00:05:6B,-92.94969177246094,-76.21417236328125,-48.25654220581055,-5.634054183959961,0.23782563209533691,-10.656684875488281,2292.3513979911804
D4:22:CD:00:49:AA,106.79199981689453,-85.27652740478516,179.12416076660156,2.898001194000244,2.458559513092041,-11.439407348632812,2292.3513979911804
D4:22:CD:00:05:6E,74.419189453125,19.41280174255371,133.69212341308594,9.217256546020508,-3.4293088912963867,-41.64220428466797,2292.3513979911804
D4:22:CD:00:05:5E,-119.23271179199219,-78.40850830078125,-144.07118225097656,-2.8610029220581055,2.2835516929626465,-5.6693267822265625,2292.3513979911804
D4:22:CD:00:05:5D,144.6200408935547,-69.31486511230469,-87.76212310791016,3.3770222663879395,-4.8634538650512695,18.463008880615234,2292.380945920944
D4:22:CD:00:05:6B,-102.13117218017578,-78.42223358154297,-53.672786712646484,-1.8286361694335938,5.036931037902832,-8.997270584106445,2292.380945920944
D4:22:CD:00:49:AA,89.14131164550781,-85.04670715332031,-165.11361694335938,0.5404082536697388,0.4994394779205322,-9.118724822998047,2292.380945920944
D4:22:CD:00:05:6E,92.84637451171875,27.156354904174805,127.13516235351562,-9.476612091064453,-14.604679107666016,21.388378143310547,2292.380945920944
D4:22:CD:00:05:5E,-129.8433380126953,-76.00382995605469,-136.80770874023438,-3.4976162910461426,-0.9308557510375977,-2.7098913192749023,2292.380945920944
D4:22:CD:00:05:5D,71.42431640625,-82.94367218017578,-11.86832332611084,12.241798400878906,12.609903335571289,24.558292388916016,2292.410945892334
D4:22:CD:00:05:6B,-104.80149841308594,-82.93553161621094,-53.75904846191406,0.5195622444152832,5.556984901428223,-9.164669036865234,2292.410945892334
D4:22:CD:00:49:AA,86.4043960571289,-85.26824188232422,-164.39425659179688,0.3677208423614502,-2.3612160682678223,-5.301663398742676,2292.410945892334
D4:22:CD:00:05:6E,90.21932220458984,31.335235595703125,114.5750961303711,-2.027512550354004,4.429540634155273,-14.18287467956543,2292.410945892334
D4:22:CD:00:05:5E,-137.55702209472656,-72.34014129638672,-132.52285766601562,-1.9571287631988525,-2.9925589561462402,2.1416425704956055,2292.410945892334
D4:22:CD:00:05:5D,16.448091506958008,-74.2786865234375,43.881038665771484,-2.6085901260375977,26.65328598022461,-14.993701934814453,2292.4409601688385
D4:22:CD:00:05:6B,-143.71861267089844,-88.26720428466797,-9.884232521057129,-0.6964094638824463,5.648778915405273,-6.730016708374023,2292.4409601688385
D4:22:CD:00:49:AA,114.13485717773438,-85.87796783447266,165.20480346679688,6.344412803649902,-1.9661996364593506,0.15326499938964844,2292.4409601688385
D4:22:CD:00:05:6E,83.72352600097656,35.38943099975586,95.65985107421875,-7.797491073608398,8.243797302246094,-17.731826782226562,2292.4409601688385
D4:22:CD:00:05:5E,-140.58038330078125,-69.2960433959961,-131.560546875,-8.099405288696289,-0.32992029190063477,4.377236366271973,2292.4409601688385
D4:22:CD:00:05:5D,12.25541877746582,-72.397705078125,40.50849533081055,15.06222915649414,11.654617309570312,-10.967905044555664,2292.4754986763
D4:22:CD:00:05:6B,119.32877349853516,-85.4655990600586,90.75804138183594,0.5859547853469849,1.1736257076263428,-3.905921459197998,2292.4754986763
D4:22:CD:00:49:AA,133.91307067871094,-85.94054412841797,144.08624267578125,1.1590604782104492,0.40680158138275146,3.455967903137207,2292.4754986763
D4:22:CD:00:05:6E,72.08179473876953,34.15102767944336,74.34396362304688,-14.879058837890625,8.412450790405273,-9.119867324829102,2292.4754986763
D4:22:CD:00:05:5E,-137.9474334716797,-67.52758026123047,-134.21231079101562,-5.656713485717773,-2.827517032623291,3.1545019149780273,2292.4754986763
D4:22:CD:00:05:5D,28.047945022583008,-75.92281341552734,24.132396697998047,11.049291610717773,3.759514331817627,-4.271489143371582,2292.506488800049
D4:22:CD:00:05:6B,111.56124114990234,-81.27552795410156,96.51862335205078,-0.3799963593482971,0.3441392183303833,-0.4497079849243164,2292.506488800049
D4:22:CD:00:49:AA,154.39651489257812,-86.16605377197266,123.5609130859375,-1.940047025680542,0.4381486177444458,4.853324890136719,2292.506488800049
D4:22:CD:00:05:6E,56.19810485839844,27.300683975219727,54.817440032958984,-1.6498684883117676,1.4837677478790283,-13.764457702636719,2292.506488800049
D4:22:CD:00:05:5E,-130.5640411376953,-65.97743225097656,-138.4889678955078,-7.184728622436523,-9.182657241821289,8.571714401245117,2292.506488800049
D4:22:CD:00:05:5D,75.3006820678711,-78.31700897216797,-14.803976058959961,13.554008483886719,8.14065933227539,-0.17298126220703125,2292.561057329178
D4:22:CD:00:05:6B,110.6091079711914,-77.93438720703125,95.82139587402344,1.8236324787139893,4.924128532409668,6.256093978881836,2292.561057329178
D4:22:CD:00:49:AA,-177.89524841308594,-85.69871520996094,98.9464340209961,1.0694565773010254,-1.2704648971557617,8.328704833984375,2292.561057329178
D4:22:CD:00:05:6E,45.94062805175781,18.409339904785156,38.779232025146484,2.879044532775879,-5.538293838500977,-12.145357131958008,2292.561057329178
D4:22:CD:00:05:5E,-118.52484893798828,-65.27428436279297,-141.93136596679688,-10.354785919189453,-13.283731460571289,7.345848083496094,2292.561057329178
D4:22:CD:00:05:5D,113.98786926269531,-76.8719253540039,-46.67612838745117,-6.412691116333008,-10.33637809753418,5.207956314086914,2292.5910556316376
D4:22:CD:00:05:6B,117.63863372802734,-76.21656799316406,92.30445098876953,1.4055900573730469,7.243036270141602,8.632369995117188,2292.5910556316376
D4:22:CD:00:49:AA,-174.02536010742188,-83.95856475830078,100.1761245727539,1.6573059558868408,-1.7265598773956299,-0.25041770935058594,2292.5910556316376
D4:22:CD:00:05:6E,43.05928421020508,10.741307258605957,25.123720169067383,22.123287200927734,-17.190067291259766,-4.512774467468262,2292.5910556316376
D4:22:CD:00:05:5E,-108.06401062011719,-65.26280975341797,-143.05174255371094,-22.42330551147461,10.891830444335938,-6.405129432678223,2292.5910556316376
D4:22:CD:00:05:5D,125.53372955322266,-77.58859252929688,-61.71610641479492,5.74660587310791,2.2758870124816895,5.542636871337891,2292.6210567951202
D4:22:CD:00:05:6B,134.1153106689453,-76.1984634399414,83.96578979492188,0.9858407974243164,2.5358824729919434,9.681034088134766,2292.6210567951202
D4:22:CD:00:49:AA,-170.39869689941406,-80.93269348144531,102.22681427001953,-2.0511651039123535,-3.604151725769043,-2.790955066680908,2292.6210567951202
D4:22:CD:00:05:6E,61.306575775146484,7.896301746368408,19.69179344177246,1.4623353481292725,-22.800025939941406,-17.127220153808594,2292.6210567951202
D4:22:CD:00:05:5E,-107.5134506225586,-66.68509674072266,-135.38958740234375,-13.809579849243164,19.413299560546875,0.18930721282958984,2292.6210567951202
D4:22:CD:00:05:5D,139.10682678222656,-78.64106750488281,-74.5409164428711,-2.552476406097412,-5.273591041564941,0.9008541107177734,2292.6510710716248
D4:22:CD:00:05:6B,155.81996154785156,-76.31819152832031,70.84107208251953,5.3567914962768555,0.32697558403015137,4.829085350036621,2292.6510710716248
D4:22:CD:00:49:AA,-169.82754516601562,-77.91744232177734,107.15008544921875,-2.6959409713745117,2.4389147758483887,-1.526947021484375,2292.6510710716248
D4:22:CD:00:05:6E,78.58338928222656,6.279411792755127,16.40692138671875,-8.668800354003906,11.032768249511719,24.370441436767578,2292.6510710716248
D4:22:CD:00:05:5E,-110.91063690185547,-67.9134292602539,-119.92805480957031,-13.267230987548828,12.379472732543945,-5.679372787475586,2292.6510710716248
D4:22:CD:00:05:5D,153.18545532226562,-77.9464111328125,-81.09805297851562,-4.418827056884766,-7.521747589111328,7.50377082824707,2292.680690765381
D4:22:CD:00:05:6B,160.6748809814453,-75.23444366455078,69.58258056640625,13.966772079467773,-4.0438127517700195,-1.4973840713500977,2292.680690765381
D4:22:CD:00:49:AA,-173.96910095214844,-77.15849304199219,113.85234832763672,2.5825862884521484,4.811915397644043,6.10736083984375,2292.680690765381
D4:22:CD:00:05:6E,88.71284484863281,5.979973316192627,10.074738502502441,-1.6299164295196533,-11.081880569458008,-5.617534637451172,2292.680690765381
D4:22:CD:00:05:5E,-122.23100280761719,-65.80154418945312,-99.33804321289062,-8.087284088134766,6.802959442138672,-6.940435409545898,2292.680690765381
D4:22:CD:00:05:5D,164.35208129882812,-76.04177856445312,-90.00650024414062,-2.7223658561706543,1.2522358894348145,0.1633749008178711,2292.7106988430023
D4:22:CD:00:05:6B,160.31715393066406,-74.66253662109375,77.68421936035156,-4.866649627685547,2.767336368560791,-2.15779447555542,2292.7106988430023
D4:22:CD:00:49:AA,-178.20018005371094,-76.67681884765625,119.79814910888672,-3.0929923057556152,2.688899517059326,-1.152359962463379,2292.7106988430023
D4:22:CD:00:05:6E,106.09601593017578,2.786543846130371,3.9889585971832275,2.589599132537842,-5.482117652893066,3.0884437561035156,2292.7106988430023
D4:22:CD:00:05:5E,-136.3658447265625,-60.19682693481445,-80.83802795410156,-3.99483060836792,3.936357021331787,-10.459815979003906,2292.7106988430023
D4:22:CD:00:05:5D,171.3839111328125,-74.05937194824219,-95.4830093383789,1.1755352020263672,1.9666953086853027,0.9763050079345703,2292.74071598053
D4:22:CD:00:05:6B,160.22860717773438,-75.29757690429688,89.11581420898438,-4.694437026977539,-5.148965835571289,4.5960845947265625,2292.74071598053
D4:22:CD:00:49:AA,177.7261505126953,-75.06600189208984,125.47821044921875,-3.5906171798706055,0.3220081925392151,-0.4888496398925781,2292.74071598053
D4:22:CD:00:05:6E,115.48668670654297,-3.5819506645202637,-2.4363999366760254,6.541716575622559,-10.837747573852539,3.846909523010254,2292.74071598053
D4:22:CD:00:05:5E,-149.2421112060547,-52.877803802490234,-67.65526580810547,-0.5816687345504761,2.798311710357666,-11.745105743408203,2292.74071598053
D4:22:CD:00:05:5D,175.78375244140625,-72.82552337646484,-97.70099639892578,0.583651065826416,0.5051658153533936,1.0411033630371094,2292.776244163513
D4:22:CD:00:05:6B,154.034912109375,-77.15010070800781,96.89869689941406,-2.3825912475585938,-6.429417610168457,5.705270767211914,2292.776244163513
D4:22:CD:00:49:AA,175.44407653808594,-73.42086791992188,128.54693603515625,-1.694821834564209,0.8352917432785034,0.4867544174194336,2292.776244163513
D4:22:CD:00:05:6E,120.75234985351562,-14.137092590332031,-8.982633590698242,12.14627456665039,-7.415523529052734,-4.096832275390625,2292.776244163513
D4:22:CD:00:05:5E,-159.1552734375,-46.002197265625,-59.399356842041016,-1.7434027194976807,3.2575173377990723,-9.898412704467773,2292.776244163513
D4:22:CD:00:05:5D,179.24131774902344,-72.71239471435547,-100.79036712646484,-2.397818088531494,1.285207748413086,0.9242095947265625,2292.806243658066
D4:22:CD:00:05:6B,149.4748077392578,-80.671630859375,95.32366943359375,-7.416657447814941,-1.2681312561035156,1.9257287979125977,2292.806243658066
D4:22:CD:00:49:AA,170.84811401367188,-72.62496185302734,133.15394592285156,-1.2347865104675293,1.1363418102264404,0.38669586181640625,2292.806243658066
D4:22:CD:00:05:6E,128.75289916992188,-26.552705764770508,-16.254728317260742,15.62965202331543,-13.953214645385742,6.257053375244141,2292.806243658066
D4:22:CD:00:05:5E,-167.1673126220703,-40.89397430419922,-53.4500617980957,0.10501548647880554,-1.6332862377166748,-8.110004425048828,2292.806243658066
D4:22:CD:00:05:5D,-177.3137969970703,-73.16942596435547,-106.17953491210938,-2.2490882873535156,0.4149359464645386,0.5503015518188477,2292.8362510204315
D4:22:CD:00:05:6B,164.061767578125,-85.37635803222656,77.293212890625,-6.3461151123046875,-0.378678560256958,-0.15492916107177734,2292.8362510204315
D4:22:CD:00:49:AA,164.6201934814453,-72.03172302246094,138.35964965820312,-1.4398107528686523,0.40602201223373413,-2.1669387817382812,2292.8362510204315
D4:22:CD:00:05:6E,134.86073303222656,-39.2319450378418,-21.21835708618164,20.837154388427734,-23.74944305419922,10.31131362915039,2292.8362510204315
D4:22:CD:00:05:5E,-174.18678283691406,-39.42498779296875,-49.039512634277344,3.470993995666504,-3.1236343383789062,-4.209089279174805,2292.8362510204315
D4:22:CD:00:05:5D,-174.51351928710938,-73.40159606933594,-112.33545684814453,-1.1536645889282227,-0.08746665716171265,-0.15349578857421875,2292.890931367874
D4:22:CD:00:05:6B,-109.73664093017578,-86.681884765625,-12.986783981323242,-4.012531280517578,0.1001812219619751,-4.3696794509887695,2292.890931367874
D4:22:CD:00:49:AA,157.97283935546875,-71.8163833618164,143.1300048828125,-1.195054054260254,0.06083262711763382,-0.3010282516479492,2292.890931367874
D4:22:CD:00:05:6E,146.43568420410156,-46.13569641113281,-22.582815170288086,9.417085647583008,-4.002734184265137,-6.799348831176758,2292.890931367874
D4:22:CD:00:05:5E,-173.1144561767578,-42.62031173706055,-45.46242904663086,10.495548248291016,-5.908224105834961,-3.2396130561828613,2292.890931367874
D4:22:CD:00:05:5D,-173.07838439941406,-72.5503921508789,-115.33164978027344,1.210042953491211,-0.9239133596420288,-0.6891450881958008,2292.920969724655
D4:22:CD:00:05:6B,-79.5960464477539,-81.8160400390625,-48.44936752319336,-2.669966220855713,0.1745966672897339,-8.195045471191406,2292.920969724655
D4:22:CD:00:49:AA,151.52943420410156,-71.58592224121094,147.81161499023438,0.0898214727640152,-1.3577828407287598,-4.230237007141113,2292.920969724655
D4:22:CD:00:05:6E,150.90255737304688,-46.056983947753906,-21.06772804260254,-2.370001792907715,-15.30422592163086,0.5923995971679688,2292.920969724655
D4:22:CD:00:05:5E,-163.65199279785156,-51.25424575805664,-44.39497375488281,16.328475952148438,-9.808128356933594,-6.000677108764648,2292.920969724655
D4:22:CD:00:05:5D,-173.91542053222656,-71.06926727294922,-115.39179992675781,1.4503941535949707,-1.470088243484497,0.02841949462890625,2292.9509863853455
D4:22:CD:00:05:6B,-82.99516296386719,-75.74108123779297,-54.39174270629883,-2.1154699325561523,-0.21123695373535156,-10.985334396362305,2292.9509863853455
D4:22:CD:00:49:AA,145.4161376953125,-71.16128540039062,152.0392608642578,-0.31428074836730957,-0.363470196723938,-5.9855499267578125,2292.9509863853455
D4:22:CD:00:05:6E,138.25747680664062,-44.466983795166016,-17.42173957824707,12.070932388305664,0.21478477120399475,1.4319610595703125,2292.9509863853455
D4:22:CD:00:05:5E,-160.19696044921875,-58.52644348144531,-43.225982666015625,-41.007171630859375,12.519966125488281,53.25316619873047,2292.9509863853455
D4:22:CD:00:05:5D,-176.82054138183594,-68.78121948242188,-113.01190948486328,-0.33903247117996216,-2.507845401763916,-1.0478696823120117,2292.9805262088776
D4:22:CD:00:05:6B,-90.69049835205078,-70.37017822265625,-56.28499221801758,-2.435359001159668,5.358741760253906,-9.747407913208008,2292.9805262088776
D4:22:CD:00:49:AA,140.5124969482422,-70.90934753417969,154.8562774658203,-4.869739532470703,-0.014565892517566681,-1.3393268585205078,2292.9805262088776
D4:22:CD:00:05:6E,134.92861938476562,-47.47990798950195,-14.732728004455566,18.66244888305664,11.090070724487305,-5.890252113342285,2292.9805262088776
D4:22:CD:00:05:5E,-167.35568237304688,-58.51893615722656,-43.63657760620117,12.796051025390625,-12.627180099487305,10.307783126831055,2292.9805262088776
D4:22:CD:00:05:5D,-179.61422729492188,-65.67020416259766,-109.02225494384766,-0.6310480833053589,0.28827333450317383,-0.884028434753418,2293.0115144252777
D4:22:CD:00:05:6B,-92.60176086425781,-66.14826202392578,-57.42142868041992,-3.00607967376709,6.537700653076172,-5.53066349029541,2293.0115144252777
D4:22:CD:00:49:AA,138.36041259765625,-70.08324432373047,156.3625946044922,-0.71528160572052,-0.5397969484329224,0.5564670562744141,2293.0115144252777
D4:22:CD:00:05:6E,141.55975341796875,-52.827266693115234,-13.499031066894531,10.407148361206055,4.142295837402344,8.643350601196289,2293.0115144252777
D4:22:CD:00:05:5E,-167.62791442871094,-56.36114501953125,-46.649776458740234,12.935564041137695,-10.053979873657227,13.364723205566406,2293.0115144252777
D4:22:CD:00:05:5D,178.24366760253906,-62.407615661621094,-105.15580749511719,-0.9226580858230591,-0.6448091268539429,0.808135986328125,2293.0415291786194
D4:22:CD:00:05:6B,-92.51536560058594,-59.97299575805664,-57.610774993896484,-5.421908378601074,8.868806838989258,6.4985504150390625,2293.0415291786194
D4:22:CD:00:49:AA,138.29461669921875,-69.28279113769531,156.8833770751953,1.4842417240142822,0.07559765875339508,2.0494213104248047,2293.0415291786194
D4:22:CD:00:05:6E,151.46275329589844,-58.08435821533203,-16.37759780883789,8.491418838500977,1.9519858360290527,14.477010726928711,2293.0415291786194
D4:22:CD:00:05:5E,-163.74435424804688,-51.74231719970703,-50.45972442626953,6.31005859375,-11.92367935180664,16.203067779541016,2293.0415291786194
D4:22:CD:00:05:5D,176.77413940429688,-58.93708801269531,-101.52824401855469,-1.5472450256347656,0.16075611114501953,0.46623897552490234,2293.076071023941
D4:22:CD:00:05:6B,-85.9071044921875,-50.271602630615234,-58.825660705566406,1.5625672340393066,14.080738067626953,21.16440200805664,2293.076071023941
D4:22:CD:00:49:AA,140.47373962402344,-68.76156616210938,154.73692321777344,-0.17674151062965393,-1.4560728073120117,10.973657608032227,2293.076071023941
D4:22:CD:00:05:6E,165.37025451660156,-62.996665954589844,-25.65471076965332,-0.13117974996566772,-7.344053268432617,16.547809600830078,2293.076071023941
D4:22:CD:00:05:5E,-161.75672912597656,-46.09273147583008,-53.27531051635742,1.848057746887207,-15.17950439453125,8.789291381835938,2293.076071023941
