Device,EulerX,EulerY,EulerZ,FreeAccX,FreeAccY,FreeAccZ,Timestamp
D4:22:CD:00:05:5D,176.7744598388672,-53.27103805541992,-137.27346801757812,-1.5450572967529297,0.5269565582275391,3.39115047454834,574.8766615390778
D4:22:CD:00:05:6B,-40.0305290222168,-10.73488712310791,-25.391061782836914,6.856047630310059,5.993560791015625,6.842914581298828,574.8766615390778
D4:22:CD:00:49:AA,141.17947387695312,-72.47818756103516,138.8186492919922,-2.689879894256592,-0.5957769155502319,6.001069068908691,574.8766615390778
D4:22:CD:00:05:6E,65.57624053955078,-29.706331253051758,15.638407707214355,11.521461486816406,9.460710525512695,-0.910792350769043,574.8766615390778
D4:22:CD:00:05:5E,-161.5069122314453,-37.91948318481445,-52.825050354003906,0.42290347814559937,-16.870494842529297,4.090397834777832,574.8766615390778
D4:22:CD:00:05:6B,-24.415525436401367,-1.7428597211837769,-25.8114013671875,-0.0907917320728302,1.0302541255950928,5.983577728271484,574.8876757621765
D4:22:CD:00:49:AA,143.81573486328125,-72.81440734863281,137.32705688476562,-5.980213165283203,-0.4020072817802429,4.92083740234375,574.8876757621765
D4:22:CD:00:05:6E,79.3427963256836,-35.26742172241211,19.189132690429688,2.1627907752990723,8.456239700317383,4.6543684005737305,574.8876757621765
D4:22:CD:00:05:5E,-159.10813903808594,-36.92072677612305,-55.94718551635742,11.763357162475586,-3.858719825744629,4.61977481842041,574.8876757621765
D4:22:CD:00:05:5D,-150.9179229736328,-46.37848663330078,-114.8651351928711,1.0959103107452393,2.387190818786621,5.082502365112305,574.893670797348
D4:22:CD:00:49:AA,150.6962127685547,-73.82618713378906,132.8217315673828,-2.1015915870666504,1.2747118473052979,0.47214412689208984,574.893670797348
D4:22:CD:00:05:6E,96.25531005859375,-40.977359771728516,22.142133712768555,1.208956003189087,3.586031913757324,2.643364906311035,574.893670797348
D4:22:CD:00:05:5E,-151.0526123046875,-38.8701286315918,-61.564483642578125,2.0504860877990723,0.5617705583572388,2.8466358184814453,574.893670797348
D4:22:CD:00:05:5D,-150.45587158203125,-41.40455627441406,-114.18646240234375,-6.370828628540039,-7.134675025939941,2.259779930114746,574.8988914489746
D4:22:CD:00:05:6B,-34.36476135253906,-9.163658142089844,-52.95473861694336,1.648587942123413,-3.6063990592956543,20.904129028320312,574.8988914489746
D4:22:CD:00:05:5E,-144.2062225341797,-42.459774017333984,-68.81788635253906,3.5021557807922363,3.294363498687744,-4.91585636138916,574.8988914489746
D4:22:CD:00:05:5D,-175.1389923095703,-50.49309539794922,-95.24578857421875,-0.6381303071975708,-0.6128371953964233,1.977677345275879,574.9088892936707
D4:22:CD:00:05:6B,-2.515690803527832,-1.7098549604415894,-42.922813415527344,-1.0414795875549316,0.7453187704086304,6.5544891357421875,574.9088892936707
D4:22:CD:00:49:AA,154.60858154296875,-79.67219543457031,124.99788665771484,-1.7288200855255127,1.0138311386108398,5.842893600463867,574.9088892936707
D4:22:CD:00:05:6E,95.6913833618164,-66.44943237304688,17.778182983398438,1.7778003215789795,2.0153002738952637,-0.9089317321777344,574.9088892936707
D4:22:CD:00:05:5D,-175.19119262695312,-55.00271224975586,-96.14694213867188,-1.7165985107421875,-1.3171391487121582,4.634459495544434,574.9438889026642
D4:22:CD:00:05:6B,6.124728679656982,1.3306922912597656,-40.61345291137695,-6.540945053100586,5.066231727600098,0.13012409210205078,574.9438889026642
D4:22:CD:00:49:AA,177.27662658691406,-82.52882385253906,104.9688720703125,-0.559441089630127,0.6329343318939209,3.3130006790161133,574.9438889026642
D4:22:CD:00:05:6E,99.9825439453125,-72.65245056152344,17.130802154541016,-0.15746057033538818,1.9481277465820312,-1.7548637390136719,574.9438889026642
D4:22:CD:00:05:5E,-87.46041107177734,-53.427242279052734,-84.72627258300781,-4.257607460021973,2.4433345794677734,0.021697998046875,574.9438889026642
D4:22:CD:00:05:5D,-176.23007202148438,-60.8017692565918,-96.0569839477539,-4.4511613845825195,-5.742138862609863,7.198749542236328,574.9735426902771
D4:22:CD:00:05:6B,12.235244750976562,2.189592123031616,-40.62540817260742,-7.77082633972168,0.2221362590789795,-0.5193672180175781,574.9735426902771
D4:22:CD:00:49:AA,-158.43650817871094,-82.39935302734375,84.18812561035156,0.43082278966903687,0.9656229019165039,-1.2279043197631836,574.9735426902771
D4:22:CD:00:05:6E,129.51564025878906,-80.76387786865234,-0.06875757873058319,-7.233623504638672,-0.8653154373168945,-2.731043815612793,574.9735426902771
D4:22:CD:00:05:5E,-90.45648193359375,-49.130985260009766,-83.3238525390625,-2.4864511489868164,3.0021724700927734,-0.14077091217041016,574.9735426902771
D4:22:CD:00:05:5D,178.12738037109375,-68.44754028320312,-95.70529174804688,-1.0665504932403564,-4.706608772277832,1.9259700775146484,575.0035634040833
D4:22:CD:00:05:6B,23.360214233398438,2.385037899017334,-45.900184631347656,-3.5057849884033203,1.3435239791870117,-6.086362838745117,575.0035634040833
D4:22:CD:00:49:AA,-149.34996032714844,-80.6475830078125,77.36042785644531,1.9617857933044434,0.07366836071014404,-6.115749359130859,575.0035634040833
D4:22:CD:00:05:6E,166.47967529296875,-80.79884338378906,-24.168657302856445,-5.71397590637207,-2.3427343368530273,-5.27242374420166,575.0035634040833
D4:22:CD:00:05:5E,-86.6097640991211,-41.75339126586914,-90.62117004394531,-2.0956225395202637,-0.8824257850646973,-4.858705520629883,575.0035634040833
D4:22:CD:00:05:5D,171.35325622558594,-71.97653198242188,-88.7128677368164,4.846064567565918,0.3950532078742981,-9.459697723388672,575.0335636138916
D4:22:CD:00:05:6B,36.56779861450195,2.283628463745117,-55.31319808959961,0.5955628156661987,-0.691906213760376,-8.088506698608398,575.0335636138916
D4:22:CD:00:49:AA,-152.17738342285156,-79.08052825927734,79.90010070800781,4.394448280334473,1.4669945240020752,-8.832695007324219,575.0335636138916
D4:22:CD:00:05:6E,-168.12548828125,-79.12478637695312,-36.777915954589844,-3.004243850708008,-3.6652584075927734,-7.4977874755859375,575.0335636138916
D4:22:CD:00:05:5E,-85.72930908203125,-38.88956832885742,-100.71261596679688,-6.153814315795898,-2.6086297035217285,-9.986337661743164,575.0335636138916
D4:22:CD:00:05:5D,165.7655029296875,-76.79502868652344,-80.39480590820312,5.2140607833862305,-3.2341647148132324,-7.99565315246582,575.067099571228
D4:22:CD:00:05:6B,48.69574737548828,3.092970609664917,-67.2059326171875,2.063084602355957,-6.633727073669434,-8.211082458496094,575.067099571228
D4:22:CD:00:49:AA,-154.9249725341797,-79.08633422851562,80.89273834228516,-0.8505071401596069,0.8985997438430786,-8.502031326293945,575.067099571228
D4:22:CD:00:05:6E,-152.6693115234375,-78.1235580444336,-42.89181900024414,-2.641117572784424,-6.837367057800293,-8.213085174560547,575.067099571228
D4:22:CD:00:05:5E,-88.84900665283203,-39.261104583740234,-110.51251983642578,-9.150079727172852,-3.1632261276245117,-9.617650985717773,575.067099571228
D4:22:CD:00:05:5D,157.1669921875,-81.9013900756836,-73.36820983886719,2.4068527221679688,9.011613845825195,-8.630430221557617,575.0936222076416
D4:22:CD:00:05:6B,59.06435012817383,6.146791458129883,-79.51123046875,-0.9447298049926758,-12.025331497192383,-7.585320472717285,575.0936222076416
D4:22:CD:00:49:AA,-146.73660278320312,-81.15158081054688,73.09442138671875,-4.089207649230957,-0.8311057090759277,-8.980241775512695,575.0936222076416
D4:22:CD:00:05:6E,-149.68515014648438,-78.64380645751953,-43.254180908203125,-1.4905736446380615,-6.717769622802734,-7.049554824829102,575.0936222076416
D4:22:CD:00:05:5E,-92.82627868652344,-41.28932571411133,-119.42668151855469,-13.224390029907227,-5.68618106842041,-8.682214736938477,575.0936222076416
D4:22:CD:00:05:5D,156.44827270507812,-82.43231964111328,-73.77604675292969,0.562389612197876,2.7793359756469727,1.323256492614746,575.1239900588989
D4:22:CD:00:05:6B,65.89985656738281,13.423371315002441,-91.3583984375,6.775708198547363,-7.010406494140625,-1.583608627319336,575.1239900588989
D4:22:CD:00:49:AA,-131.34393310546875,-82.16854858398438,59.6378173828125,-2.3035964965820312,-1.1743621826171875,-8.206733703613281,575.1239900588989
D4:22:CD:00:05:6E,-157.002197265625,-80.13680267333984,-37.5807991027832,-0.7248092889785767,-4.871372222900391,-2.8942270278930664,575.1239900588989
D4:22:CD:00:05:5E,-96.1266098022461,-45.13227844238281,-126.7440414428711,-15.831197738647461,-3.130953311920166,-5.104576110839844,575.1239900588989
D4:22:CD:00:05:5D,156.31558227539062,-80.98310852050781,-72.51215362548828,2.4088330268859863,-3.444009304046631,-1.7805614471435547,575.1834313869476
D4:22:CD:00:05:6B,55.60598373413086,22.9958438873291,-106.76312255859375,3.595881938934326,-18.82605743408203,-5.401104927062988,575.1834313869476
D4:22:CD:00:49:AA,-121.20215606689453,-82.07655334472656,52.10025405883789,0.2262275218963623,-1.7558846473693848,-1.6715192794799805,575.1834313869476
D4:22:CD:00:05:6E,-168.63087463378906,-81.30435180664062,-27.447994232177734,2.6564722061157227,-4.626747131347656,-0.20048904418945312,575.1834313869476
D4:22:CD:00:05:5E,-97.09558868408203,-49.880126953125,-131.33966064453125,-20.552608489990234,1.723595142364502,-11.828115463256836,575.1834313869476
D4:22:CD:00:05:5D,155.0558624267578,-78.11080932617188,-67.67054748535156,1.5641350746154785,-3.3314385414123535,2.4529457092285156,575.2136602401733
D4:22:CD:00:05:6B,23.38579559326172,27.769309997558594,-122.77572631835938,-4.245379447937012,-16.193748474121094,-29.098918914794922,575.2136602401733
D4:22:CD:00:49:AA,-126.49984741210938,-81.40376281738281,56.08861541748047,1.34714674949646,-0.2962004542350769,2.194697380065918,575.2136602401733
D4:22:CD:00:05:6E,-175.6548614501953,-82.4415054321289,-18.368619918823242,3.8464975357055664,-5.467408180236816,-1.17364501953125,575.2136602401733
D4:22:CD:00:05:5E,-105.43341827392578,-54.63508605957031,-127.14027404785156,-21.083988189697266,3.990478515625,-11.943012237548828,575.2136602401733
D4:22:CD:00:05:5D,150.2034149169922,-76.39646911621094,-59.703147888183594,0.4317300319671631,2.3680853843688965,2.9845705032348633,575.243658542633
D4:22:CD:00:05:6B,-28.727460861206055,26.54557991027832,-123.77516174316406,10.262683868408203,9.645246505737305,-23.956932067871094,575.243658542633
D4:22:CD:00:49:AA,-129.24298095703125,-80.9269790649414,55.48609924316406,-3.663787841796875,-3.0219883918762207,4.215629577636719,575.243658542633
D4:22:CD:00:05:6E,-177.11717224121094,-83.18252563476562,-13.24204158782959,2.1710023880004883,-7.03096866607666,-0.2930583953857422,575.243658542633
D4:22:CD:00:05:5E,-126.97883605957031,-57.064552307128906,-110.39305877685547,-20.232112884521484,2.7392992973327637,-8.597976684570312,575.243658542633
D4:22:CD:00:05:5D,142.13514709472656,-76.01953887939453,-49.97072219848633,-2.823073387145996,-2.0994105339050293,7.925153732299805,575.273277759552
D4:22:CD:00:05:6B,-63.866580963134766,31.4897403717041,-117.8331298828125,-20.26724624633789,-4.522364616394043,26.18405532836914,575.273277759552
D4:22:CD:00:49:AA,-129.67784118652344,-80.58846282958984,54.87961196899414,-5.732168197631836,-2.0440659523010254,4.864654541015625,575.273277759552
D4:22:CD:00:05:6E,-178.88084411621094,-82.3326187133789,-11.157440185546875,3.3685102462768555,-11.295415878295898,0.8131656646728516,575.273277759552
D4:22:CD:00:05:5E,-152.3188018798828,-53.354408264160156,-91.30155944824219,13.921186447143555,-16.95317840576172,10.483858108520508,575.273277759552
D4:22:CD:00:05:5D,131.3118438720703,-75.728759765625,-38.968379974365234,-1.5974328517913818,-0.9487195014953613,2.9031639099121094,575.3042135238647
D4:22:CD:00:05:6B,-46.805809020996094,28.464906692504883,-117.83157348632812,-13.117067337036133,10.41926383972168,-6.532506942749023,575.3042135238647
D4:22:CD:00:49:AA,-131.69223022460938,-79.68042755126953,56.264198303222656,-0.018431100994348526,0.31725960969924927,-0.20206832885742188,575.3042135238647
D4:22:CD:00:05:6E,165.8003692626953,-80.33724975585938,-4.174281597137451,2.552577018737793,-10.890871047973633,1.6532354354858398,575.3042135238647
D4:22:CD:00:05:5E,-154.53123474121094,-52.766578674316406,-81.77149200439453,0.7509685754776001,-13.413946151733398,-5.0005903244018555,575.3042135238647
D4:22:CD:00:05:5D,119.3500747680664,-75.03546905517578,-28.66975975036621,1.9720964431762695,-1.3971176147460938,1.6591072082519531,575.333512544632
D4:22:CD:00:05:6B,-31.316438674926758,26.911087036132812,-112.19734954833984,4.308952331542969,-4.574453353881836,-17.918601989746094,575.333512544632
D4:22:CD:00:49:AA,-140.54042053222656,-78.65619659423828,60.872283935546875,5.931887626647949,-2.914876937866211,-2.5235400199890137,575.333512544632
D4:22:CD:00:05:6E,137.54632568359375,-76.0928955078125,8.163328170776367,-0.8801082372665405,-4.40371036529541,1.9341697692871094,575.333512544632
D4:22:CD:00:05:5E,-166.8019561767578,-50.594322204589844,-71.31658172607422,11.146724700927734,-7.664152145385742,3.4074554443359375,575.333512544632
D4:22:CD:00:05:5D,109.02827453613281,-73.87435150146484,-21.257827758789062,3.0595483779907227,-1.732630968093872,1.839120864868164,575.3637607097626
D4:22:CD:00:05:6B,-29.69485855102539,26.631813049316406,-99.53690338134766,-9.72640609741211,-8.024442672729492,-12.031982421875,575.3637607097626
D4:22:CD:00:49:AA,-150.9388427734375,-77.55302429199219,65.60286712646484,5.348794937133789,-4.2596235275268555,0.41887855529785156,575.3637607097626
D4:22:CD:00:05:6E,113.31192779541016,-70.15571594238281,14.362076759338379,7.835379600524902,8.359375,-1.6340618133544922,575.3637607097626
D4:22:CD:00:05:5E,-176.78343200683594,-47.0193977355957,-66.6010971069336,4.037336349487305,-8.966262817382812,-0.42333412170410156,575.3637607097626
D4:22:CD:00:05:5D,95.12965393066406,-73.5311508178711,-14.38368034362793,6.342952728271484,4.007525444030762,-1.954050064086914,575.3940832614899
D4:22:CD:00:05:6B,-27.621374130249023,25.905736923217773,-84.91512298583984,-6.3863420486450195,-11.310247421264648,-6.856123924255371,575.3940832614899
D4:22:CD:00:49:AA,-154.63446044921875,-76.24279022216797,64.92493438720703,2.100468635559082,-1.5601530075073242,-1.3821640014648438,575.3940832614899
D4:22:CD:00:05:6E,95.24320983886719,-67.86914825439453,12.890071868896484,12.33686637878418,10.686372756958008,-8.021453857421875,575.3940832614899
D4:22:CD:00:05:5E,175.9578094482422,-43.29427719116211,-62.950645446777344,-2.024202823638916,-8.871334075927734,-0.030661582946777344,575.3940832614899
D4:22:CD:00:05:5D,97.19168090820312,-73.17572784423828,-27.304277420043945,11.738029479980469,27.63675308227539,0.6692323684692383,575.4491260051727
D4:22:CD:00:05:6B,-29.0169734954834,26.32289695739746,-71.6583023071289,-5.049806594848633,1.3562507629394531,3.1451187133789062,575.4491260051727
D4:22:CD:00:49:AA,-154.6675567626953,-74.81305694580078,62.39384841918945,-0.17487943172454834,-1.0965681076049805,-0.6894512176513672,575.4491260051727
D4:22:CD:00:05:6E,94.34466552734375,-68.80440521240234,9.912483215332031,9.247098922729492,4.033273696899414,-6.255166053771973,575.4491260051727
D4:22:CD:00:05:5E,174.10006713867188,-39.77156448364258,-61.516876220703125,4.117093086242676,-2.92649507522583,-0.3905925750732422,575.4491260051727
D4:22:CD:00:05:5D,118.95116424560547,-67.65901947021484,-58.83617401123047,18.673446655273438,17.110374450683594,6.696989059448242,575.4837868213654
D4:22:CD:00:05:6B,-29.218856811523438,27.189332962036133,-59.341094970703125,-5.528542518615723,14.117019653320312,3.125452995300293,575.4837868213654
D4:22:CD:00:49:AA,-151.60337829589844,-75.02350616455078,59.321533203125,1.4535188674926758,3.7526941299438477,-3.6528782844543457,575.4837868213654
D4:22:CD:00:05:6E,103.8511962890625,-71.37386322021484,12.76718807220459,-3.6132593154907227,12.976844787597656,-0.21684741973876953,575.4837868213654
D4:22:CD:00:05:5E,173.11941528320312,-36.3760871887207,-61.05127716064453,2.373739719390869,-4.564929008483887,0.02096080780029297,575.4837868213654
D4:22:CD:00:05:5D,134.66915893554688,-56.443260192871094,-81.51383972167969,10.58914566040039,4.9840850830078125,3.737110137939453,575.5137851238251
D4:22:CD:00:05:6B,-30.317602157592773,26.337844848632812,-44.60737228393555,-7.511731147766113,13.193887710571289,2.5942506790161133,575.5137851238251
D4:22:CD:00:49:AA,-149.3662872314453,-74.97647857666016,57.25638961791992,4.629556655883789,2.688930034637451,-0.6379203796386719,575.5137851238251
D4:22:CD:00:05:6E,106.62480926513672,-73.55487060546875,17.28790855407715,-11.434379577636719,8.799249649047852,4.410865783691406,575.5137851238251
D4:22:CD:00:05:5E,172.47244262695312,-33.82973098754883,-60.848934173583984,2.429351329803467,-4.219367027282715,0.2311077117919922,575.5137851238251
D4:22:CD:00:05:5D,142.61395263671875,-43.16360855102539,-96.29936218261719,3.5450072288513184,-3.2956714630126953,-3.8776893615722656,575.5733098983765
D4:22:CD:00:05:6B,-31.670419692993164,22.704675674438477,-27.51582145690918,2.63992977142334,13.103153228759766,-3.4837331771850586,575.5733098983765
D4:22:CD:00:49:AA,-148.24655151367188,-74.40245819091797,55.60447692871094,7.122135162353516,-0.23755359649658203,5.452700614929199,575.5733098983765
D4:22:CD:00:05:6E,104.7625961303711,-73.72774505615234,20.303691864013672,-3.3693251609802246,4.035333633422852,4.864443778991699,575.5733098983765
D4:22:CD:00:05:5E,171.90919494628906,-32.34099197387695,-60.488285064697266,2.4050159454345703,-4.104581832885742,0.14451885223388672,575.5733098983765
D4:22:CD:00:05:5D,149.67970275878906,-29.993385314941406,-105.38721466064453,-1.980959177017212,-3.6846518516540527,-8.988323211669922,575.5793175697327
D4:22:CD:00:05:6B,-41.235530853271484,16.65516471862793,-13.247367858886719,3.3886804580688477,17.186813354492188,-9.079092025756836,575.5793175697327
D4:22:CD:00:49:AA,-147.6287384033203,-74.66172790527344,54.732540130615234,6.429632186889648,1.6983885765075684,5.5932817459106445,575.5793175697327
D4:22:CD:00:05:6E,102.35096740722656,-73.04847717285156,25.67723846435547,3.0003275871276855,0.28592175245285034,5.478208541870117,575.5793175697327
D4:22:CD:00:05:5E,170.99929809570312,-31.80774688720703,-59.724273681640625,2.284731388092041,-3.9643330574035645,0.4487018585205078,575.5793175697327
D4:22:CD:00:05:5D,159.14501953125,-18.811935424804688,-111.40042114257812,-2.8817949295043945,-2.385039806365967,-7.245880126953125,575.6033217906952
D4:22:CD:00:05:6B,-50.685306549072266,8.901806831359863,-4.053455829620361,6.080533981323242,-0.1672074794769287,10.513484954833984,575.6033217906952
D4:22:CD:00:49:AA,-148.28170776367188,-74.9391098022461,54.124778747558594,5.280063629150391,1.6563575267791748,2.7586917877197266,575.6033217906952
D4:22:CD:00:05:6E,99.0413818359375,-72.7749252319336,33.96744155883789,3.4825263023376465,0.31998246908187866,3.0844669342041016,575.6033217906952
D4:22:CD:00:05:5E,169.88412475585938,-32.26557922363281,-58.80408477783203,2.1314444541931152,-4.152194023132324,0.2834157943725586,575.6033217906952
D4:22:CD:00:05:5D,167.04685974121094,-12.93936538696289,-116.01837158203125,-15.198432922363281,-4.945481300354004,-5.302231788635254,575.6433086395264
D4:22:CD:00:05:6B,-47.0196533203125,0.7964152097702026,1.6546876430511475,-0.4373626708984375,3.2890686988830566,2.492955207824707,575.6433086395264
D4:22:CD:00:49:AA,-148.10008239746094,-74.80133056640625,52.93950271606445,3.714057445526123,1.2584679126739502,2.2923831939697266,575.6433086395264
D4:22:CD:00:05:6E,97.13447570800781,-72.290283203125,41.962379455566406,2.349384307861328,0.32901531457901,1.671004295349121,575.6433086395264
D4:22:CD:00:05:5E,168.23928833007812,-33.0289192199707,-58.09843826293945,5.280344009399414,-3.879190444946289,-0.6847639083862305,575.6433086395264
D4:22:CD:00:05:5D,169.09091186523438,-12.83577823638916,-119.0977783203125,-9.74282455444336,-9.730672836303711,-10.096977233886719,575.6633212566376
D4:22:CD:00:05:6B,-46.3192253112793,-9.094640731811523,5.240019798278809,-0.7299323081970215,8.0404052734375,-10.907087326049805,575.6633212566376
D4:22:CD:00:49:AA,-146.6301727294922,-74.90680694580078,51.29743194580078,2.5423665046691895,0.3192064166069031,0.06659317016601562,575.6633212566376
D4:22:CD:00:05:6E,98.41236877441406,-71.41262817382812,47.315895080566406,0.21339017152786255,0.8034473657608032,-0.4192838668823242,575.6633212566376
D4:22:CD:00:05:5E,165.36605834960938,-33.356658935546875,-58.84682083129883,7.100841522216797,-4.723227500915527,-0.982182502746582,575.6633212566376
D4:22:CD:00:05:5D,170.09722900390625,-17.38920783996582,-120.98150634765625,-11.16346549987793,-7.892460823059082,-8.51163101196289,575.6938490867615
D4:22:CD:00:05:6B,-55.19496536254883,-23.169727325439453,5.108358383178711,11.529151916503906,2.1236062049865723,-7.702231407165527,575.6938490867615
D4:22:CD:00:49:AA,-148.09483337402344,-75.54486083984375,52.32002639770508,3.545304298400879,-1.5666553974151611,-2.627534866333008,575.6938490867615
D4:22:CD:00:05:6E,103.94860076904297,-70.83319854736328,47.28899002075195,-1.494361400604248,-4.4253082275390625,-0.33690547943115234,575.6938490867615
D4:22:CD:00:05:5E,162.93255615234375,-35.8736686706543,-60.40888595581055,-0.11029738187789917,-9.644767761230469,-4.4969329833984375,575.6938490867615
D4:22:CD:00:05:5D,168.40098571777344,-23.2490177154541,-121.96463775634766,-8.425796508789062,9.340606689453125,33.189430236816406,575.7485902309418
D4:22:CD:00:05:6B,-52.39324951171875,-41.27292251586914,-2.5778820514678955,13.16793441772461,-5.383482933044434,12.87333869934082,575.7485902309418
D4:22:CD:00:49:AA,-153.60301208496094,-76.11062622070312,56.50236892700195,1.3742823600769043,-0.9627541303634644,-3.2555642127990723,575.7485902309418
D4:22:CD:00:05:6E,103.7745590209961,-70.73558807373047,48.3260612487793,-1.2886302471160889,-5.875515937805176,-2.3818507194519043,575.7485902309418
D4:22:CD:00:05:5E,164.92181396484375,-36.00902557373047,-62.62209701538086,-2.2225303649902344,-6.651083946228027,0.07211112976074219,575.7485902309418
D4:22:CD:00:05:5D,169.4759521484375,-25.09843635559082,-119.9474105834961,0.9163615703582764,-12.832235336303711,-11.036275863647461,575.7787137031555
D4:22:CD:00:05:6B,-26.665878295898438,-57.420738220214844,-21.77741241455078,29.21750259399414,2.756167411804199,35.18937683105469,575.7787137031555
D4:22:CD:00:49:AA,-157.02685546875,-76.42845916748047,58.75273513793945,-5.246492385864258,-1.2848310470581055,-6.828832626342773,575.7787137031555
D4:22:CD:00:05:6E,95.91942596435547,-69.23375701904297,51.84748077392578,-1.4691479206085205,-4.861459732055664,-1.0842103958129883,575.7787137031555
D4:22:CD:00:05:5E,166.82968139648438,-34.8438606262207,-64.70590209960938,-4.976137161254883,1.4511263370513916,-6.415136337280273,575.7787137031555
D4:22:CD:00:05:5D,176.57452392578125,-25.800437927246094,-117.82743072509766,-2.8059768676757812,-10.69198989868164,-0.8562040328979492,575.8137142658234
D4:22:CD:00:05:6B,-23.006935119628906,-58.00226593017578,-24.86908721923828,11.495311737060547,6.697100639343262,-2.9677481651306152,575.8137142658234
D4:22:CD:00:49:AA,-160.6605224609375,-76.80242919921875,63.28676986694336,-1.2376630306243896,2.6304850578308105,-3.5701308250427246,575.8137142658234
D4:22:CD:00:05:6E,86.99325561523438,-62.73463439941406,54.84956741333008,1.3772339820861816,-2.4581899642944336,2.9508056640625,575.8137142658234
D4:22:CD:00:05:5E,166.88673400878906,-34.36320877075195,-65.16222381591797,0.7853630781173706,5.731569290161133,-5.833203315734863,575.8137142658234
D4:22:CD:00:05:5D,178.1766357421875,-25.906023025512695,-116.54935455322266,-6.00327205657959,-7.8410139083862305,-0.6201515197753906,575.8437120914459
D4:22:CD:00:05:6B,-40.67754364013672,-50.55674743652344,-10.928234100341797,18.0047607421875,-4.784026145935059,-0.6367921829223633,575.8437120914459
D4:22:CD:00:49:AA,-160.4787139892578,-77.43711853027344,62.66018295288086,3.513688564300537,3.306021213531494,-0.5291156768798828,575.8437120914459
D4:22:CD:00:05:6E,81.73191833496094,-50.301143646240234,57.00006866455078,8.80926513671875,1.3585755825042725,11.79835319519043,575.8437120914459
D4:22:CD:00:05:5E,164.99441528320312,-34.22959899902344,-65.12696838378906,2.6216983795166016,-10.666986465454102,3.1686716079711914,575.8437120914459
D4:22:CD:00:05:5D,175.35276794433594,-24.442134857177734,-115.91193389892578,-6.401772499084473,-15.258134841918945,3.875833511352539,575.8742318153381
D4:22:CD:00:05:6B,-52.392578125,-39.00632858276367,-3.9320614337921143,9.33591079711914,-9.021278381347656,10.10853385925293,575.8742318153381
D4:22:CD:00:49:AA,-160.00900268554688,-76.7343978881836,62.0075798034668,-1.1212773323059082,-2.0620551109313965,-0.9021244049072266,575.8742318153381
D4:22:CD:00:05:6E,84.02833557128906,-33.23637771606445,60.45444107055664,10.329212188720703,0.7772841453552246,18.035099029541016,575.8742318153381
D4:22:CD:00:05:5E,163.98851013183594,-32.846641540527344,-66.42294311523438,-0.6608211994171143,-7.230676651000977,-2.2987232208251953,575.8742318153381
D4:22:CD:00:05:5D,173.83819580078125,-21.215137481689453,-114.64207458496094,-14.01894760131836,-19.790088653564453,6.905477523803711,575.9033126831055
D4:22:CD:00:05:6B,-51.648033142089844,-28.964691162109375,-4.72473669052124,13.63406753540039,-1.8998432159423828,-6.635089874267578,575.9033126831055
D4:22:CD:00:49:AA,-162.51451110839844,-75.96451568603516,64.95902252197266,3.75352144241333,0.13936790823936462,6.409603118896484,575.9033126831055
D4:22:CD:00:05:6E,97.22920227050781,-14.384359359741211,66.42074584960938,12.952140808105469,-1.1983439922332764,8.543928146362305,575.9033126831055
D4:22:CD:00:05:5E,162.8607177734375,-31.01877212524414,-67.71651458740234,0.4112611413002014,-6.471329689025879,0.1480855941772461,575.9033126831055
D4:22:CD:00:05:5D,172.1299285888672,-18.564409255981445,-112.42119598388672,-3.7605671882629395,-14.262140274047852,3.3073434829711914,575.9336924552917
D4:22:CD:00:05:6B,-57.74424362182617,-22.049396514892578,-9.406488418579102,5.55931282043457,-7.6101837158203125,-7.566943168640137,575.9336924552917
D4:22:CD:00:49:AA,-163.80685424804688,-76.22405242919922,65.26870727539062,6.776726722717285,0.9703191518783569,5.341949462890625,575.9336924552917
D4:22:CD:00:05:6E,107.69977569580078,7.2013750076293945,74.4781723022461,12.925708770751953,-0.8968081474304199,27.106731414794922,575.9336924552917
D4:22:CD:00:05:5E,161.95306396484375,-29.71603012084961,-68.91807556152344,2.427018642425537,-5.115604400634766,0.39829063415527344,575.9336924552917
D4:22:CD:00:05:5D,171.2666473388672,-14.465652465820312,-112.20863342285156,-8.058616638183594,-7.870038032531738,10.324853897094727,575.9638319015503
D4:22:CD:00:05:6B,-66.83421325683594,-21.638465881347656,-16.779560089111328,-2.7285866737365723,-7.184630393981934,0.6245431900024414,575.9638319015503
D4:22:CD:00:49:AA,-167.94793701171875,-76.26697540283203,67.50234985351562,3.9143810272216797,2.7365846633911133,4.04661750793457,575.9638319015503
D4:22:CD:00:05:6E,108.78746032714844,29.08700942993164,81.1322250366211,8.253423690795898,12.338085174560547,11.77219009399414,575.9638319015503
D4:22:CD:00:05:5E,160.76885986328125,-30.050609588623047,-68.53990936279297,3.8567962646484375,-4.225749969482422,1.2928581237792969,575.9638319015503
D4:22:CD:00:05:5D,167.2221221923828,-13.478517532348633,-113.3250732421875,-5.003809928894043,1.464125633239746,3.6942529678344727,575.9934303760529
D4:22:CD:00:05:6B,-70.63616180419922,-28.899497985839844,-25.4649658203125,-3.3075790405273438,1.1075730323791504,5.512967109680176,575.9934303760529
D4:22:CD:00:49:AA,-174.366943359375,-75.20618438720703,72.67171478271484,4.338078498840332,2.669015884399414,9.414813995361328,575.9934303760529
D4:22:CD:00:05:6E,106.86300659179688,48.94476318359375,83.54354858398438,-9.913597106933594,18.736705780029297,9.4400634765625,575.9934303760529
D4:22:CD:00:05:5E,159.1506805419922,-32.621150970458984,-67.08465576171875,2.4917287826538086,-4.011463165283203,2.263683319091797,575.9934303760529
D4:22:CD:00:05:5D,164.75343322753906,-15.861980438232422,-114.85702514648438,-0.8383764028549194,4.56473445892334,-5.014098167419434,576.0483584403992
D4:22:CD:00:05:6B,-73.50193786621094,-40.85892105102539,-33.409420013427734,-0.8318097591400146,3.960453510284424,7.7095794677734375,576.0483584403992
D4:22:CD:00:49:AA,178.84327697753906,-74.34086608886719,78.71915435791016,3.8189263343811035,1.3896524906158447,8.399374008178711,576.0483584403992
D4:22:CD:00:05:6E,93.80730438232422,64.911865234375,76.99189758300781,-15.939855575561523,11.553651809692383,-2.13608455657959,576.0483584403992
D4:22:CD:00:05:5E,157.6342315673828,-40.37000274658203,-62.52806091308594,2.186110019683838,-10.409164428710938,-4.55842399597168,576.0483584403992
D4:22:CD:00:05:5D,164.60797119140625,-21.719266891479492,-116.0772933959961,-1.2484550476074219,4.127314567565918,-13.673524856567383,576.0790133476257
D4:22:CD:00:05:6B,-78.36551666259766,-55.11629104614258,-39.89570236206055,-2.815329074859619,3.1958227157592773,6.742887496948242,576.0790133476257
D4:22:CD:00:49:AA,170.86756896972656,-73.67269134521484,85.88306427001953,2.863802909851074,1.2080276012420654,2.577181816101074,576.0790133476257
D4:22:CD:00:05:6E,72.89668273925781,74.38410949707031,58.40856170654297,-4.1142120361328125,-17.22182846069336,-11.31170654296875,576.0790133476257
D4:22:CD:00:05:5E,157.86004638671875,-46.50870895385742,-58.01628875732422,-1.062760353088379,-0.922423243522644,4.633048057556152,576.0790133476257
D4:22:CD:00:05:5D,164.7158660888672,-30.998960494995117,-116.52107238769531,-5.065716743469238,-2.9334468841552734,-18.314655303955078,576.1140162944794
D4:22:CD:00:05:6B,-84.21644592285156,-70.51728057861328,-42.91481399536133,-3.1895408630371094,3.658749580383301,3.1938533782958984,576.1140162944794
D4:22:CD:00:49:AA,160.70944213867188,-73.3869857788086,94.90968322753906,0.951581597328186,0.8641633987426758,-5.709267616271973,576.1140162944794
D4:22:CD:00:05:6E,58.171260833740234,79.50865173339844,39.91995620727539,6.177020072937012,11.391300201416016,-4.480591773986816,576.1140162944794
D4:22:CD:00:05:5E,154.5589141845703,-49.80434799194336,-54.65613555908203,-3.4500250816345215,8.14314079284668,4.860805511474609,576.1140162944794
D4:22:CD:00:05:5D,163.21817016601562,-43.02336883544922,-117.0306625366211,-6.608346939086914,-3.0706872940063477,-16.556114196777344,576.1436014175415
D4:22:CD:00:05:6B,-96.75358581542969,-82.3827133178711,-39.24794387817383,-4.4177141189575195,16.80776596069336,-1.3377389907836914,576.1436014175415
D4:22:CD:00:49:AA,155.69979858398438,-73.2144546508789,97.91506958007812,-0.9843617677688599,1.0765533447265625,-12.10959243774414,576.1436014175415
D4:22:CD:00:05:6E,37.93673324584961,84.26154327392578,29.813867568969727,-2.2407546043395996,-7.162079811096191,-10.11236572265625,576.1436014175415
D4:22:CD:00:05:5E,157.15606689453125,-47.579830169677734,-53.451168060302734,2.5215821266174316,2.051575183868408,-1.9178962707519531,576.1436014175415
D4:22:CD:00:05:5D,158.95765686035156,-58.48046875,-117.25843811035156,-6.070067405700684,-2.01456880569458,-7.053301811218262,576.1737868785858
D4:22:CD:00:05:6B,171.00144958496094,-88.5713882446289,44.487632751464844,-0.8697612285614014,9.813465118408203,-12.038005828857422,576.1737868785858
D4:22:CD:00:49:AA,153.84530639648438,-73.6534652709961,97.91156005859375,-0.8536007404327393,-2.1720385551452637,-8.45496940612793,576.1737868785858
D4:22:CD:00:05:6E,98.22777557373047,86.96578216552734,93.1358871459961,-0.246913343667984,-5.61018180847168,-11.691633224487305,576.1737868785858
D4:22:CD:00:05:5E,162.4464569091797,-45.54631423950195,-55.286590576171875,1.750809907913208,-15.852628707885742,-15.326841354370117,576.1737868785858
D4:22:CD:00:05:5D,153.52488708496094,-76.6353988647461,-116.08977508544922,-3.1598916053771973,-3.9884819984436035,4.641727447509766,576.2036743164062
D4:22:CD:00:05:6B,107.00191497802734,-82.2702865600586,107.22281646728516,-1.383770227432251,7.469234466552734,-15.917987823486328,576.2036743164062
D4:22:CD:00:49:AA,147.7509307861328,-74.93001556396484,103.30374145507812,1.1120178699493408,-1.3014953136444092,-7.953265190124512,576.2036743164062
D4:22:CD:00:05:6E,147.062255859375,79.05418395996094,142.35333251953125,-2.990233898162842,8.253166198730469,-15.961219787597656,576.2036743164062
D4:22:CD:00:05:5E,161.00340270996094,-46.68363952636719,-54.60077667236328,2.677896022796631,-3.223482131958008,-7.039328575134277,576.2036743164062
D4:22:CD:00:05:5D,-14.213556289672852,-83.63256072998047,52.751121520996094,8.377996444702148,5.3294677734375,24.678237915039062,576.233683347702
D4:22:CD:00:05:6B,113.19956970214844,-73.94165802001953,107.29645538330078,-1.2132892608642578,7.776576995849609,-9.218315124511719,576.233683347702
D4:22:CD:00:49:AA,142.20065307617188,-75.20221710205078,107.77936553955078,2.2456283569335938,1.2457191944122314,-6.179788589477539,576.233683347702
D4:22:CD:00:05:6E,139.86483764648438,64.88736724853516,143.68531799316406,-16.356914520263672,12.347381591796875,-27.144752502441406,576.233683347702
D4:22:CD:00:05:5E,158.85031127929688,-46.88829803466797,-55.742889404296875,0.49950921535491943,-3.682857036590576,-3.9742612838745117,576.233683347702
D4:22:CD:00:05:5D,-3.37090802192688,-69.4845962524414,51.45798873901367,17.62120819091797,30.286991119384766,-3.4137659072875977,576.2636857032776
D4:22:CD:00:05:6B,118.77369689941406,-65.85523986816406,109.14285278320312,-0.744452714920044,8.943683624267578,-1.5584640502929688,576.2636857032776
D4:22:CD:00:49:AA,139.31898498535156,-75.57011413574219,109.67741394042969,-1.9464976787567139,0.7785338163375854,0.4528312683105469,576.2636857032776
D4:22:CD:00:05:6E,133.451171875,54.86208724975586,142.4298553466797,-8.106592178344727,-5.031461715698242,-16.687976837158203,576.2636857032776
D4:22:CD:00:05:5E,156.14991760253906,-45.91523742675781,-58.11323928833008,1.661050796508789,-11.73377799987793,1.5773200988769531,576.2636857032776
D4:22:CD:00:05:5D,2.1396920680999756,-68.70166015625,47.43688201904297,16.30157470703125,22.323314666748047,-14.033136367797852,576.2938642501831
D4:22:CD:00:05:6B,117.80831909179688,-59.72752380371094,111.22455596923828,-0.869217038154602,3.6837563514709473,3.63112735748291,576.2938642501831
D4:22:CD:00:49:AA,140.55096435546875,-77.30339050292969,109.99299621582031,4.657910346984863,-1.1940393447875977,1.1733779907226562,576.2938642501831
D4:22:CD:00:05:6E,149.60757446289062,58.27464294433594,144.45208740234375,3.960310459136963,0.4025110602378845,1.7881412506103516,576.2938642501831
D4:22:CD:00:05:5E,155.6140899658203,-44.30834197998047,-62.27482986450195,5.946730613708496,-4.423855781555176,-1.374795913696289,576.2938642501831
D4:22:CD:00:05:5D,19.371129989624023,-75.48358917236328,31.20067024230957,14.437675476074219,5.831025123596191,-1.0786056518554688,576.3238608837128
D4:22:CD:00:05:6B,109.96641540527344,-57.784603118896484,108.70577239990234,-2.4863553047180176,11.9033203125,2.1998138427734375,576.3238608837128
D4:22:CD:00:49:AA,143.30020141601562,-78.22898864746094,107.12688446044922,10.736272811889648,-1.3140442371368408,9.322772979736328,576.3238608837128
D4:22:CD:00:05:6E,142.16482543945312,67.1720962524414,137.84925842285156,-0.5098884105682373,1.6814475059509277,-9.151582717895508,576.3238608837128
D4:22:CD:00:05:5E,156.74935913085938,-44.16041946411133,-67.12999725341797,1.1220881938934326,-6.183224678039551,1.0981903076171875,576.3238608837128
D4:22:CD:00:05:5D,68.3200912475586,-80.9422607421875,-9.450461387634277,2.5826215744018555,-17.51937484741211,10.571744918823242,576.3787596225739
D4:22:CD:00:05:6B,107.63231658935547,-59.98626708984375,105.60584259033203,1.6648263931274414,18.7606201171875,1.9980831146240234,576.3787596225739
D4:22:CD:00:49:AA,144.25344848632812,-78.67100524902344,107.398193359375,-1.0458717346191406,0.4445284605026245,-1.7910881042480469,576.3787596225739
D4:22:CD:00:05:6E,121.74238586425781,78.4697036743164,114.90726470947266,-2.2903246879577637,1.6436128616333008,-14.23001480102539,576.3787596225739
D4:22:CD:00:05:5E,159.08290100097656,-45.51652908325195,-70.81319427490234,-1.378507137298584,-6.699588775634766,1.7691402435302734,576.3787596225739
D4:22:CD:00:05:5D,92.64158630371094,-82.22115325927734,-32.92741775512695,-2.522583484649658,-13.99009895324707,-2.3208179473876953,576.4137599468231
D4:22:CD:00:05:6B,116.07123565673828,-64.89522552490234,103.66439819335938,2.2865967750549316,4.757281303405762,4.718377113342285,576.4137599468231
D4:22:CD:00:49:AA,146.8736572265625,-77.87859344482422,107.26295471191406,-1.8673462867736816,1.2597754001617432,0.33338356018066406,576.4137599468231
D4:22:CD:00:05:6E,47.2047004699707,79.72357940673828,32.72172164916992,-5.738368988037109,8.066070556640625,-10.871082305908203,576.4137599468231
D4:22:CD:00:05:5E,162.74876403808594,-48.44403076171875,-73.0469970703125,-0.3638508915901184,-11.076332092285156,1.394902229309082,576.4137599468231
D4:22:CD:00:05:5D,116.43843078613281,-83.88365173339844,-56.582725524902344,1.792999267578125,1.2554352283477783,2.329220771789551,576.4438583850861
D4:22:CD:00:05:6B,123.44013977050781,-69.46407318115234,102.37939453125,3.7222251892089844,-2.748391628265381,2.341602325439453,576.4438583850861
D4:22:CD:00:49:AA,149.50584411621094,-76.70855712890625,106.47329711914062,-0.7209498882293701,-1.4235339164733887,-1.0082616806030273,576.4438583850861
D4:22:CD:00:05:6E,24.117155075073242,66.76428985595703,3.681281089782715,-8.05134391784668,2.9162044525146484,-8.72618293762207,576.4438583850861
D4:22:CD:00:05:5E,169.9043426513672,-51.539058685302734,-76.47393035888672,-6.825142860412598,-5.223421096801758,-3.9841270446777344,576.4438583850861
D4:22:CD:00:05:5D,141.75538635253906,-83.63028717041016,-80.92745208740234,-2.0212655067443848,-5.61390495300293,6.832118988037109,576.474068403244
D4:22:CD:00:05:6B,125.03507995605469,-72.4068832397461,101.57902526855469,3.120944023132324,-2.030949115753174,1.5576705932617188,576.474068403244
D4:22:CD:00:49:AA,155.38577270507812,-74.91035461425781,104.78519439697266,-3.215029716491699,-4.323993682861328,-0.47754955291748047,576.474068403244
D4:22:CD:00:05:6E,20.827259063720703,51.11968231201172,-4.025557994842529,-3.886683464050293,-3.6525630950927734,-10.432046890258789,576.474068403244
D4:22:CD:00:05:5E,-173.91006469726562,-51.9926643371582,-80.49211883544922,-7.355968475341797,-0.9495155811309814,6.092341423034668,576.474068403244
D4:22:CD:00:05:5D,161.62167358398438,-81.47727966308594,-98.32865905761719,-2.341733932495117,3.9470133781433105,0.8498916625976562,576.5033135414124
D4:22:CD:00:05:6B,125.20710754394531,-74.731201171875,100.8701400756836,0.19795066118240356,-1.1721563339233398,0.2959632873535156,576.5033135414124
D4:22:CD:00:49:AA,159.70753479003906,-72.6436767578125,104.8538818359375,-4.710057258605957,1.6189284324645996,1.5862998962402344,576.5033135414124
D4:22:CD:00:05:6E,24.653867721557617,36.05540466308594,-10.630683898925781,2.3430819511413574,-1.8722710609436035,-4.342311859130859,576.5033135414124
D4:22:CD:00:05:5E,-157.98667907714844,-47.76951217651367,-81.54725646972656,-21.434276580810547,3.8052186965942383,13.39427375793457,576.5033135414124
D4:22:CD:00:05:5D,171.93310546875,-79.08938598632812,-106.87077331542969,1.0038361549377441,0.3587822914123535,0.5491247177124023,576.534473657608
D4:22:CD:00:05:6B,130.08926391601562,-77.44017028808594,98.57152557373047,-3.1482462882995605,-3.2030467987060547,-0.3087797164916992,576.534473657608
D4:22:CD:00:49:AA,158.90855407714844,-71.98810577392578,108.25607299804688,-2.083859443664551,2.740875244140625,-0.9681072235107422,576.534473657608
D4:22:CD:00:05:6E,26.368005752563477,23.861862182617188,-18.87360191345215,10.962289810180664,-8.45865249633789,7.349275588989258,576.534473657608
D4:22:CD:00:05:5E,-155.84844970703125,-37.67276382446289,-78.1371841430664,-14.724630355834961,-3.2238707542419434,8.873523712158203,576.534473657608
D4:22:CD:00:05:5D,178.09332275390625,-77.04161834716797,-111.09525299072266,1.809772253036499,-0.08635032176971436,0.4106864929199219,576.56360912323
D4:22:CD:00:05:6B,137.8857421875,-80.5572738647461,93.36487579345703,-3.278865337371826,-5.143223762512207,1.5774297714233398,576.56360912323
D4:22:CD:00:49:AA,157.1800079345703,-71.61328125,111.26163482666016,0.5476592779159546,1.0217130184173584,2.279390335083008,576.56360912323
D4:22:CD:00:05:6E,37.33865737915039,18.24226951599121,-22.390260696411133,-8.045660018920898,-23.751461029052734,0.6445093154907227,576.56360912323
D4:22:CD:00:05:5E,-158.36502075195312,-27.017791748046875,-72.12342071533203,-5.841122627258301,-5.549745559692383,-2.9490323066711426,576.56360912323
D4:22:CD:00:05:5D,-178.23709106445312,-75.5613021850586,-112.38461303710938,0.49287915229797363,1.362696647644043,1.2881393432617188,576.593679189682
D4:22:CD:00:05:6B,144.810302734375,-83.23992919921875,84.72879028320312,-4.376810073852539,-2.4072084426879883,2.072115898132324,576.593679189682
D4:22:CD:00:49:AA,155.7442169189453,-71.3333740234375,114.24835968017578,-2.911929130554199,3.179131507873535,3.7551259994506836,576.593679189682
D4:22:CD:00:05:6E,56.79435729980469,15.128018379211426,-18.584712982177734,2.5343151092529297,2.9510626792907715,3.1042890548706055,576.593679189682
D4:22:CD:00:05:5E,-161.2412872314453,-18.275434494018555,-65.48250579833984,-1.2048468589782715,-3.305251121520996,-7.956144332885742,576.593679189682
D4:22:CD:00:05:5D,-175.06675720214844,-75.36289978027344,-114.04993438720703,-0.465532124042511,1.1465868949890137,1.274566650390625,576.6488273143768
D4:22:CD:00:05:6B,149.66995239257812,-85.306396484375,76.82320404052734,-5.270687103271484,2.427553176879883,1.1855392456054688,576.6488273143768
D4:22:CD:00:49:AA,153.8011932373047,-71.28369903564453,117.89788818359375,-4.970656394958496,2.579679489135742,2.979905128479004,576.6488273143768
D4:22:CD:00:05:6E,63.321292877197266,9.934122085571289,-11.355024337768555,0.41541045904159546,5.492208480834961,1.6932554244995117,576.6488273143768
D4:22:CD:00:05:5E,-164.5064239501953,-12.563607215881348,-58.56874465942383,0.612842321395874,-2.402324676513672,-9.51235580444336,576.6488273143768
D4:22:CD:00:05:5D,-170.77671813964844,-75.973388671875,-117.59685516357422,-0.9252077341079712,0.22923913598060608,0.3643321990966797,576.67857837677
D4:22:CD:00:05:6B,163.42288208007812,-87.5157241821289,61.43058395385742,-3.0536484718322754,2.179478168487549,0.43108177185058594,576.67857837677
D4:22:CD:00:49:AA,150.47007751464844,-71.92530822753906,122.86439514160156,-2.425210952758789,0.8136692047119141,-0.13048934936523438,576.67857837677
D4:22:CD:00:05:6E,59.589698791503906,0.5447668433189392,-2.5010480880737305,0.7246259450912476,2.2808027267456055,-3.5821123123168945,576.67857837677
D4:22:CD:00:05:5E,-167.94998168945312,-10.33127212524414,-51.16219711303711,3.809006690979004,-3.6537327766418457,-8.99534797668457,576.67857837677
D4:22:CD:00:05:5D,-166.8155059814453,-76.20763397216797,-120.7071762084961,-0.4108181595802307,-1.091686725616455,-0.33936595916748047,576.7137491703033
D4:22:CD:00:05:6B,-104.42911529541016,-87.89197540283203,-32.44463348388672,-2.800309658050537,2.1884284019470215,-0.46461963653564453,576.7137491703033
D4:22:CD:00:49:AA,146.26248168945312,-72.8114242553711,128.35699462890625,1.3203294277191162,0.2886374592781067,-2.8140316009521484,576.7137491703033
D4:22:CD:00:05:6E,52.25011444091797,-13.504010200500488,8.419682502746582,11.584297180175781,-0.2521771192550659,-2.8856821060180664,576.7137491703033
D4:22:CD:00:05:5E,-171.1158905029297,-11.825580596923828,-43.41395568847656,7.997524261474609,-4.954099655151367,-7.263323783874512,576.7137491703033
D4:22:CD:00:05:5D,-166.13856506347656,-75.44451904296875,-120.81784057617188,-0.650969386100769,-2.0765223503112793,-0.9841241836547852,576.7441937923431
D4:22:CD:00:05:6B,-76.73199462890625,-83.75144958496094,-61.59051513671875,-2.365849494934082,4.952503204345703,-1.0668659210205078,576.7441937923431
D4:22:CD:00:49:AA,142.12948608398438,-73.30855560302734,133.1321563720703,1.3444583415985107,-0.21129700541496277,-4.305985450744629,576.7441937923431
D4:22:CD:00:05:6E,44.84219741821289,-30.51676368713379,24.14040184020996,30.635631561279297,10.43814468383789,11.684106826782227,576.7441937923431
D4:22:CD:00:05:5E,-174.88995361328125,-15.765685081481934,-36.36785888671875,17.14871597290039,-6.67198371887207,-12.482221603393555,576.7441937923431
D4:22:CD:00:05:5D,-172.5308837890625,-72.63548278808594,-114.11190795898438,-1.8894801139831543,-4.614469528198242,-0.7440185546875,576.7741007804871
D4:22:CD:00:05:6B,-69.66201782226562,-78.35711669921875,-68.38407135009766,-0.597661018371582,5.1835832595825195,-2.130819320678711,576.7741007804871
D4:22:CD:00:49:AA,137.72264099121094,-73.42021942138672,137.26268005371094,1.018092155456543,-1.3876292705535889,-7.789790153503418,576.7741007804871
D4:22:CD:00:05:6E,40.116825103759766,-40.80243682861328,37.59719467163086,0.8929556608200073,21.188278198242188,24.58517837524414,576.7741007804871
D4:22:CD:00:05:5E,-176.1574249267578,-20.665437698364258,-32.95269775390625,17.555206298828125,3.2297301292419434,1.9957399368286133,576.7741007804871
D4:22:CD:00:05:5D,-179.74642944335938,-68.47876739501953,-104.75355529785156,-1.0639214515686035,-1.537259578704834,-1.2444353103637695,576.8040654659271
D4:22:CD:00:05:6B,-60.94902801513672,-72.0650405883789,-73.71969604492188,2.029277801513672,2.3564462661743164,-2.9953365325927734,576.8040654659271
D4:22:CD:00:49:AA,134.93759155273438,-73.0937271118164,139.8517303466797,-0.17261850833892822,0.006707623600959778,-9.42691421508789,576.8040654659271
D4:22:CD:00:05:6E,49.25527572631836,-41.569766998291016,28.4207820892334,2.0645670890808105,-8.052934646606445,-6.298596382141113,576.8040654659271
D4:22:CD:00:05:5E,-174.63499450683594,-20.142135620117188,-32.63582992553711,10.567638397216797,-3.873568534851074,-18.25049591064453,576.8040654659271
D4:22:CD:00:05:5D,176.09515380859375,-64.2710189819336,-97.38491821289062,-1.453735113143921,1.740786075592041,-3.5585522651672363,576.8340594768524
D4:22:CD:00:05:6B,-58.61595153808594,-63.12206268310547,-75.64735412597656,-1.1334614753723145,1.1643962860107422,-2.186509609222412,576.8340594768524
D4:22:CD:00:49:AA,132.85870361328125,-72.09050750732422,142.15512084960938,-4.5327863693237305,4.004883766174316,-1.2457733154296875,576.8340594768524
D4:22:CD:00:05:6E,75.24797821044922,-34.02226638793945,20.29294776916504,14.999099731445312,4.920239448547363,-1.4349842071533203,576.8340594768524
D4:22:CD:00:05:5E,178.24501037597656,-19.45809555053711,-32.57248306274414,11.81696891784668,-8.115386962890625,-3.0558667182922363,576.8340594768524
D4:22:CD:00:05:5D,174.8261260986328,-60.02003479003906,-92.88668060302734,5.758912086486816,-0.43222755193710327,2.0423154830932617,576.8640642166138
D4:22:CD:00:05:6B,-58.42314529418945,-52.304656982421875,-74.64503479003906,-4.528221130371094,3.858257293701172,1.3803482055664062,576.8640642166138
D4:22:CD:00:49:AA,129.70266723632812,-71.07669067382812,146.48658752441406,-1.1948521137237549,0.42767953872680664,3.3999271392822266,576.8640642166138
D4:22:CD:00:05:6E,86.96421813964844,-24.675756454467773,17.32956314086914,13.635103225708008,5.286307334899902,7.010602951049805,576.8640642166138
D4:22:CD:00:05:5E,173.1127166748047,-19.056299209594727,-34.84713363647461,10.968076705932617,-13.479585647583008,-2.1285276412963867,576.8640642166138
D4:22:CD:00:05:5D,174.54579162597656,-56.334354400634766,-91.60652923583984,2.3985204696655273,0.20075732469558716,0.8065242767333984,576.8935816287994
D4:22:CD:00:05:6B,-60.31093978881836,-40.99980545043945,-71.42637634277344,-5.8782148361206055,6.981206893920898,1.552018165588379,576.8935816287994
D4:22:CD:00:49:AA,129.586181640625,-70.52059936523438,146.9556121826172,3.2345662117004395,1.7751033306121826,5.173656463623047,576.8935816287994
D4:22:CD:00:05:6E,88.28959655761719,-19.464319229125977,16.865758895874023,18.684215545654297,4.4250335693359375,-4.44715690612793,576.8935816287994
D4:22:CD:00:05:5E,174.16064453125,-17.36825180053711,-36.04254913330078,11.478290557861328,-17.035846710205078,0.636601448059082,576.8935816287994
D4:22:CD:00:05:5D,174.8769989013672,-53.648109436035156,-91.57962799072266,-0.6541426181793213,1.3346126079559326,1.2442502975463867,576.9487099647522
D4:22:CD:00:05:6B,-61.528953552246094,-30.77513885498047,-66.8286361694336,-7.683449745178223,14.541431427001953,12.817388534545898,576.9487099647522
D4:22:CD:00:49:AA,129.61746215820312,-70.94465637207031,146.43223571777344,-4.488269805908203,-0.06668597459793091,11.536293029785156,576.9487099647522
D4:22:CD:00:05:6E,87.48357391357422,-19.64037322998047,16.41703987121582,11.547697067260742,0.762958288192749,1.9808950424194336,576.9487099647522
D4:22:CD:00:05:5E,-179.93836975097656,-13.797234535217285,-37.14793014526367,19.523326873779297,-22.394126892089844,5.243066787719727,576.9487099647522
D4:22:CD:00:05:5D,175.63999938964844,-52.345863342285156,-91.79026794433594,-0.2974228858947754,1.1828465461730957,1.3991870880126953,576.978791475296
D4:22:CD:00:05:6B,-62.06694030761719,-19.998306274414062,-61.44644546508789,-0.008373260498046875,10.80294418334961,15.339017868041992,576.978791475296
D4:22:CD:00:49:AA,130.41331481933594,-72.6961441040039,146.46627807617188,-7.118309020996094,-0.2194932997226715,11.126144409179688,576.978791475296
D4:22:CD:00:05:6E,86.4276351928711,-24.69194221496582,15.99643325805664,14.064998626708984,-0.18932530283927917,7.244279861450195,576.978791475296
D4:22:CD:00:05:5E,-174.52731323242188,-9.946308135986328,-38.4096565246582,15.342470169067383,-23.173519134521484,-8.349130630493164,576.978791475296
