Device,EulerX,EulerY,EulerZ,FreeAccX,FreeAccY,FreeAccZ,Timestamp
D4:22:CD:00:05:5D,176.03262329101562,-53.65289306640625,-66.58306884765625,-0.73017418384552,1.5014958381652832,3.4973573684692383,1364.394838809967
D4:22:CD:00:05:6B,-41.845272064208984,42.53567886352539,-86.5164794921875,-14.348865509033203,-6.612834930419922,10.107559204101562,1364.394838809967
D4:22:CD:00:49:AA,149.62380981445312,-74.90248107910156,142.64634704589844,-10.18825912475586,0.4553101658821106,7.987983703613281,1364.394838809967
D4:22:CD:00:05:6E,98.50596618652344,-35.9985466003418,56.0823974609375,-6.131082534790039,-5.57404899597168,7.018198013305664,1364.394838809967
D4:22:CD:00:05:5E,-172.07456970214844,-76.12185668945312,1.9231380224227905,2.0721874237060547,4.5749311447143555,-2.156342029571533,1364.394838809967
D4:22:CD:00:49:AA,159.8267822265625,-76.94805145263672,138.64913940429688,-2.370162010192871,2.5072546005249023,4.346742630004883,1364.4038543701172
D4:22:CD:00:05:6E,93.74107360839844,-40.038055419921875,67.95941162109375,-3.7302279472351074,-5.039960861206055,-1.3752107620239258,1364.4038543701172
D4:22:CD:00:05:5E,85.52619171142578,-86.67127990722656,102.79875183105469,-2.686985969543457,10.823257446289062,0.15500736236572266,1364.4038543701172
D4:22:CD:00:05:5D,155.66989135742188,-57.51433181762695,-102.09522247314453,3.7007389068603516,-0.6063016653060913,-1.4343452453613281,1364.4078545570374
D4:22:CD:00:05:6B,-61.90724563598633,-6.42966365814209,-59.72526550292969,-2.6251220703125,-1.2589800357818604,20.165077209472656,1364.4078545570374
D4:22:CD:00:05:5E,25.584875106811523,-72.64550018310547,160.8912811279297,-12.779462814331055,7.7457275390625,-0.2427520751953125,1364.4078545570374
D4:22:CD:00:05:5D,163.10719299316406,-55.650733947753906,-107.32817077636719,5.985345840454102,-1.186302661895752,-0.15103816986083984,1364.4108548164368
D4:22:CD:00:05:6B,-63.4277458190918,-1.8849992752075195,-58.70035934448242,1.3673977851867676,3.8201217651367188,9.705924987792969,1364.4108548164368
D4:22:CD:00:49:AA,127.4101333618164,-69.08281707763672,161.9642333984375,-5.796327590942383,-1.702794075012207,13.142337799072266,1364.4108548164368
D4:22:CD:00:05:6E,113.03688049316406,-58.827484130859375,22.40245246887207,2.3587565422058105,3.319563865661621,9.903484344482422,1364.4108548164368
D4:22:CD:00:05:5D,174.77545166015625,-49.26211929321289,-120.81732940673828,-0.2034318745136261,0.5247938632965088,1.9051551818847656,1364.4576668739319
D4:22:CD:00:05:6B,-46.804073333740234,27.24367332458496,-42.93291473388672,16.603076934814453,-5.303664207458496,25.6431884765625,1364.4576668739319
D4:22:CD:00:49:AA,-179.30972290039062,-73.21099853515625,112.01055145263672,2.9999594688415527,0.35906660556793213,8.556779861450195,1364.4576668739319
D4:22:CD:00:05:6E,118.0660629272461,-63.37714767456055,26.524635314941406,-5.145416259765625,-0.07932563126087189,-1.5143804550170898,1364.4576668739319
D4:22:CD:00:05:5E,13.606017112731934,-55.67818832397461,-115.75005340576172,-4.091181755065918,5.062344551086426,2.145562171936035,1364.4576668739319
D4:22:CD:00:05:5D,175.6315155029297,-51.67233657836914,-122.43006134033203,-0.5329715013504028,-0.3106398582458496,1.9580507278442383,1364.4872691631317
D4:22:CD:00:05:6B,-20.286048889160156,29.676410675048828,-32.17090606689453,11.891029357910156,0.2560715675354004,15.624856948852539,1364.4872691631317
D4:22:CD:00:49:AA,-174.59523010253906,-70.11302947998047,108.67384338378906,1.2213501930236816,0.853225588798523,8.737878799438477,1364.4872691631317
D4:22:CD:00:05:6E,121.07957458496094,-64.74671936035156,30.193185806274414,-3.0935821533203125,-2.198037624359131,-7.28218936920166,1364.4872691631317
D4:22:CD:00:05:5E,-1.458754062652588,-42.61512756347656,-104.20243072509766,-2.030655860900879,-1.9919688701629639,2.316786766052246,1364.4872691631317
D4:22:CD:00:05:5D,177.44102478027344,-55.544647216796875,-124.21114349365234,1.4055540561676025,-0.9161713123321533,4.588142395019531,1364.517475605011
D4:22:CD:00:05:6B,-2.5186641216278076,30.069150924682617,-21.660419464111328,3.6079511642456055,-6.85225772857666,9.258733749389648,1364.517475605011
D4:22:CD:00:49:AA,-170.03358459472656,-70.41803741455078,107.32028198242188,-5.430233955383301,-0.25965988636016846,5.568206787109375,1364.517475605011
D4:22:CD:00:05:6E,119.84513854980469,-69.73612976074219,37.792537689208984,-3.84114408493042,-0.7848333120346069,-10.58122444152832,1364.517475605011
D4:22:CD:00:05:5E,-8.613495826721191,-27.640308380126953,-105.31816101074219,-1.4910519123077393,-15.540803909301758,-2.8124561309814453,1364.517475605011
D4:22:CD:00:05:5D,177.77679443359375,-61.215633392333984,-125.26620483398438,-4.207210540771484,-4.023495674133301,9.136493682861328,1364.5474734306335
D4:22:CD:00:05:6B,11.698332786560059,30.835962295532227,-15.770048141479492,2.626821994781494,-12.461368560791016,1.500387191772461,1364.5474734306335
D4:22:CD:00:49:AA,-158.2132568359375,-71.461181640625,100.02428436279297,-0.885000467300415,1.888641595840454,-0.5104036331176758,1364.5474734306335
D4:22:CD:00:05:6E,119.89216613769531,-77.11962890625,45.6948356628418,-3.9227561950683594,-2.483759880065918,-10.172248840332031,1364.5474734306335
D4:22:CD:00:05:5E,-10.705510139465332,-25.7707462310791,-113.34085845947266,-13.390453338623047,-22.719322204589844,-9.225444793701172,1364.5474734306335
D4:22:CD:00:05:5D,171.37802124023438,-68.94345092773438,-126.78099060058594,-7.372219085693359,-3.3215489387512207,2.1546096801757812,1364.5773277282715
D4:22:CD:00:05:6B,26.098995208740234,33.21232986450195,-13.784080505371094,-3.4767327308654785,-6.549654960632324,-5.3564910888671875,1364.5773277282715
D4:22:CD:00:49:AA,-147.8159942626953,-70.76693725585938,94.44873046875,0.6299992799758911,0.8730036020278931,-7.013175964355469,1364.5773277282715
D4:22:CD:00:05:6E,117.25645446777344,-84.39321899414062,56.953643798828125,-2.961627960205078,-3.889561653137207,-10.197559356689453,1364.5773277282715
D4:22:CD:00:05:5E,-12.629351615905762,-30.460851669311523,-119.4502944946289,-19.603500366210938,-20.04405975341797,-9.529390335083008,1364.5773277282715
D4:22:CD:00:05:5D,166.4179229736328,-71.3544921875,-123.26834869384766,9.014904022216797,-3.302644729614258,-9.698478698730469,1364.607412815094
D4:22:CD:00:05:6B,32.04670333862305,35.0062141418457,-13.345658302307129,-7.73298454284668,0.9861438274383545,-7.055716514587402,1364.607412815094
D4:22:CD:00:49:AA,-143.89645385742188,-68.81836700439453,94.1053466796875,0.9602631330490112,3.020866870880127,-11.730047225952148,1364.607412815094
D4:22:CD:00:05:6E,38.664306640625,-88.14544677734375,141.58653259277344,-2.2765297889709473,-7.251537322998047,-8.03150749206543,1364.607412815094
D4:22:CD:00:05:5E,-13.43973159790039,-36.55927276611328,-121.03498077392578,-17.455196380615234,-13.615842819213867,-24.9033203125,1364.607412815094
D4:22:CD:00:05:5D,172.07350158691406,-73.81238555908203,-122.41336822509766,-4.056099891662598,-4.040824890136719,-12.070758819580078,1364.6370038986206
D4:22:CD:00:05:6B,27.73711395263672,36.641754150390625,-16.47059440612793,-5.717389106750488,-6.002022743225098,-8.550811767578125,1364.6370038986206
D4:22:CD:00:49:AA,-144.0357208251953,-68.42070007324219,95.6607894897461,2.1554126739501953,1.8828051090240479,-10.00880241394043,1364.6370038986206
D4:22:CD:00:05:6E,31.43313217163086,-84.1723403930664,157.4383544921875,2.35579252243042,-18.224430084228516,-9.851032257080078,1364.6370038986206
D4:22:CD:00:05:5E,-17.438716888427734,-46.02284622192383,-115.37968444824219,-9.956724166870117,-7.571209907531738,-20.73404312133789,1364.6370038986206
D4:22:CD:00:05:5D,175.20372009277344,-78.59300994873047,-125.58424377441406,5.364049911499023,-0.047061994671821594,-10.242483139038086,1364.6672897338867
D4:22:CD:00:05:6B,24.1967830657959,41.602848052978516,-26.85580062866211,-0.3433666229248047,-3.8981003761291504,-11.427928924560547,1364.6672897338867
D4:22:CD:00:49:AA,-142.81857299804688,-70.70913696289062,95.5868148803711,-0.11473333835601807,-0.8782403469085693,-7.2969770431518555,1364.6672897338867
D4:22:CD:00:05:6E,48.21269226074219,-78.4865951538086,142.7974853515625,-0.13193213939666748,-8.990371704101562,-10.068780899047852,1364.6672897338867
D4:22:CD:00:05:5E,-32.305782318115234,-55.29526901245117,-102.47310638427734,-1.8790233135223389,-7.686801910400391,-8.775861740112305,1364.6672897338867
D4:22:CD:00:05:5D,176.14730834960938,-77.6041259765625,-123.19781494140625,-7.680566787719727,-0.1366182565689087,4.027941703796387,1364.7273907661438
D4:22:CD:00:05:6B,19.316617965698242,47.356109619140625,-48.70566177368164,4.010867118835449,-3.4059934616088867,-12.397001266479492,1364.7273907661438
D4:22:CD:00:49:AA,-137.5959014892578,-72.70555877685547,93.09346008300781,-2.721564769744873,-3.7071681022644043,-7.6973114013671875,1364.7273907661438
D4:22:CD:00:05:6E,56.29289245605469,-73.89723205566406,134.59884643554688,0.2947077751159668,-3.4616384506225586,-9.792490005493164,1364.7273907661438
D4:22:CD:00:05:5E,-54.05064392089844,-60.80918884277344,-83.7553482055664,-2.3083443641662598,-10.439226150512695,-1.4841508865356445,1364.7273907661438
D4:22:CD:00:05:5D,174.06008911132812,-74.880615234375,-116.43463134765625,-0.002504238858819008,-6.468210220336914,4.538083076477051,1364.7575538158417
D4:22:CD:00:05:6B,4.498324394226074,47.23271179199219,-77.7212142944336,0.07155799865722656,-16.42473602294922,-29.074058532714844,1364.7575538158417
D4:22:CD:00:49:AA,-129.1715850830078,-73.69247436523438,88.3840560913086,0.3441339135169983,-1.051802635192871,-2.394369125366211,1364.7575538158417
D4:22:CD:00:05:6E,59.63612365722656,-71.46143341064453,130.83090209960938,2.027428150177002,-5.608027458190918,-6.035797119140625,1364.7575538158417
D4:22:CD:00:05:5E,-79.1439437866211,-62.75621032714844,-62.20496368408203,3.3557705879211426,-9.824197769165039,-2.370546817779541,1364.7575538158417
D4:22:CD:00:05:5D,171.8441162109375,-71.86913299560547,-110.62003326416016,2.794769763946533,-3.2241768836975098,3.9721107482910156,1364.7872285842896
D4:22:CD:00:05:6B,-10.353453636169434,40.9849967956543,-100.57882690429688,-13.674970626831055,-27.915897369384766,-25.894550323486328,1364.7872285842896
D4:22:CD:00:49:AA,-126.85210418701172,-74.51185607910156,86.82267761230469,6.024814605712891,6.980389595031738,3.082737922668457,1364.7872285842896
D4:22:CD:00:05:6E,62.85792922973633,-69.80473327636719,128.84356689453125,5.350821495056152,-6.863608360290527,-2.168154239654541,1364.7872285842896
D4:22:CD:00:05:5E,-99.9858627319336,-62.56668472290039,-44.53361129760742,1.9071125984191895,-7.086411476135254,-3.2508058547973633,1364.7872285842896
D4:22:CD:00:05:5D,168.8694305419922,-70.19886779785156,-105.76770782470703,0.8633543252944946,0.677186131477356,1.7665939331054688,1364.8168563842773
D4:22:CD:00:05:6B,-22.255952835083008,41.65139389038086,-98.7316665649414,20.04819107055664,22.80298614501953,-8.292686462402344,1364.8168563842773
D4:22:CD:00:49:AA,-131.15895080566406,-75.61437225341797,88.89205169677734,1.2719848155975342,-2.1374950408935547,3.8389225006103516,1364.8168563842773
D4:22:CD:00:05:6E,69.41839599609375,-67.54745483398438,123.84001922607422,7.583251953125,-13.12057876586914,0.18948078155517578,1364.8168563842773
D4:22:CD:00:05:5E,-118.75434112548828,-60.913238525390625,-29.239883422851562,2.579411029815674,-10.327413558959961,-5.817971229553223,1364.8168563842773
D4:22:CD:00:05:5D,165.06541442871094,-69.59527587890625,-100.60395812988281,-3.820746421813965,1.025568962097168,3.669590950012207,1364.8476283550262
D4:22:CD:00:05:6B,-26.39922523498535,45.06797409057617,-83.36954498291016,-8.496648788452148,-11.60824203491211,-5.323598861694336,1364.8476283550262
D4:22:CD:00:49:AA,-135.02410888671875,-77.52940368652344,90.23749542236328,-4.575701713562012,-3.920790195465088,2.8259172439575195,1364.8476283550262
D4:22:CD:00:05:6E,71.10306549072266,-64.77714538574219,116.04163360595703,6.990626335144043,-6.081996917724609,-1.3422174453735352,1364.8476283550262
D4:22:CD:00:05:5E,-139.46353149414062,-57.15080642700195,-14.32475471496582,1.048095464706421,-8.01045036315918,-2.6526103019714355,1364.8476283550262
D4:22:CD:00:05:5D,160.11709594726562,-69.40869140625,-95.73707580566406,-1.779994010925293,-0.25142258405685425,2.2464942932128906,1364.8776302337646
D4:22:CD:00:05:6B,-11.065082550048828,45.98775863647461,-66.56486511230469,-2.958108425140381,-6.588443756103516,-17.323699951171875,1364.8776302337646
D4:22:CD:00:49:AA,-136.35467529296875,-78.38831329345703,90.39881896972656,-2.579465389251709,-2.4819860458374023,-0.3713245391845703,1364.8776302337646
D4:22:CD:00:05:6E,70.85164642333984,-62.580570220947266,109.12487030029297,4.434059143066406,0.2673705220222473,-3.7761006355285645,1364.8776302337646
D4:22:CD:00:05:5E,-160.21969604492188,-50.59042739868164,-2.6577136516571045,10.916948318481445,-3.1623997688293457,2.061391830444336,1364.8776302337646
D4:22:CD:00:05:5D,154.5255584716797,-69.44114685058594,-90.71794128417969,-0.2724906802177429,1.201488733291626,-1.294102668762207,1364.9076435565948
D4:22:CD:00:05:6B,0.6280670762062073,43.039794921875,-48.34444046020508,-0.403454065322876,-7.6991167068481445,-16.806671142578125,1364.9076435565948
D4:22:CD:00:49:AA,-137.40931701660156,-78.85106658935547,90.73287963867188,1.4820797443389893,0.8006910085678101,-0.7011737823486328,1364.9076435565948
D4:22:CD:00:05:6E,73.94122314453125,-62.480712890625,103.00447845458984,1.7892179489135742,-0.45946282148361206,-3.1280899047851562,1364.9076435565948
D4:22:CD:00:05:5E,-163.36058044433594,-47.641700744628906,2.3191823959350586,18.22985076904297,-3.36110258102417,-12.250919342041016,1364.9076435565948
D4:22:CD:00:05:5D,147.67652893066406,-69.79753875732422,-84.72500610351562,2.4379305839538574,-0.4107341170310974,0.5301856994628906,1364.9614794254303
D4:22:CD:00:05:6B,8.166031837463379,37.53235626220703,-35.00481033325195,-3.0697550773620605,-5.974399566650391,-13.648672103881836,1364.9614794254303
D4:22:CD:00:49:AA,-140.49124145507812,-79.00022888183594,91.38660430908203,1.8223156929016113,-1.2133235931396484,-1.8069238662719727,1364.9614794254303
D4:22:CD:00:05:6E,77.1673355102539,-63.64698791503906,96.32122802734375,-1.6383893489837646,-4.2478437423706055,1.3190088272094727,1364.9614794254303
D4:22:CD:00:05:5E,-167.94601440429688,-44.824378967285156,7.1925506591796875,11.218034744262695,10.22889518737793,3.5180187225341797,1364.9614794254303
D4:22:CD:00:05:5D,139.63282775878906,-70.0999526977539,-77.8828125,-1.065798282623291,-1.1912109851837158,2.3377227783203125,1364.9674859046936
D4:22:CD:00:05:6B,11.487196922302246,31.262981414794922,-26.15725326538086,-5.566495895385742,0.18275952339172363,-7.480186462402344,1364.9674859046936
D4:22:CD:00:49:AA,-143.9510498046875,-78.49195098876953,92.2372817993164,0.9060715436935425,-4.731127738952637,-1.6971492767333984,1364.9674859046936
D4:22:CD:00:05:6E,78.82862854003906,-65.54386901855469,88.45367431640625,-1.5221662521362305,-2.953892230987549,5.348461151123047,1364.9674859046936
D4:22:CD:00:05:5E,-171.9114532470703,-41.8934440612793,9.834877014160156,3.637226104736328,-1.4142112731933594,0.4003639221191406,1364.9674859046936
D4:22:CD:00:05:5D,130.10333251953125,-70.04118347167969,-70.43126678466797,1.2497167587280273,-2.869095802307129,4.702566146850586,1365.0284237861633
D4:22:CD:00:05:6B,10.494033813476562,25.063283920288086,-20.129852294921875,-11.514230728149414,3.9733500480651855,-0.7396402359008789,1365.0284237861633
D4:22:CD:00:49:AA,-148.98931884765625,-76.88679504394531,94.57109832763672,1.8298907279968262,-1.7920053005218506,2.373600959777832,1365.0284237861633
D4:22:CD:00:05:6E,80.33575439453125,-66.50703430175781,81.25679779052734,-0.9832367897033691,-0.907307505607605,5.792231559753418,1365.0284237861633
D4:22:CD:00:05:5E,-174.4387969970703,-41.26141357421875,13.43919563293457,12.799325942993164,1.5410616397857666,2.845428466796875,1365.0284237861633
D4:22:CD:00:05:5D,114.67022705078125,-70.30366516113281,-62.66154098510742,10.9757080078125,-4.296964645385742,1.7335071563720703,1365.0574216842651
D4:22:CD:00:05:6B,6.152408123016357,18.57556915283203,-15.102083206176758,-11.065584182739258,10.850973129272461,5.866949081420898,1365.0574216842651
D4:22:CD:00:49:AA,-150.66250610351562,-74.80979919433594,92.76943969726562,5.690698623657227,1.1954104900360107,-0.1562786102294922,1365.0574216842651
D4:22:CD:00:05:6E,82.83267974853516,-66.20244598388672,76.98519134521484,-4.647950172424316,1.2708954811096191,2.212082862854004,1365.0574216842651
D4:22:CD:00:05:5E,-174.90467834472656,-42.48728942871094,17.023521423339844,2.443603515625,-1.2807590961456299,-1.0078306198120117,1365.0574216842651
D4:22:CD:00:05:5D,115.46680450439453,-68.30043029785156,-71.72386169433594,22.314613342285156,16.260971069335938,5.078463554382324,1365.087221622467
D4:22:CD:00:05:6B,-8.341707229614258,10.669419288635254,-10.531180381774902,-8.418258666992188,18.611839294433594,-1.6042680740356445,1365.087221622467
D4:22:CD:00:49:AA,-153.13560485839844,-72.58683776855469,91.3105697631836,9.711158752441406,3.250476837158203,-1.4294567108154297,1365.087221622467
D4:22:CD:00:05:6E,84.20291137695312,-65.99576568603516,75.60334777832031,-5.4068193435668945,0.2270628809928894,1.3519821166992188,1365.087221622467
D4:22:CD:00:05:5E,-175.36082458496094,-43.10749053955078,18.728591918945312,4.373134613037109,-0.23859432339668274,0.16123676300048828,1365.087221622467
D4:22:CD:00:05:5D,129.63388061523438,-62.063026428222656,-91.97661590576172,23.079177856445312,8.439546585083008,5.437191009521484,1365.1172890663147
D4:22:CD:00:05:6B,-28.809059143066406,1.2450487613677979,-7.012513160705566,-3.269127368927002,-2.1342291831970215,3.231106758117676,1365.1172890663147
D4:22:CD:00:49:AA,-157.1307373046875,-70.9971923828125,91.75035095214844,1.8984286785125732,1.4756085872650146,5.524296760559082,1365.1172890663147
D4:22:CD:00:05:6E,82.66246032714844,-66.44174194335938,78.32633209228516,-3.2951841354370117,-0.8925859928131104,1.080984115600586,1365.1172890663147
D4:22:CD:00:05:5E,-175.84974670410156,-43.69453048706055,19.93808364868164,4.4433441162109375,1.7804560661315918,0.4061088562011719,1365.1172890663147
D4:22:CD:00:05:5D,141.41580200195312,-52.7041015625,-110.49497985839844,10.610090255737305,0.16932564973831177,2.139540672302246,1365.1472845077515
D4:22:CD:00:05:6B,-36.127410888671875,-7.2419257164001465,-5.311228275299072,-2.866821765899658,2.1796274185180664,10.452619552612305,1365.1472845077515
D4:22:CD:00:49:AA,-158.28677368164062,-70.73278045654297,91.49031829833984,-1.0146431922912598,2.4430766105651855,2.361170768737793,1365.1472845077515
D4:22:CD:00:05:6E,79.84578704833984,-66.92656707763672,84.24028778076172,-1.3802134990692139,-3.0410189628601074,0.7053899765014648,1365.1472845077515
D4:22:CD:00:05:5E,-176.74671936035156,-44.24860382080078,21.48971176147461,5.085322380065918,1.2717041969299316,-1.1289739608764648,1365.1472845077515
D4:22:CD:00:05:5D,149.59571838378906,-41.9310302734375,-124.12442779541016,0.705277681350708,-2.2011542320251465,-4.352433204650879,1365.1774685382843
D4:22:CD:00:05:6B,-42.13833999633789,-14.774136543273926,-4.422820568084717,-3.371696949005127,7.071863174438477,-3.282097816467285,1365.1774685382843
D4:22:CD:00:49:AA,-157.3114013671875,-69.99127960205078,90.52918243408203,5.115239143371582,3.440244197845459,0.6547317504882812,1365.1774685382843
D4:22:CD:00:05:6E,77.10111999511719,-66.6942367553711,91.67355346679688,0.3598201274871826,-4.225123405456543,-0.5204706192016602,1365.1774685382843
D4:22:CD:00:05:5E,-176.43942260742188,-44.01856231689453,22.536657333374023,6.794756889343262,-0.4266182780265808,-2.69244384765625,1365.1774685382843
D4:22:CD:00:05:5D,156.84033203125,-31.521730422973633,-133.16619873046875,-3.812863349914551,-2.4265146255493164,-11.696226119995117,1365.2074737548828
D4:22:CD:00:05:6B,-51.57332992553711,-22.472736358642578,-2.3645453453063965,-6.1161956787109375,-4.732695579528809,5.435919761657715,1365.2074737548828
D4:22:CD:00:49:AA,-156.7591552734375,-69.65365600585938,90.33294677734375,4.406781196594238,2.2697339057922363,0.155670166015625,1365.2074737548828
D4:22:CD:00:05:6E,75.04798889160156,-65.14968872070312,99.11426544189453,0.28313249349594116,-3.182323932647705,-3.986605644226074,1365.2074737548828
D4:22:CD:00:05:5E,-176.4356689453125,-42.124305725097656,22.29006004333496,2.9419140815734863,-3.8384766578674316,-4.782416343688965,1365.2074737548828
D4:22:CD:00:05:5D,165.46780395507812,-23.0156307220459,-139.00990295410156,-5.567063331604004,2.1068081855773926,-7.814248085021973,1365.2394111156464
D4:22:CD:00:05:6B,-52.55704116821289,-32.097930908203125,0.4916854798793793,-4.983644485473633,-1.3764317035675049,-2.200453281402588,1365.2394111156464
D4:22:CD:00:49:AA,-157.62020874023438,-70.08702850341797,91.53192138671875,-0.14645910263061523,1.106968641281128,-4.959627151489258,1365.2394111156464
D4:22:CD:00:05:6E,74.85342407226562,-62.40827178955078,104.80103302001953,0.4129790663719177,-2.163804054260254,-7.6056318283081055,1365.2394111156464
D4:22:CD:00:05:5E,-176.92257690429688,-38.95500946044922,20.67877960205078,5.609282493591309,-1.6963064670562744,-2.760218620300293,1365.2394111156464
D4:22:CD:00:05:5D,167.05682373046875,-18.904539108276367,-143.5029296875,-10.429210662841797,-0.3865533471107483,-12.141008377075195,1365.2675297260284
D4:22:CD:00:05:6B,-51.281925201416016,-45.11619186401367,3.7250943183898926,3.5186824798583984,0.817307710647583,-5.566215515136719,1365.2675297260284
D4:22:CD:00:49:AA,-158.37376403808594,-70.56399536132812,92.32312774658203,1.4100356101989746,1.3515045642852783,-6.15606689453125,1365.2675297260284
D4:22:CD:00:05:6E,77.34693145751953,-59.418678283691406,108.07718658447266,0.7189087867736816,-3.108976364135742,-8.666698455810547,1365.2675297260284
D4:22:CD:00:05:5E,-178.17950439453125,-33.99224853515625,17.401369094848633,1.8332901000976562,0.05147042125463486,-1.9718060493469238,1365.2675297260284
D4:22:CD:00:05:5D,163.69044494628906,-20.171249389648438,-145.83743286132812,-14.386938095092773,1.7105495929718018,-16.44001007080078,1365.3274579048157
D4:22:CD:00:05:6B,-50.3090934753418,-61.171817779541016,4.56833553314209,9.585575103759766,3.3439531326293945,4.969060897827148,1365.3274579048157
D4:22:CD:00:49:AA,-158.0970001220703,-71.14253234863281,92.06727600097656,3.87693452835083,1.308530569076538,-3.192272186279297,1365.3274579048157
D4:22:CD:00:05:6E,86.49048614501953,-55.693668365478516,106.94535827636719,-1.8043389320373535,-12.448965072631836,-2.2144570350646973,1365.3274579048157
D4:22:CD:00:05:5E,-178.94309997558594,-31.228759765625,15.690314292907715,9.638025283813477,0.1480756402015686,-0.09643745422363281,1365.3274579048157
D4:22:CD:00:05:5D,163.09793090820312,-25.07610321044922,-146.33570861816406,-1.094987154006958,-7.151233673095703,16.964839935302734,1365.3574562072754
D4:22:CD:00:05:6B,-36.626304626464844,-75.70355987548828,-5.933030128479004,1.0624616146087646,4.5002241134643555,26.845561981201172,1365.3574562072754
D4:22:CD:00:49:AA,-157.2235870361328,-72.34907531738281,90.61456298828125,1.6854581832885742,2.3611226081848145,-1.901656150817871,1365.3574562072754
D4:22:CD:00:05:6E,102.62122344970703,-49.55891036987305,98.3004379272461,-0.051199667155742645,-16.446746826171875,9.699796676635742,1365.3574562072754
D4:22:CD:00:05:5E,-178.7113800048828,-29.809226989746094,15.478924751281738,0.2663840651512146,-0.43432021141052246,-0.33797168731689453,1365.3574562072754
D4:22:CD:00:05:5D,164.88853454589844,-27.280380249023438,-145.4285430908203,-24.679458618164062,-11.758825302124023,8.542900085449219,1365.3874566555023
D4:22:CD:00:05:6B,1.3219587802886963,-78.64385223388672,-35.344547271728516,8.490991592407227,-2.082045078277588,13.738382339477539,1365.3874566555023
D4:22:CD:00:49:AA,-159.96536254882812,-72.36400604248047,92.13166046142578,-3.0011892318725586,-2.700289726257324,-1.6242790222167969,1365.3874566555023
D4:22:CD:00:05:6E,119.14096069335938,-41.47825622558594,87.9400863647461,5.554523468017578,-15.517145156860352,15.846832275390625,1365.3874566555023
D4:22:CD:00:05:5E,-179.33544921875,-29.244192123413086,16.59751319885254,7.170153617858887,4.439044952392578,3.339557647705078,1365.3874566555023
D4:22:CD:00:05:5D,166.33529663085938,-23.64589500427246,-142.12728881835938,-20.859603881835938,-10.628660202026367,11.429513931274414,1365.4169929027557
D4:22:CD:00:05:6B,-14.332924842834473,-72.67459106445312,-18.04282569885254,13.063343048095703,3.1550116539001465,12.908767700195312,1365.4169929027557
D4:22:CD:00:49:AA,-164.77735900878906,-72.48640441894531,96.0594711303711,0.27881449460983276,-3.4259915351867676,7.058107376098633,1365.4169929027557
D4:22:CD:00:05:6E,125.73223876953125,-31.450740814208984,76.27189636230469,20.493629455566406,-26.7237548828125,28.920848846435547,1365.4169929027557
D4:22:CD:00:05:5E,178.83627319335938,-29.556062698364258,18.0922794342041,4.307675361633301,-0.3390922546386719,1.1478986740112305,1365.4169929027557
D4:22:CD:00:05:5D,164.68902587890625,-17.16001319885254,-140.49749755859375,-23.56600570678711,-8.963478088378906,11.115745544433594,1365.4473714828491
D4:22:CD:00:05:6B,-29.544198989868164,-59.97690963745117,-5.726931571960449,13.776090621948242,-8.421737670898438,20.83096694946289,1365.4473714828491
D4:22:CD:00:49:AA,-169.09388732910156,-70.63033294677734,100.34831237792969,2.0300822257995605,-3.5199499130249023,9.764934539794922,1365.4473714828491
D4:22:CD:00:05:6E,114.49298095703125,-20.941213607788086,64.32513427734375,13.006620407104492,-7.18986701965332,23.02609634399414,1365.4473714828491
D4:22:CD:00:05:5E,176.1886749267578,-30.813112258911133,18.87877082824707,5.401250839233398,-0.5687171220779419,1.1300830841064453,1365.4473714828491
D4:22:CD:00:05:5D,159.18556213378906,-11.963088035583496,-139.6278076171875,-14.43294906616211,-8.271953582763672,2.1936264038085938,1365.477958202362
D4:22:CD:00:05:6B,-34.601688385009766,-49.80332565307617,-6.060261249542236,7.201789855957031,-7.466549873352051,4.533245086669922,1365.477958202362
D4:22:CD:00:49:AA,-169.84036254882812,-71.38834381103516,103.11383819580078,2.003591537475586,2.695425033569336,7.467351913452148,1365.477958202362
D4:22:CD:00:05:6E,102.37648010253906,-14.848804473876953,55.947547912597656,1.0414774417877197,-4.931194305419922,9.700963973999023,1365.477958202362
D4:22:CD:00:05:5E,173.3408203125,-34.38209915161133,19.958600997924805,6.231025695800781,0.21782487630844116,2.9393396377563477,1365.477958202362
D4:22:CD:00:05:5D,159.47598266601562,-9.819998741149902,-138.6299591064453,-4.7367448806762695,-2.287749767303467,-5.536094665527344,1365.5074379444122
D4:22:CD:00:05:6B,-38.889984130859375,-44.658470153808594,-10.641010284423828,-5.23177433013916,-7.383453369140625,0.8098325729370117,1365.5074379444122
D4:22:CD:00:49:AA,-172.70509338378906,-72.2081298828125,106.600341796875,6.2190656661987305,7.075080871582031,10.297033309936523,1365.5074379444122
D4:22:CD:00:05:6E,91.60684967041016,-15.919429779052734,52.291221618652344,-10.925615310668945,-0.8654613494873047,5.665091514587402,1365.5074379444122
D4:22:CD:00:05:5E,170.820556640625,-41.35594940185547,23.2213191986084,17.381595611572266,8.344158172607422,6.491044998168945,1365.5074379444122
D4:22:CD:00:05:5D,162.7617645263672,-12.872221946716309,-137.85240173339844,-0.6308319568634033,0.26527297496795654,-13.056180953979492,1365.5372369289398
D4:22:CD:00:05:6B,-43.98798751831055,-44.52775192260742,-15.002863883972168,-12.855552673339844,-2.6280980110168457,-0.8644418716430664,1365.5372369289398
D4:22:CD:00:49:AA,-174.67796325683594,-72.63841247558594,107.60921478271484,7.9122209548950195,5.888541221618652,7.569587707519531,1365.5372369289398
D4:22:CD:00:05:6E,79.55765533447266,-20.607513427734375,53.14155578613281,-7.299983978271484,0.7432143688201904,-3.86258602142334,1365.5372369289398
D4:22:CD:00:05:5E,174.46238708496094,-48.75834274291992,26.14704704284668,5.5799713134765625,1.2725186347961426,3.425212860107422,1365.5372369289398
D4:22:CD:00:05:5D,163.74566650390625,-22.500545501708984,-137.61221313476562,-4.353724479675293,0.701836109161377,-15.707813262939453,1365.5676708221436
D4:22:CD:00:05:6B,-49.52766036987305,-47.4854621887207,-18.10393524169922,-10.42391586303711,1.8582382202148438,-0.6442632675170898,1365.5676708221436
D4:22:CD:00:49:AA,-177.8867950439453,-72.82726287841797,109.09365844726562,2.8621468544006348,2.1318650245666504,3.150369644165039,1365.5676708221436
D4:22:CD:00:05:6E,68.15205383300781,-25.05384063720703,59.46316909790039,-3.6904234886169434,0.7974382638931274,-5.37583065032959,1365.5676708221436
D4:22:CD:00:05:5E,176.52125549316406,-50.24925994873047,24.9617977142334,-9.029041290283203,-4.760375022888184,1.7792167663574219,1365.5676708221436
D4:22:CD:00:05:5D,159.49539184570312,-37.39046859741211,-137.4395751953125,-5.403439521789551,-1.600623607635498,-10.988353729248047,1365.6274144649506
D4:22:CD:00:05:6B,-53.906856536865234,-50.88942337036133,-21.875600814819336,-5.529007911682129,4.400115013122559,-4.010770797729492,1365.6274144649506
D4:22:CD:00:49:AA,178.17198181152344,-72.54615783691406,111.17459106445312,0.39034706354141235,-0.4288139343261719,-4.613344192504883,1365.6274144649506
D4:22:CD:00:05:6E,52.53761672973633,-26.725515365600586,71.20382690429688,-5.038858413696289,2.8769145011901855,-4.711447715759277,1365.6274144649506
D4:22:CD:00:05:5E,-179.06541442871094,-48.53270721435547,20.727962493896484,2.1552019119262695,1.189143180847168,-9.762928009033203,1365.6274144649506
D4:22:CD:00:05:5D,153.55838012695312,-55.11005783081055,-136.34906005859375,-5.064790725708008,-3.7392473220825195,-3.1829867362976074,1365.657419204712
D4:22:CD:00:05:6B,-54.428565979003906,-54.061336517333984,-28.24070930480957,-2.459423542022705,4.494767189025879,-6.046195030212402,1365.657419204712
D4:22:CD:00:49:AA,176.3552703857422,-71.47560119628906,111.86491394042969,-1.1525664329528809,-0.8605085611343384,-10.092676162719727,1365.657419204712
D4:22:CD:00:05:6E,31.50235939025879,-24.17816162109375,86.4552993774414,0.17848458886146545,4.78411865234375,-10.680438995361328,1365.657419204712
D4:22:CD:00:05:5E,-177.707763671875,-49.04594802856445,16.428796768188477,4.869224548339844,3.692089080810547,-18.480438232421875,1365.657419204712
D4:22:CD:00:05:5D,148.25888061523438,-73.73756408691406,-130.7154083251953,-1.0844571590423584,-4.969895362854004,10.702995300292969,1365.6874186992645
D4:22:CD:00:05:6B,-52.752784729003906,-56.21357345581055,-36.786312103271484,-0.14654290676116943,3.847921371459961,-8.124731063842773,1365.6874186992645
D4:22:CD:00:49:AA,176.03347778320312,-70.8499526977539,111.24162292480469,-0.24760106205940247,1.816058874130249,-10.900520324707031,1365.6874186992645
D4:22:CD:00:05:6E,12.925293922424316,-15.10921573638916,101.75408935546875,-3.0078587532043457,7.326350212097168,-7.800945281982422,1365.6874186992645
D4:22:CD:00:05:5E,179.88600158691406,-50.56487274169922,14.688840866088867,-9.81873893737793,-15.445283889770508,3.098567008972168,1365.6874186992645
D4:22:CD:00:05:5D,37.0945930480957,-86.16912078857422,-13.917303085327148,12.480844497680664,3.009448528289795,16.476486206054688,1365.7173585891724
D4:22:CD:00:05:6B,-51.39724349975586,-57.14860916137695,-45.91203308105469,0.5120702981948853,3.496274471282959,-9.122541427612305,1365.7173585891724
D4:22:CD:00:49:AA,173.54205322265625,-71.8724365234375,111.4987564086914,2.540980339050293,1.7197275161743164,-8.381288528442383,1365.7173585891724
D4:22:CD:00:05:6E,-0.3448936343193054,1.7136305570602417,114.5638427734375,-8.479406356811523,13.20346450805664,-7.380698204040527,1365.7173585891724
D4:22:CD:00:05:5E,175.3797149658203,-48.00630187988281,13.225693702697754,8.826688766479492,-6.175363540649414,-10.682506561279297,1365.7173585891724
D4:22:CD:00:05:5D,6.769046306610107,-73.80538940429688,24.850622177124023,11.634056091308594,22.287334442138672,-4.227197647094727,1365.7475593090057
D4:22:CD:00:05:6B,-50.956295013427734,-56.97623062133789,-54.001243591308594,-3.4959006309509277,2.2509689331054688,-6.350166320800781,1365.7475593090057
D4:22:CD:00:49:AA,169.2935333251953,-73.79676818847656,113.5433349609375,0.956305980682373,-0.16670605540275574,-9.24697494506836,1365.7475593090057
D4:22:CD:00:05:6E,-5.694807052612305,23.343786239624023,125.66423797607422,-18.871177673339844,20.742992401123047,-26.05221939086914,1365.7475593090057
D4:22:CD:00:05:5E,175.8497314453125,-46.20229721069336,11.73918628692627,8.22001838684082,-0.571465015411377,-5.139778137207031,1365.7475593090057
D4:22:CD:00:05:5D,4.4126715660095215,-69.12703704833984,23.24144744873047,15.066654205322266,16.99105453491211,-20.012435913085938,1365.7775616645813
D4:22:CD:00:05:6B,-46.02958297729492,-56.3195686340332,-60.52900695800781,-3.8799304962158203,4.409406661987305,-6.264863014221191,1365.7775616645813
D4:22:CD:00:49:AA,166.50941467285156,-75.45745086669922,114.68669128417969,-0.26422685384750366,-2.4589180946350098,-9.787696838378906,1365.7775616645813
D4:22:CD:00:05:6E,7.330865859985352,37.74803924560547,131.67283630371094,14.289718627929688,-20.10552215576172,-23.63092041015625,1365.7775616645813
D4:22:CD:00:05:5E,177.20880126953125,-43.18439483642578,9.52089786529541,12.568315505981445,-2.636885643005371,-1.559473991394043,1365.7775616645813
D4:22:CD:00:05:5D,13.672377586364746,-71.45490264892578,11.157885551452637,10.720914840698242,-3.3184924125671387,-7.277430534362793,1365.8077080249786
D4:22:CD:00:05:6B,-40.033668518066406,-55.65100860595703,-65.76224517822266,-0.5058941841125488,3.927828311920166,-6.027291297912598,1365.8077080249786
D4:22:CD:00:49:AA,170.51304626464844,-75.32502746582031,108.55594635009766,1.817760705947876,-2.481870651245117,-2.4321908950805664,1365.8077080249786
D4:22:CD:00:05:6E,18.02532196044922,39.878536224365234,125.96376037597656,-3.592773914337158,-0.985826849937439,-10.664655685424805,1365.8077080249786
D4:22:CD:00:05:5E,178.43621826171875,-39.50554656982422,6.517776012420654,9.336532592773438,-0.6198252439498901,4.219464302062988,1365.8077080249786
D4:22:CD:00:05:5D,44.954559326171875,-74.50232696533203,-15.677131652832031,10.241006851196289,4.097413063049316,1.3734045028686523,1365.8374500274658
D4:22:CD:00:05:6B,-36.10417556762695,-55.244598388671875,-69.43836975097656,-0.5458265542984009,2.8054184913635254,-4.380764007568359,1365.8374500274658
D4:22:CD:00:49:AA,175.229248046875,-75.2981185913086,103.71558380126953,4.575882911682129,2.2213516235351562,1.0225105285644531,1365.8374500274658
D4:22:CD:00:05:6E,27.507131576538086,40.78767013549805,122.03791809082031,7.212741851806641,-22.271339416503906,-10.94784927368164,1365.8374500274658
D4:22:CD:00:05:5E,-179.31732177734375,-38.401065826416016,3.875957489013672,5.6744794845581055,0.47594207525253296,3.75283145904541,1365.8374500274658
D4:22:CD:00:05:5D,84.49111938476562,-73.95125579833984,-47.622013092041016,1.3975789546966553,-1.3227965831756592,6.040682792663574,1365.8674523830414
D4:22:CD:00:05:6B,-34.334983825683594,-55.71736526489258,-72.47688293457031,-0.4565090537071228,2.181016445159912,-0.7404146194458008,1365.8674523830414
D4:22:CD:00:49:AA,178.31594848632812,-73.80199432373047,101.20806121826172,0.3547413945198059,2.429934024810791,3.7507944107055664,1365.8674523830414
D4:22:CD:00:05:6E,28.247827529907227,34.373477935791016,109.55943298339844,-10.234235763549805,-3.5549488067626953,-8.948354721069336,1365.8674523830414
D4:22:CD:00:05:5E,-177.29200744628906,-39.792152404785156,1.2576185464859009,9.634384155273438,-0.03564278781414032,5.563668251037598,1365.8674523830414
D4:22:CD:00:05:5D,99.56916809082031,-72.91521453857422,-63.069339752197266,-0.9057209491729736,-10.538673400878906,-0.2610788345336914,1365.9275698661804
D4:22:CD:00:05:6B,-36.71516799926758,-58.423404693603516,-73.13327026367188,-7.35189151763916,4.112353324890137,5.1581010818481445,1365.9275698661804
D4:22:CD:00:49:AA,-178.8566436767578,-73.20867919921875,99.81824493408203,4.609016418457031,4.005093574523926,11.331375122070312,1365.9275698661804
D4:22:CD:00:05:6E,30.58708381652832,22.309953689575195,91.59430694580078,-14.988502502441406,8.662973403930664,-19.928592681884766,1365.9275698661804
D4:22:CD:00:05:5E,-173.88717651367188,-43.41465759277344,-1.2446200847625732,15.715444564819336,-0.5424576997756958,4.005072593688965,1365.9275698661804
D4:22:CD:00:05:5D,106.04304504394531,-75.69366455078125,-75.67594146728516,3.7508015632629395,-3.5193920135498047,4.090185165405273,1365.9576652050018
D4:22:CD:00:05:6B,-36.91511154174805,-63.486820220947266,-69.31761169433594,-6.858792304992676,2.350437641143799,9.344491958618164,1365.9576652050018
D4:22:CD:00:49:AA,-176.7364959716797,-73.87457275390625,99.70104217529297,8.303850173950195,0.29217100143432617,8.434322357177734,1365.9576652050018
D4:22:CD:00:05:6E,33.89457321166992,9.51053524017334,74.03277587890625,-10.125986099243164,8.623838424682617,-8.60860824584961,1365.9576652050018
D4:22:CD:00:05:5E,-164.88113403320312,-48.34481430053711,-4.920703411102295,9.111318588256836,-7.748481750488281,-3.714358329772949,1365.9576652050018
D4:22:CD:00:05:5D,114.95571899414062,-77.26531982421875,-86.41928100585938,-19.62630844116211,0.8481466770172119,24.92218017578125,1365.987666130066
D4:22:CD:00:05:6B,-38.88201904296875,-69.11309051513672,-62.4017219543457,-0.7928982973098755,-0.8425040245056152,8.175100326538086,1365.987666130066
D4:22:CD:00:49:AA,-175.71737670898438,-73.51425170898438,101.07061767578125,0.9363445043563843,1.2066764831542969,1.322524070739746,1365.987666130066
D4:22:CD:00:05:6E,40.34026336669922,-0.04063621163368225,57.35270309448242,5.595664024353027,1.227189064025879,-0.9153537750244141,1365.987666130066
D4:22:CD:00:05:5E,-152.6600799560547,-48.883487701416016,-6.258211612701416,-15.97166633605957,-19.28075408935547,13.839324951171875,1365.987666130066
D4:22:CD:00:05:5D,134.07579040527344,-77.85315704345703,-99.02654266357422,1.9311761856079102,6.003290176391602,0.24909019470214844,1366.0171720981598
D4:22:CD:00:05:6B,-48.64323425292969,-72.94551849365234,-51.090702056884766,-5.216458320617676,1.6410133838653564,6.911176681518555,1366.0171720981598
D4:22:CD:00:49:AA,-176.43028259277344,-71.25762939453125,105.57109832763672,-2.3368020057678223,-3.7621707916259766,2.4378366470336914,1366.0171720981598
D4:22:CD:00:05:6E,52.676673889160156,-5.258157730102539,41.809452056884766,10.458566665649414,-9.156906127929688,1.7431058883666992,1366.0171720981598
D4:22:CD:00:05:5E,-148.0088653564453,-41.21913146972656,-3.212381362915039,-3.388306140899658,-23.38109588623047,8.284711837768555,1366.0171720981598
D4:22:CD:00:05:5D,148.14559936523438,-78.80912017822266,-113.98577880859375,2.8289027214050293,-4.541468620300293,0.5672540664672852,1366.047854423523
D4:22:CD:00:05:6B,-54.560508728027344,-74.53595733642578,-40.725521087646484,-0.9490246772766113,0.3846188187599182,-0.7882585525512695,1366.047854423523
D4:22:CD:00:49:AA,-177.24754333496094,-69.22441864013672,110.32148742675781,-5.407906532287598,-1.7842535972595215,-3.618241786956787,1366.047854423523
D4:22:CD:00:05:6E,66.80677032470703,-6.51364803314209,29.507875442504883,6.789521217346191,-17.437461853027344,8.275510787963867,1366.047854423523
D4:22:CD:00:05:5E,-148.0847930908203,-31.52545166015625,2.6093616485595703,6.830557823181152,-7.392268180847168,-5.598636627197266,1366.047854423523
D4:22:CD:00:05:5D,159.53579711914062,-78.93226623535156,-125.1225357055664,3.8058362007141113,-4.678650856018066,-0.6511430740356445,1366.077302455902
D4:22:CD:00:05:6B,-60.15325164794922,-74.14923095703125,-33.399147033691406,-4.246221542358398,-2.46905517578125,-4.109048843383789,1366.077302455902
D4:22:CD:00:49:AA,-176.88853454589844,-68.402587890625,112.94776916503906,0.7809314727783203,-0.04503104090690613,-2.4940338134765625,1366.077302455902
D4:22:CD:00:05:6E,80.869140625,-5.541401386260986,24.306318283081055,5.04510498046875,-14.456388473510742,-5.861222267150879,1366.077302455902
D4:22:CD:00:05:5E,-149.04043579101562,-23.75386619567871,8.41474723815918,3.685544967651367,-3.1940512657165527,-10.70025634765625,1366.077302455902
D4:22:CD:00:05:5D,166.6884765625,-78.91372680664062,-129.9031982421875,0.632071852684021,0.5018163919448853,0.5656089782714844,1366.107344865799
D4:22:CD:00:05:6B,-58.47742462158203,-73.93217468261719,-32.86219024658203,-4.991745948791504,-3.4786338806152344,-3.4569239616394043,1366.107344865799
D4:22:CD:00:49:AA,-178.6027069091797,-67.89745330810547,114.94450378417969,1.0115609169006348,1.1036171913146973,-0.5960054397583008,1366.107344865799
D4:22:CD:00:05:6E,94.67908477783203,-4.041454792022705,23.33635711669922,-6.173656463623047,0.13861781358718872,6.925807952880859,1366.107344865799
D4:22:CD:00:05:5E,-152.41246032714844,-17.428882598876953,14.169049263000488,-0.3082422614097595,-3.477781295776367,-9.814390182495117,1366.107344865799
D4:22:CD:00:05:5D,171.8616180419922,-78.90267944335938,-134.0584259033203,-1.5658087730407715,1.649709939956665,0.43038368225097656,1366.137239933014
D4:22:CD:00:05:6B,-52.791404724121094,-73.87527465820312,-36.99766159057617,-2.898533344268799,-3.2806291580200195,-3.1470813751220703,1366.137239933014
D4:22:CD:00:49:AA,177.97509765625,-66.62129974365234,118.73371124267578,-7.382880210876465,1.1838617324829102,0.8234128952026367,1366.137239933014
D4:22:CD:00:05:6E,101.69409942626953,-2.7248375415802,22.417306900024414,-4.259306907653809,-3.9380788803100586,-2.474984645843506,1366.137239933014
D4:22:CD:00:05:5E,-158.56060791015625,-11.910444259643555,20.202587127685547,-1.3224363327026367,-1.658276081085205,-8.956201553344727,1366.137239933014
D4:22:CD:00:05:5D,178.41505432128906,-78.5604476928711,-140.84939575195312,-1.312445878982544,0.1501929759979248,-0.16766834259033203,1366.167307138443
D4:22:CD:00:05:6B,-52.58746337890625,-72.72616577148438,-39.93313217163086,-4.906625747680664,-1.063138723373413,-2.911123275756836,1366.167307138443
D4:22:CD:00:49:AA,175.2384796142578,-66.36866760253906,122.32837677001953,-6.275033950805664,-1.0318090915679932,1.363286018371582,1366.167307138443
D4:22:CD:00:05:6E,111.38108825683594,-4.045746326446533,22.547548294067383,-5.816934585571289,0.7824621200561523,-6.20137882232666,1366.167307138443
D4:22:CD:00:05:5E,-166.47093200683594,-7.751140594482422,26.397903442382812,1.357290267944336,-1.866476058959961,-6.981122970581055,1366.167307138443
D4:22:CD:00:05:5D,-175.23480224609375,-77.70231628417969,-147.86264038085938,-0.5638569593429565,-0.07738152146339417,-0.10047531127929688,1366.2276065349579
D4:22:CD:00:05:6B,-51.77875900268555,-70.46383666992188,-42.76935577392578,-7.104471206665039,2.64292049407959,-1.9031014442443848,1366.2276065349579
D4:22:CD:00:49:AA,173.29788208007812,-67.29579162597656,125.33116149902344,0.68596351146698,0.05046844482421875,-1.7268848419189453,1366.2276065349579
D4:22:CD:00:05:6E,119.71266174316406,-9.498044967651367,21.10970687866211,-0.9217653274536133,0.2899150848388672,3.046259880065918,1366.2276065349579
D4:22:CD:00:05:5E,-174.98049926757812,-6.101815700531006,32.63328170776367,3.930222988128662,1.4175388813018799,-2.7940502166748047,1366.2276065349579
D4:22:CD:00:05:5D,-173.3776092529297,-76.04741668701172,-150.98648071289062,0.3539546728134155,-3.030986785888672,-0.6870479583740234,1366.2575886249542
D4:22:CD:00:05:6B,-47.194339752197266,-67.32283782958984,-47.20428466796875,-3.8838586807250977,1.5912110805511475,-3.3523612022399902,1366.2575886249542
D4:22:CD:00:49:AA,169.0536651611328,-67.8787841796875,129.8153839111328,1.7314493656158447,2.3587746620178223,-3.7251996994018555,1366.2575886249542
D4:22:CD:00:05:6E,121.2297134399414,-19.162109375,17.826013565063477,4.606456756591797,-0.7663414478302002,-0.8192176818847656,1366.2575886249542
D4:22:CD:00:05:5E,-177.3711395263672,-7.513063907623291,38.78390121459961,8.737800598144531,9.508625030517578,-8.913330078125,1366.2575886249542
D4:22:CD:00:05:5D,-176.111572265625,-73.44499969482422,-148.3973846435547,0.5396764278411865,-4.130937576293945,-0.9532413482666016,1366.2885909080505
D4:22:CD:00:05:6B,-43.3948860168457,-63.810176849365234,-50.637027740478516,-2.424950122833252,-0.39147043228149414,-5.037226676940918,1366.2885909080505
D4:22:CD:00:49:AA,162.8493194580078,-68.40711212158203,134.51168823242188,-0.05704788118600845,1.3388144969940186,-4.33963680267334,1366.2885909080505
D4:22:CD:00:05:6E,120.69214630126953,-32.88274383544922,14.32708740234375,9.045866012573242,-0.874146580696106,4.94527530670166,1366.2885909080505
D4:22:CD:00:05:5E,-169.29153442382812,-13.483352661132812,43.407169342041016,0.39253610372543335,17.172767639160156,2.1781845092773438,1366.2885909080505
D4:22:CD:00:05:5D,179.59951782226562,-69.85469055175781,-143.2354278564453,1.2285451889038086,-1.0976507663726807,-0.09723281860351562,1366.3170771598816
D4:22:CD:00:05:6B,-40.80562210083008,-60.035526275634766,-52.960479736328125,-0.6731499433517456,0.3672037124633789,-5.047395706176758,1366.3170771598816
D4:22:CD:00:49:AA,156.92335510253906,-69.3247299194336,138.37913513183594,-1.8691034317016602,0.0634881854057312,-5.564325332641602,1366.3170771598816
D4:22:CD:00:05:6E,116.57820129394531,-48.809165954589844,12.092451095581055,14.370838165283203,-0.8249756097793579,17.208507537841797,1366.3170771598816
D4:22:CD:00:05:5E,-160.34202575683594,-18.480043411254883,45.39903259277344,7.7528886795043945,6.325630187988281,7.848405838012695,1366.3170771598816
D4:22:CD:00:05:5D,175.0145263671875,-65.63768768310547,-137.10504150390625,-1.582878589630127,1.3261618614196777,0.9666719436645508,1366.3469738960266
D4:22:CD:00:05:6B,-40.39087677001953,-56.301109313964844,-54.788185119628906,2.1326746940612793,0.23929119110107422,-7.265393257141113,1366.3469738960266
D4:22:CD:00:49:AA,151.9033660888672,-70.09484100341797,142.3698272705078,-2.038201332092285,-0.7768329381942749,-4.288752555847168,1366.3469738960266
D4:22:CD:00:05:6E,112.67633056640625,-59.068603515625,12.921348571777344,15.541877746582031,-1.8862042427062988,13.690938949584961,1366.3469738960266
D4:22:CD:00:05:5E,-165.31784057617188,-19.574630737304688,45.92059326171875,11.256507873535156,18.588924407958984,-2.4345951080322266,1366.3469738960266
D4:22:CD:00:05:5D,170.73265075683594,-60.574981689453125,-129.89239501953125,-0.5359138250350952,-1.0742301940917969,-5.3284711837768555,1366.4070599079132
D4:22:CD:00:05:6B,-46.230133056640625,-52.698455810546875,-55.678741455078125,-2.251797676086426,0.7058441638946533,-4.081999778747559,1366.4070599079132
D4:22:CD:00:49:AA,146.24560546875,-70.55474853515625,148.0216064453125,-1.616811990737915,-1.2387712001800537,-1.733689308166504,1366.4070599079132
D4:22:CD:00:05:6E,114.87023162841797,-56.67962646484375,9.6321382522583,10.233789443969727,-7.484780311584473,7.844547271728516,1366.4070599079132
D4:22:CD:00:05:5E,-169.24497985839844,-19.56143569946289,44.96052932739258,15.946149826049805,14.92501449584961,3.2560033798217773,1366.4070599079132
D4:22:CD:00:05:5D,170.18870544433594,-55.468170166015625,-124.08644104003906,2.2133426666259766,-1.2083587646484375,1.5454025268554688,1366.4375867843628
D4:22:CD:00:05:6B,-51.908565521240234,-47.81073760986328,-56.887054443359375,-13.382036209106445,5.572457313537598,9.027816772460938,1366.4375867843628
D4:22:CD:00:49:AA,138.90484619140625,-71.61380004882812,156.1414337158203,-1.9733293056488037,0.12713372707366943,1.3931455612182617,1366.4375867843628
D4:22:CD:00:05:6E,116.38589477539062,-49.55730056762695,7.957469940185547,15.85080337524414,5.176590919494629,10.04098129272461,1366.4375867843628
D4:22:CD:00:05:5E,-169.92822265625,-18.065013885498047,44.4287109375,20.620113372802734,5.330783843994141,0.7493295669555664,1366.4375867843628
D4:22:CD:00:05:5D,170.15199279785156,-51.9213981628418,-121.89910888671875,2.8051395416259766,-0.7104251384735107,1.0498285293579102,1366.4415891170502
D4:22:CD:00:05:6B,-46.250850677490234,-39.07460021972656,-57.57677459716797,-10.85103988647461,5.675595283508301,24.61577606201172,1366.4415891170502
D4:22:CD:00:49:AA,135.31069946289062,-71.39196014404297,160.2129364013672,-2.852079391479492,2.5344905853271484,6.338558197021484,1366.4415891170502
D4:22:CD:00:05:6E,117.4671630859375,-44.40656280517578,7.236873149871826,13.5958251953125,7.721391677856445,9.317481994628906,1366.4415891170502
D4:22:CD:00:05:5E,-167.0389404296875,-16.378509521484375,44.28837203979492,20.006591796875,8.198751449584961,3.4521446228027344,1366.4415891170502
D4:22:CD:00:05:5D,171.39547729492188,-50.128047943115234,-121.8797836303711,1.7157166004180908,2.3050804138183594,-0.17719078063964844,1366.467594385147
D4:22:CD:00:05:6B,-43.368751525878906,-25.015018463134766,-56.25452423095703,-14.398733139038086,14.742155075073242,25.282901763916016,1366.467594385147
D4:22:CD:00:49:AA,136.8245391845703,-71.08318328857422,159.36106872558594,-2.411109447479248,-0.38249367475509644,13.770914077758789,1366.467594385147
D4:22:CD:00:05:6E,118.45393371582031,-43.21076965332031,7.820793628692627,9.786636352539062,3.301636219024658,7.440895080566406,1366.467594385147
D4:22:CD:00:05:5E,-160.28273010253906,-14.35925006866455,43.99216079711914,20.877212524414062,14.801733016967773,-2.0988221168518066,1366.467594385147
D4:22:CD:00:05:5D,172.80503845214844,-50.510406494140625,-122.27434539794922,0.27549266815185547,1.168327808380127,2.9029102325439453,1366.527447938919
D4:22:CD:00:05:6B,-31.10763168334961,-8.911849021911621,-50.73593521118164,-1.2120945453643799,3.9996371269226074,28.778579711914062,1366.527447938919
D4:22:CD:00:49:AA,135.87680053710938,-71.80339050292969,159.80899047851562,-3.20100736618042,2.854918956756592,9.884855270385742,1366.527447938919
D4:22:CD:00:05:6E,122.48799896240234,-46.14497756958008,9.59034538269043,3.0596656799316406,-2.390780448913574,9.563182830810547,1366.527447938919
D4:22:CD:00:05:5E,-161.95938110351562,-9.767841339111328,41.507686614990234,16.1942138671875,8.42607307434082,-3.2177462577819824,1366.527447938919
D4:22:CD:00:05:5D,173.87838745117188,-52.47370910644531,-122.11834716796875,0.4088364839553833,0.5333865880966187,2.380575180053711,1366.5574576854706
D4:22:CD:00:05:6B,-12.810589790344238,8.11168384552002,-41.59943389892578,0.854357123374939,2.7111878395080566,15.347366333007812,1366.5574576854706
D4:22:CD:00:49:AA,136.84996032714844,-71.92697143554688,158.00808715820312,-2.2266130447387695,-2.7954764366149902,7.357837677001953,1366.5574576854706
D4:22:CD:00:05:6E,128.69769287109375,-51.99571228027344,12.737746238708496,0.8352829217910767,-4.007345199584961,6.493560791015625,1366.5574576854706
D4:22:CD:00:05:5E,-170.4185333251953,-8.686102867126465,39.6807746887207,10.141006469726562,9.740415573120117,-13.195560455322266,1366.5574576854706
D4:22:CD:00:05:5D,175.50457763671875,-55.58425521850586,-122.97312927246094,-2.102407932281494,1.8542463779449463,2.266058921813965,1366.5876138210297
D4:22:CD:00:05:6B,8.282350540161133,20.74371910095215,-30.76436424255371,-10.733257293701172,-4.593367576599121,8.348648071289062,1366.5876138210297
D4:22:CD:00:49:AA,139.19430541992188,-72.43550109863281,155.8004608154297,-3.486515998840332,-1.2453947067260742,4.864428520202637,1366.5876138210297
D4:22:CD:00:05:6E,134.4557342529297,-59.21764373779297,17.95145606994629,-6.7617692947387695,-8.160402297973633,2.8772192001342773,1366.5876138210297
D4:22:CD:00:05:5E,-169.52044677734375,-13.642500877380371,36.850196838378906,2.9396963119506836,9.567281723022461,-3.9960827827453613,1366.5876138210297
