Device,EulerX,EulerY,EulerZ,FreeAccX,FreeAccY,FreeAccZ,Timestamp
D4:22:CD:00:05:5D,173.8608856201172,-65.23979187011719,-83.86674499511719,-0.15604087710380554,0.11271221935749054,-1.181884765625,1381.0134739875793
D4:22:CD:00:05:6B,-69.37027740478516,-59.32147216796875,-64.79296875,-5.942591667175293,4.426362037658691,-4.590256690979004,1381.0134739875793
D4:22:CD:00:49:AA,144.6880645751953,-71.14606475830078,126.7618637084961,-4.460019111633301,0.23555916547775269,-5.348855018615723,1381.0134739875793
D4:22:CD:00:05:6E,86.40647888183594,-28.375192642211914,4.907014846801758,24.62420654296875,0.654768705368042,7.499168395996094,1381.0134739875793
D4:22:CD:00:05:5E,-174.6664581298828,-18.434165954589844,-35.334835052490234,2.7841992378234863,-4.026839256286621,-7.276673316955566,1381.0134739875793
D4:22:CD:00:05:5D,171.93943786621094,-60.35689926147461,-79.81111145019531,5.154458999633789,-0.47138702869415283,-4.110287666320801,1381.0225007534027
D4:22:CD:00:05:6B,-64.04319763183594,-56.520843505859375,-73.85645294189453,-3.9373292922973633,7.670693397521973,-0.9401988983154297,1381.0225007534027
D4:22:CD:00:49:AA,141.5045623779297,-69.85594940185547,131.63528442382812,1.4277079105377197,0.08081735670566559,-1.77630615234375,1381.0225007534027
D4:22:CD:00:05:6E,90.14971160888672,-31.55352020263672,3.4558520317077637,-3.7652478218078613,-15.084447860717773,6.410821914672852,1381.0225007534027
D4:22:CD:00:05:5E,-176.4449920654297,-18.260629653930664,-35.37735366821289,12.501167297363281,-7.144113540649414,0.41675281524658203,1381.0225007534027
D4:22:CD:00:05:6B,-60.67088317871094,-49.54491424560547,-79.05712890625,-0.5206270217895508,23.324604034423828,14.251029968261719,1381.0284991264343
D4:22:CD:00:49:AA,140.77093505859375,-68.17113494873047,133.3118438720703,3.450324535369873,2.6176133155822754,8.787055969238281,1381.0284991264343
D4:22:CD:00:05:6E,86.8518295288086,-28.040878295898438,1.1468040943145752,19.384918212890625,-8.001468658447266,-14.544397354125977,1381.0284991264343
D4:22:CD:00:05:5E,-174.8206329345703,-18.50222396850586,-35.90888977050781,10.16818618774414,-13.831720352172852,3.468766212463379,1381.0284991264343
D4:22:CD:00:05:5D,-59.7706184387207,-69.41856384277344,-85.58480834960938,-1.6464998722076416,-4.504405975341797,-0.6350011825561523,1381.0331993103027
D4:22:CD:00:05:6B,-95.07244110107422,-4.404013156890869,-71.21453094482422,7.041533470153809,-0.43556809425354004,-5.324646949768066,1381.0331993103027
D4:22:CD:00:05:6E,98.93450927734375,-25.985538482666016,2.8061206340789795,21.10568618774414,-5.168495178222656,-14.872587203979492,1381.0331993103027
D4:22:CD:00:05:5E,-171.21221923828125,-18.876789093017578,-34.71155548095703,15.536741256713867,-14.03422737121582,5.846684455871582,1381.0331993103027
D4:22:CD:00:05:5D,-174.61631774902344,-66.90106201171875,36.640018463134766,-2.0319371223449707,1.3849709033966064,2.296415328979492,1381.0362660884857
D4:22:CD:00:05:6B,-83.73091888427734,-7.951145172119141,-79.67461395263672,6.524476051330566,-0.5865612030029297,2.9655513763427734,1381.0362660884857
D4:22:CD:00:49:AA,-175.14747619628906,-79.85088348388672,84.44371032714844,8.102630615234375,0.3537580966949463,2.350893974304199,1381.0362660884857
D4:22:CD:00:05:5D,-175.38394165039062,-59.76660919189453,38.792991638183594,-0.9399716854095459,-3.019615650177002,0.9674444198608398,1381.0772631168365
D4:22:CD:00:05:6B,-73.87330627441406,-6.900963306427002,-86.65669250488281,6.78305721282959,-5.795161247253418,11.04599380493164,1381.0772631168365
D4:22:CD:00:49:AA,137.22906494140625,-76.26789093017578,131.35435485839844,4.460932731628418,0.6071038246154785,8.282032012939453,1381.0772631168365
D4:22:CD:00:05:6E,3.7270383834838867,-85.61858367919922,102.25376892089844,16.377639770507812,5.494019508361816,11.774810791015625,1381.0772631168365
D4:22:CD:00:05:5E,-153.41732788085938,-70.43767547607422,-26.318645477294922,2.606440544128418,-1.7276592254638672,16.053421020507812,1381.0772631168365
D4:22:CD:00:05:5D,-176.28089904785156,-54.713417053222656,40.60667419433594,1.4715147018432617,-5.23085880279541,2.320183753967285,1381.1670088768005
D4:22:CD:00:05:6B,-66.5582046508789,-3.991830348968506,-90.84119415283203,9.093524932861328,-7.212696075439453,18.162113189697266,1381.1670088768005
D4:22:CD:00:49:AA,116.58222198486328,-69.39971923828125,151.351318359375,-6.146856307983398,-0.04734853655099869,12.505693435668945,1381.1670088768005
D4:22:CD:00:05:6E,-76.73321533203125,-75.10626983642578,-175.69384765625,11.827247619628906,0.4128339886665344,18.950946807861328,1381.1670088768005
D4:22:CD:00:05:5E,-172.2633514404297,-71.53736877441406,-10.480798721313477,0.8913323879241943,-0.011173425242304802,10.236082077026367,1381.1670088768005
D4:22:CD:00:05:5D,-176.5662384033203,-51.7219123840332,41.32013702392578,0.22393277287483215,-3.562894821166992,2.5968074798583984,1381.1720123291016
D4:22:CD:00:05:6B,-63.939117431640625,3.1496613025665283,-90.2036361694336,13.236715316772461,1.7319188117980957,32.737525939941406,1381.1720123291016
D4:22:CD:00:49:AA,122.27275085449219,-71.41438293457031,146.88665771484375,-2.60783052444458,-1.6553659439086914,11.124795913696289,1381.1720123291016
D4:22:CD:00:05:6E,-63.41194152832031,-59.67194747924805,-177.5548095703125,-14.958354949951172,-0.4831111431121826,10.018278121948242,1381.1720123291016
D4:22:CD:00:05:5E,177.0900421142578,-72.88445281982422,-4.185912609100342,2.29671573638916,-1.5455584526062012,3.397646903991699,1381.1720123291016
D4:22:CD:00:05:5D,-176.6504669189453,-50.8344612121582,40.980709075927734,-0.5836994647979736,-2.188239097595215,2.245060920715332,1381.1970086097717
D4:22:CD:00:05:6B,-47.76510238647461,14.612995147705078,-83.48126983642578,7.871346473693848,-9.911867141723633,32.33973693847656,1381.1970086097717
D4:22:CD:00:49:AA,131.685546875,-73.52922821044922,139.18780517578125,-1.0726337432861328,-0.0019383043982088566,10.86703109741211,1381.1970086097717
D4:22:CD:00:05:6E,-56.8282585144043,-64.32711791992188,-177.1576385498047,-14.926309585571289,4.142580032348633,6.161054611206055,1381.1970086097717
D4:22:CD:00:05:5E,164.60061645507812,-78.54432678222656,5.816622257232666,0.6746940612792969,6.174030303955078,2.647001266479492,1381.1970086097717
D4:22:CD:00:05:5D,-176.276123046875,-51.8514289855957,40.21108627319336,-1.0091323852539062,-0.9378559589385986,2.481747627258301,1381.2300231456757
D4:22:CD:00:05:6B,-23.58763885498047,23.107507705688477,-72.23988342285156,-2.429141044616699,-9.343521118164062,15.351140975952148,1381.2300231456757
D4:22:CD:00:49:AA,139.47119140625,-75.64387512207031,133.52261352539062,-2.9459242820739746,0.5510948896408081,8.499959945678711,1381.2300231456757
D4:22:CD:00:05:6E,-62.2275390625,-68.07012939453125,-166.37893676757812,-13.389265060424805,0.5157762765884399,5.176026344299316,1381.2300231456757
D4:22:CD:00:05:5E,133.7104949951172,-87.02375793457031,36.896541595458984,-1.259289026260376,5.096466064453125,0.9731788635253906,1381.2300231456757
D4:22:CD:00:05:5D,-175.36073303222656,-54.842529296875,39.29933547973633,-0.3212231993675232,-1.296588659286499,3.8040685653686523,1381.257538318634
D4:22:CD:00:05:6B,-1.7465932369232178,26.559316635131836,-61.24203109741211,-15.144886016845703,-8.393625259399414,5.761849403381348,1381.257538318634
D4:22:CD:00:49:AA,150.6255340576172,-78.05581665039062,125.64505767822266,-3.3345890045166016,0.5532021522521973,4.795199394226074,1381.257538318634
D4:22:CD:00:05:6E,-66.10326385498047,-68.5883560180664,-154.44749450683594,-14.842493057250977,-1.7883601188659668,0.19919490814208984,1381.257538318634
D4:22:CD:00:05:5E,9.882848739624023,-81.56778717041016,161.17483520507812,-1.272094488143921,5.946995735168457,0.5697336196899414,1381.257538318634
D4:22:CD:00:05:5D,-174.8242645263672,-59.626556396484375,38.73627853393555,3.222806453704834,-1.209723711013794,7.387248992919922,1381.2869126796722
D4:22:CD:00:05:6B,15.30601692199707,28.45261573791504,-54.29468536376953,-13.532073974609375,-5.803450584411621,-6.229921340942383,1381.2869126796722
D4:22:CD:00:49:AA,171.32533264160156,-79.84476470947266,109.31768798828125,-0.9011424779891968,0.149189293384552,-0.05408668518066406,1381.2869126796722
D4:22:CD:00:05:6E,-68.68949890136719,-69.65320587158203,-143.1385040283203,-13.064573287963867,-6.933534622192383,-2.5486717224121094,1381.2869126796722
D4:22:CD:00:05:5E,3.4783923625946045,-70.64012908935547,166.89744567871094,-8.510726928710938,7.024813652038574,-2.131174087524414,1381.2869126796722
D4:22:CD:00:05:5D,-175.9491729736328,-64.97756958007812,38.786590576171875,6.542064666748047,3.8195886611938477,5.1281938552856445,1381.3174726963043
D4:22:CD:00:05:6B,24.091089248657227,31.769323348999023,-49.74641418457031,-6.53780460357666,-2.862060070037842,-11.228126525878906,1381.3174726963043
D4:22:CD:00:49:AA,-166.10501098632812,-79.31614685058594,91.59168243408203,0.8867884874343872,0.2753995656967163,-4.675601959228516,1381.3174726963043
D4:22:CD:00:05:6E,-67.5866470336914,-73.1332778930664,-135.05596923828125,-8.540153503417969,-7.255277633666992,-5.220335006713867,1381.3174726963043
D4:22:CD:00:05:5E,0.3117866814136505,-61.48639678955078,167.55682373046875,-10.022127151489258,8.396255493164062,-6.2904052734375,1381.3174726963043
D4:22:CD:00:05:5D,-178.98374938964844,-71.41153717041016,36.336429595947266,4.113738059997559,0.9241396188735962,-4.533786773681641,1381.3470871448517
D4:22:CD:00:05:6B,27.05233383178711,37.31093215942383,-48.814605712890625,-2.5701990127563477,-2.432058334350586,-17.14044189453125,1381.3470871448517
D4:22:CD:00:49:AA,-154.9384002685547,-77.37586975097656,85.5068588256836,2.40811824798584,1.6935017108917236,-5.284272193908691,1381.3470871448517
D4:22:CD:00:05:6E,-61.32878112792969,-78.3042221069336,-132.54270935058594,-8.38210678100586,-9.78489875793457,-8.39798355102539,1381.3470871448517
D4:22:CD:00:05:5E,-3.459782600402832,-54.43998718261719,169.14837646484375,-11.850566864013672,7.62028694152832,-8.991048812866211,1381.3470871448517
D4:22:CD:00:05:5D,174.4418487548828,-74.3222885131836,38.67289352416992,-4.919678688049316,0.08387903869152069,-7.379756927490234,1381.3770868778229
D4:22:CD:00:05:6B,30.321805953979492,44.869930267333984,-54.271183013916016,4.068233489990234,-2.9025039672851562,-15.914308547973633,1381.3770868778229
D4:22:CD:00:49:AA,-152.23345947265625,-77.42168426513672,85.09481048583984,1.9115092754364014,1.55859375,-9.4754638671875,1381.3770868778229
D4:22:CD:00:05:6E,-44.77849197387695,-85.60871887207031,-148.22496032714844,-5.357691764831543,-10.28878402709961,-9.620746612548828,1381.3770868778229
D4:22:CD:00:05:5E,-8.649239540100098,-49.7037239074707,172.65098571777344,-11.897279739379883,3.4173121452331543,-12.563028335571289,1381.3770868778229
D4:22:CD:00:05:5D,169.08924865722656,-75.34993743896484,46.2313117980957,-1.0934102535247803,4.584522247314453,-6.939269065856934,1381.4070873260498
D4:22:CD:00:05:6B,29.43069076538086,52.645545959472656,-65.2989501953125,2.159773349761963,-1.7234227657318115,-16.217185974121094,1381.4070873260498
D4:22:CD:00:49:AA,-148.54812622070312,-79.28041076660156,82.22528839111328,-0.7740243673324585,-0.06280043721199036,-12.276182174682617,1381.4070873260498
D4:22:CD:00:05:6E,74.4136962890625,-83.38470458984375,91.622314453125,3.077846050262451,-5.275938034057617,-7.897616386413574,1381.4070873260498
D4:22:CD:00:05:5E,-15.7814302444458,-47.25535583496094,177.13401794433594,-9.381101608276367,2.2168664932250977,-15.433874130249023,1381.4070873260498
D4:22:CD:00:05:5D,164.5963897705078,-75.73998260498047,56.1494026184082,0.9840563535690308,5.771670341491699,-9.468631744384766,1381.4415998458862
D4:22:CD:00:05:6B,18.842187881469727,57.74354553222656,-83.18202209472656,4.912738800048828,2.148822784423828,-14.664854049682617,1381.4415998458862
D4:22:CD:00:49:AA,-144.62513732910156,-81.11643981933594,79.63877868652344,-0.6121275424957275,0.04570581018924713,-9.702526092529297,1381.4415998458862
D4:22:CD:00:05:6E,79.28836822509766,-73.47149658203125,84.83863067626953,1.5156545639038086,-6.287481307983398,-5.810500144958496,1381.4415998458862
D4:22:CD:00:05:5E,-24.70147132873535,-47.29132080078125,-177.9811248779297,-11.117071151733398,0.030682850629091263,-17.403053283691406,1381.4415998458862
D4:22:CD:00:05:5D,163.33412170410156,-75.34757232666016,64.19678497314453,-12.001251220703125,-14.666866302490234,-5.87283992767334,1381.4976015090942
D4:22:CD:00:05:6B,-2.2941062450408936,57.940147399902344,-110.11830139160156,1.1355664730072021,-1.248938798904419,-14.609136581420898,1381.4976015090942
D4:22:CD:00:49:AA,-139.30886840820312,-82.76752471923828,74.9684829711914,-0.13950017094612122,-0.44161033630371094,-7.586987495422363,1381.4976015090942
D4:22:CD:00:05:6E,77.13703918457031,-63.914581298828125,84.51727294921875,-0.8826571702957153,-4.436464309692383,-8.671316146850586,1381.4976015090942
D4:22:CD:00:05:5E,-36.29307174682617,-49.85374069213867,-171.47869873046875,-14.44369125366211,1.8495666980743408,-15.122230529785156,1381.4976015090942
D4:22:CD:00:05:5D,162.3597412109375,-71.34162902832031,69.28447723388672,-4.629012107849121,4.78941535949707,-4.24500846862793,1381.5317027568817
D4:22:CD:00:05:6B,-22.98390007019043,51.27084732055664,-136.87109375,-7.5420684814453125,-6.085582733154297,-26.543933868408203,1381.5317027568817
D4:22:CD:00:49:AA,-127.72734069824219,-84.05317687988281,64.48094940185547,0.2121141254901886,-1.1468780040740967,-4.361654281616211,1381.5317027568817
D4:22:CD:00:05:6E,76.0956039428711,-55.848411560058594,84.02117156982422,-0.09591329097747803,-3.5248055458068848,-10.800216674804688,1381.5317027568817
D4:22:CD:00:05:5E,-51.19774627685547,-54.09696960449219,-161.16580200195312,-13.89780044555664,-2.9817709922790527,-11.408477783203125,1381.5317027568817
D4:22:CD:00:05:5D,161.23809814453125,-67.80939483642578,71.34842681884766,-3.8097071647644043,9.185646057128906,-0.15674400329589844,1381.5573036670685
D4:22:CD:00:05:6B,-35.22354507446289,43.60493087768555,-148.63693237304688,-9.043689727783203,5.830268859863281,-16.178199768066406,1381.5573036670685
D4:22:CD:00:49:AA,-113.29166412353516,-84.62378692626953,50.59514617919922,-0.5080480575561523,0.8426764011383057,-1.2968759536743164,1381.5573036670685
D4:22:CD:00:05:6E,76.70614624023438,-49.52869415283203,83.49319458007812,0.3818483352661133,-5.212089538574219,-10.283540725708008,1381.5573036670685
D4:22:CD:00:05:5E,-70.85061645507812,-58.20905303955078,-146.20526123046875,-22.38262176513672,5.4011383056640625,-6.0516862869262695,1381.5573036670685
D4:22:CD:00:05:5D,160.61024475097656,-64.44976043701172,74.17926788330078,4.076245307922363,2.6565442085266113,4.2545166015625,1381.5874598026276
D4:22:CD:00:05:6B,-48.10890579223633,47.113468170166016,-140.3330841064453,-11.529314041137695,5.952071189880371,9.340936660766602,1381.5874598026276
D4:22:CD:00:49:AA,-112.89599609375,-84.76741027832031,49.48004913330078,-1.944063663482666,-3.218623161315918,2.497312545776367,1381.5874598026276
D4:22:CD:00:05:6E,77.35149383544922,-46.061283111572266,83.55168151855469,-0.37508153915405273,-7.686488151550293,-5.472036361694336,1381.5874598026276
D4:22:CD:00:05:5E,-80.40140533447266,-59.4561882019043,-136.23419189453125,0.4508517384529114,-13.04450798034668,1.2963275909423828,1381.5874598026276
D4:22:CD:00:05:5D,158.66650390625,-61.313079833984375,78.34230041503906,3.380557060241699,0.5111101865768433,6.798744201660156,1381.617458820343
D4:22:CD:00:05:6B,-39.78508377075195,52.35345458984375,-125.9540023803711,-14.475931167602539,-3.5562243461608887,-7.992297172546387,1381.617458820343
D4:22:CD:00:49:AA,-121.181640625,-85.07323455810547,55.82606506347656,-3.584023952484131,-1.0168507099151611,6.250978469848633,1381.617458820343
D4:22:CD:00:05:6E,77.65410614013672,-45.889305114746094,82.45457458496094,2.7301583290100098,-7.085488319396973,-0.8548030853271484,1381.617458820343
D4:22:CD:00:05:5E,-84.63201141357422,-61.20042037963867,-130.94935607910156,-9.867937088012695,-12.809635162353516,5.170843124389648,1381.617458820343
D4:22:CD:00:05:5D,155.2346649169922,-58.86772155761719,82.71356964111328,2.452238082885742,-1.283778429031372,4.834285736083984,1381.6470651626587
D4:22:CD:00:05:6B,-18.361562728881836,54.12188720703125,-100.51221466064453,-5.201125144958496,-6.611919403076172,-14.857275009155273,1381.6470651626587
D4:22:CD:00:49:AA,-123.67147827148438,-85.22127532958984,56.849327087402344,-3.1471495628356934,-1.9160852432250977,7.164880752563477,1381.6470651626587
D4:22:CD:00:05:6E,78.46961212158203,-47.77119445800781,79.07113647460938,12.485275268554688,-5.760435104370117,10.328977584838867,1381.6470651626587
D4:22:CD:00:05:5E,-91.59915924072266,-62.63263702392578,-125.64925384521484,0.9643394947052002,4.109348297119141,12.860397338867188,1381.6470651626587
D4:22:CD:00:05:5D,150.0132598876953,-58.01087951660156,87.32386779785156,-2.304098129272461,-1.5201952457427979,3.0117616653442383,1381.678066253662
D4:22:CD:00:05:6B,-3.567629814147949,47.571929931640625,-77.5311508178711,-12.336271286010742,-3.099273204803467,-3.6128296852111816,1381.678066253662
D4:22:CD:00:49:AA,-127.97539520263672,-84.63933563232422,60.04556655883789,1.240825891494751,-0.45535534620285034,2.3713855743408203,1381.678066253662
D4:22:CD:00:05:6E,75.6861572265625,-49.673828125,76.63231658935547,11.934085845947266,-4.6741132736206055,2.2319889068603516,1381.678066253662
D4:22:CD:00:05:5E,-99.60113525390625,-64.34795379638672,-120.17025756835938,-5.731151580810547,-1.38505220413208,-0.33507251739501953,1381.678066253662
D4:22:CD:00:05:5D,143.22410583496094,-58.71029281616211,91.52112579345703,-3.0621228218078613,2.8708105087280273,5.753134727478027,1381.7071249485016
D4:22:CD:00:05:6B,7.157496929168701,36.503543853759766,-65.00160217285156,-5.849393844604492,4.825486183166504,-1.3700685501098633,1381.7071249485016
D4:22:CD:00:49:AA,-134.17225646972656,-82.76980590820312,65.03462982177734,4.261423110961914,-0.47833919525146484,3.4783201217651367,1381.7071249485016
D4:22:CD:00:05:6E,76.86473846435547,-52.01188278198242,71.87574005126953,3.0256614685058594,2.5635104179382324,4.9671220779418945,1381.7071249485016
D4:22:CD:00:05:5E,-101.88990783691406,-67.39456176757812,-118.00314331054688,-5.733492851257324,-3.263357162475586,-0.0022020339965820312,1381.7071249485016
D4:22:CD:00:05:5D,133.07749938964844,-61.204246520996094,96.78050994873047,-4.698929786682129,8.97509765625,6.532098770141602,1381.7374880313873
D4:22:CD:00:05:6B,11.255293846130371,23.95863914489746,-55.622344970703125,-1.6904125213623047,5.265190124511719,-2.6815900802612305,1381.7374880313873
D4:22:CD:00:49:AA,-139.54635620117188,-80.01993560791016,67.35697937011719,8.975406646728516,1.3821747303009033,0.3603954315185547,1381.7374880313873
D4:22:CD:00:05:6E,79.42200469970703,-54.40715026855469,64.7094497680664,-1.8223350048065186,2.8915257453918457,3.425830841064453,1381.7374880313873
D4:22:CD:00:05:5E,-102.8018798828125,-69.68177032470703,-117.60286712646484,-8.116325378417969,-4.035566329956055,-2.9834141731262207,1381.7374880313873
D4:22:CD:00:05:5D,119.82867431640625,-63.32609939575195,97.62063598632812,-18.759761810302734,1.1546638011932373,-5.14607048034668,1381.7974128723145
D4:22:CD:00:05:6B,9.89456558227539,11.932151794433594,-46.41226577758789,4.690962791442871,1.1835763454437256,-4.3568315505981445,1381.7974128723145
D4:22:CD:00:49:AA,-147.27113342285156,-77.56041717529297,69.50017547607422,11.18228530883789,-2.7859106063842773,0.8366079330444336,1381.7974128723145
D4:22:CD:00:05:6E,82.63517761230469,-56.63058090209961,58.581111907958984,-2.865598201751709,0.7645680904388428,1.5602083206176758,1381.7974128723145
D4:22:CD:00:05:5E,-101.21992492675781,-71.36390686035156,-120.59765625,-5.507887840270996,-1.4345653057098389,-1.1487312316894531,1381.7974128723145
D4:22:CD:00:05:5D,122.87854766845703,-61.235870361328125,87.06529235839844,-21.41710662841797,-3.6511435508728027,4.105783462524414,1381.8272955417633
D4:22:CD:00:05:6B,5.532387733459473,4.211198806762695,-38.77981948852539,5.323850631713867,10.417217254638672,0.5298681259155273,1381.8272955417633
D4:22:CD:00:49:AA,-153.44851684570312,-76.55622863769531,71.83020782470703,-0.5461046695709229,1.3790240287780762,4.823887825012207,1381.8272955417633
D4:22:CD:00:05:6E,85.59803771972656,-58.52687454223633,54.02619171142578,-6.929167747497559,0.988814115524292,0.48172569274902344,1381.8272955417633
D4:22:CD:00:05:5E,-97.89618682861328,-72.71231842041016,-125.6082992553711,-4.716368675231934,-2.8631529808044434,-1.445176124572754,1381.8272955417633
D4:22:CD:00:05:5D,133.38223266601562,-55.19162368774414,72.66422271728516,-11.357070922851562,-0.5352189540863037,2.7807140350341797,1381.8577809333801
D4:22:CD:00:05:6B,-6.216830730438232,1.5618364810943604,-36.33872985839844,-5.344626426696777,-1.0781505107879639,-0.4964561462402344,1381.8577809333801
D4:22:CD:00:49:AA,-156.34207153320312,-76.57486724853516,73.30512237548828,-0.07886698842048645,1.755345344543457,-0.9641885757446289,1381.8577809333801
D4:22:CD:00:05:6E,88.07951354980469,-60.2630729675293,50.674293518066406,-4.443262100219727,-0.10383853316307068,0.9311447143554688,1381.8577809333801
D4:22:CD:00:05:5E,-91.92467498779297,-74.22801971435547,-132.9388885498047,-3.357448101043701,-0.9624046087265015,-1.9150185585021973,1381.8577809333801
D4:22:CD:00:05:5D,142.5122528076172,-47.29258728027344,60.27949523925781,-3.5427441596984863,1.9789433479309082,-2.318218231201172,1381.8869161605835
D4:22:CD:00:05:6B,-10.19608211517334,1.180873155593872,-37.991058349609375,-5.579944610595703,-1.208204746246338,10.4320068359375,1381.8869161605835
D4:22:CD:00:49:AA,-159.67591857910156,-76.07554626464844,75.2755126953125,4.7951507568359375,-0.2390584945678711,-1.6534748077392578,1381.8869161605835
D4:22:CD:00:05:6E,91.4491958618164,-61.06057357788086,48.11668014526367,-2.295358657836914,-1.82844877243042,-0.04696464538574219,1381.8869161605835
D4:22:CD:00:05:5E,-90.99845123291016,-74.87483978271484,-134.90457153320312,-2.8098111152648926,-1.52699613571167,-2.0060482025146484,1381.8869161605835
D4:22:CD:00:05:5D,151.58462524414062,-39.06584930419922,50.0924186706543,1.4967975616455078,1.3909294605255127,-7.378479957580566,1381.9171965122223
D4:22:CD:00:05:6B,-18.102886199951172,-0.4364055097103119,-39.99738693237305,2.326293468475342,12.17353630065918,-4.189690589904785,1381.9171965122223
D4:22:CD:00:49:AA,-163.31298828125,-76.0678482055664,78.30442810058594,1.499046802520752,1.1191847324371338,-2.4758706092834473,1381.9171965122223
D4:22:CD:00:05:6E,94.33995056152344,-60.569332122802734,45.661373138427734,-2.568286418914795,-3.363532066345215,-2.3846793174743652,1381.9171965122223
D4:22:CD:00:05:5E,-97.1253662109375,-74.80220794677734,-129.51182556152344,-2.211984634399414,-2.941895008087158,-2.234724998474121,1381.9171965122223
D4:22:CD:00:05:5D,159.2238006591797,-32.275421142578125,41.925331115722656,4.111438751220703,0.8433774709701538,-11.510307312011719,1381.9474868774414
D4:22:CD:00:05:6B,-32.62025833129883,-6.494243621826172,-38.59137725830078,-9.346179962158203,-3.524059772491455,-0.14313316345214844,1381.9474868774414
D4:22:CD:00:49:AA,-164.6774139404297,-76.19779968261719,79.1259765625,-0.6661604642868042,0.910662055015564,-5.596562385559082,1381.9474868774414
D4:22:CD:00:05:6E,95.21021270751953,-59.545372009277344,42.51906967163086,0.13848716020584106,-1.270456314086914,-4.272127151489258,1381.9474868774414
D4:22:CD:00:05:5E,-110.80278015136719,-72.70569610595703,-116.87377166748047,-3.00538969039917,-1.3313491344451904,-2.615993022918701,1381.9474868774414
D4:22:CD:00:05:5D,164.6499481201172,-28.614992141723633,34.86101531982422,6.27375602722168,-1.8136370182037354,-11.196920394897461,1381.976779460907
D4:22:CD:00:05:6B,-39.158573150634766,-18.373706817626953,-34.7310905456543,-0.9672211408615112,-0.7745093107223511,-5.271869659423828,1381.976779460907
D4:22:CD:00:49:AA,-163.7232208251953,-75.84297180175781,78.22833251953125,0.3173416256904602,-0.2444097399711609,-7.128744125366211,1381.976779460907
D4:22:CD:00:05:6E,95.47201538085938,-58.50086975097656,39.71281814575195,1.8084826469421387,-0.5969967842102051,-4.790755271911621,1381.976779460907
D4:22:CD:00:05:5E,-124.1720199584961,-68.83609008789062,-105.19754791259766,-4.6514892578125,-1.7188711166381836,-1.3186407089233398,1381.976779460907
D4:22:CD:00:05:5D,165.70346069335938,-28.790842056274414,28.731887817382812,10.254997253417969,-0.7451611757278442,-15.639484405517578,1382.0071527957916
D4:22:CD:00:05:6B,-43.132972717285156,-35.91178894042969,-27.981063842773438,7.748516082763672,-5.804899215698242,-1.1211652755737305,1382.0071527957916
D4:22:CD:00:49:AA,-160.91473388671875,-75.62970733642578,76.39624786376953,2.45225191116333,1.4762763977050781,-6.3918256759643555,1382.0071527957916
D4:22:CD:00:05:6E,94.18789672851562,-57.206424713134766,39.042198181152344,3.0261054039001465,-0.37285369634628296,-4.381135940551758,1382.0071527957916
D4:22:CD:00:05:5E,-131.0562286376953,-64.38157653808594,-98.47732543945312,-4.464874267578125,-1.6855754852294922,-1.9886956214904785,1382.0071527957916
D4:22:CD:00:05:5D,167.95689392089844,-31.820751190185547,24.71856689453125,6.599649429321289,2.826190948486328,-1.8542308807373047,1382.0366604328156
D4:22:CD:00:05:6B,-42.07941436767578,-55.20877456665039,-21.719383239746094,19.425731658935547,1.4631175994873047,21.673053741455078,1382.0366604328156
D4:22:CD:00:49:AA,-160.13059997558594,-75.22240447998047,75.12805938720703,5.0109148025512695,1.650374174118042,-4.651732444763184,1382.0366604328156
D4:22:CD:00:05:6E,92.67850494384766,-54.96675491333008,41.97144317626953,7.314486503601074,-2.781447410583496,-1.9241118431091309,1382.0366604328156
D4:22:CD:00:05:5E,-134.93634033203125,-61.366947174072266,-94.74837493896484,-5.718669891357422,-2.9509100914001465,-0.8742847442626953,1382.0366604328156
D4:22:CD:00:05:5D,169.59092712402344,-33.37906265258789,24.190277099609375,17.823562622070312,0.714576244354248,14.914976119995117,1382.0977938175201
D4:22:CD:00:05:6B,-31.875062942504883,-64.88768005371094,-27.185209274291992,8.84605598449707,3.0143566131591797,27.408344268798828,1382.0977938175201
D4:22:CD:00:49:AA,-162.41786193847656,-74.61249542236328,75.12906646728516,0.1907479465007782,-1.925344467163086,-2.8351311683654785,1382.0977938175201
D4:22:CD:00:05:6E,90.955810546875,-50.69068908691406,53.686370849609375,10.973245620727539,-3.7320432662963867,8.485191345214844,1382.0977938175201
D4:22:CD:00:05:5E,-136.31016540527344,-60.52263641357422,-92.06111907958984,-4.419564247131348,0.13991284370422363,1.0276727676391602,1382.0977938175201
D4:22:CD:00:05:5D,171.34666442871094,-33.03239059448242,26.04900360107422,23.96178436279297,3.241626739501953,10.673967361450195,1382.1272175312042
D4:22:CD:00:05:6B,-28.83389663696289,-61.14540481567383,-27.72186851501465,11.728513717651367,-2.921952724456787,13.047853469848633,1382.1272175312042
D4:22:CD:00:49:AA,-168.46356201171875,-73.24901580810547,79.99890899658203,-0.18113353848457336,1.1287891864776611,6.535972595214844,1382.1272175312042
D4:22:CD:00:05:6E,90.79598999023438,-40.410186767578125,70.65120697021484,-3.618258476257324,3.664522647857666,22.45608901977539,1382.1272175312042
D4:22:CD:00:05:5E,-137.61123657226562,-60.10221481323242,-90.2085189819336,-5.80235481262207,-0.9903098344802856,-0.9956302642822266,1382.1272175312042
D4:22:CD:00:05:5D,171.71775817871094,-29.434782028198242,27.05575180053711,24.01168441772461,4.939310073852539,12.082666397094727,1382.1577339172363
D4:22:CD:00:05:6B,-32.48114776611328,-49.06245803833008,-24.51620864868164,8.518060684204102,-5.188521385192871,21.315242767333984,1382.1577339172363
D4:22:CD:00:49:AA,-172.91041564941406,-70.73853302001953,82.88629913330078,0.15562224388122559,-2.5575942993164062,10.252758026123047,1382.1577339172363
D4:22:CD:00:05:6E,101.59642791748047,-26.036531448364258,86.10734558105469,5.6999616622924805,-13.032833099365234,18.509563446044922,1382.1577339172363
D4:22:CD:00:05:5E,-138.4927215576172,-59.977176666259766,-89.69572448730469,-5.917880058288574,-0.24986153841018677,0.012471199035644531,1382.1577339172363
D4:22:CD:00:05:5D,170.24114990234375,-24.147661209106445,27.570768356323242,13.277570724487305,2.7242465019226074,11.242542266845703,1382.1877329349518
D4:22:CD:00:05:6B,-34.930416107177734,-35.59583282470703,-26.789844512939453,9.227184295654297,-10.08735466003418,8.375629425048828,1382.1877329349518
D4:22:CD:00:49:AA,-175.53892517089844,-70.42115783691406,84.56018829345703,4.848395347595215,2.0607213973999023,5.284182548522949,1382.1877329349518
D4:22:CD:00:05:6E,105.61519622802734,-7.4186577796936035,95.96414184570312,10.295839309692383,-12.063243865966797,23.564449310302734,1382.1877329349518
D4:22:CD:00:05:5E,-139.16331481933594,-60.410850524902344,-90.5810775756836,-4.929727554321289,-0.3603171706199646,1.1083927154541016,1382.1877329349518
D4:22:CD:00:05:5D,169.15969848632812,-19.724069595336914,26.973186492919922,8.338619232177734,0.1518166959285736,8.708431243896484,1382.217206478119
D4:22:CD:00:05:6B,-38.28947067260742,-23.814380645751953,-31.461252212524414,2.108696937561035,-9.354013442993164,-1.7078971862792969,1382.217206478119
D4:22:CD:00:49:AA,-179.5586395263672,-70.63493347167969,87.67210388183594,5.6898298263549805,4.878235816955566,10.318449020385742,1382.217206478119
D4:22:CD:00:05:6E,99.29598236083984,12.62460994720459,96.64896392822266,4.058038711547852,0.07057733833789825,13.291568756103516,1382.217206478119
D4:22:CD:00:05:5E,-138.85374450683594,-62.811805725097656,-92.5955810546875,-4.572580337524414,-0.40182286500930786,2.510080337524414,1382.217206478119
D4:22:CD:00:05:5D,165.5477294921875,-17.361373901367188,25.91161346435547,1.8603456020355225,-1.0912599563598633,1.4184513092041016,1382.2479429244995
D4:22:CD:00:05:6B,-41.804378509521484,-16.3178768157959,-36.923221588134766,-3.631621837615967,-4.368346214294434,-3.5305123329162598,1382.2479429244995
D4:22:CD:00:49:AA,177.93020629882812,-70.61884307861328,89.296142578125,3.81032133102417,3.1858363151550293,9.521553039550781,1382.2479429244995
D4:22:CD:00:05:6E,85.64079284667969,28.768692016601562,91.00416564941406,-9.821950912475586,0.5426563024520874,7.971704483032227,1382.2479429244995
D4:22:CD:00:05:5E,-134.303466796875,-68.59717559814453,-97.85752868652344,-4.297104835510254,-2.5428757667541504,6.530357360839844,1382.2479429244995
D4:22:CD:00:05:5D,164.54310607910156,-17.859689712524414,25.222808837890625,0.04429614543914795,-0.43289148807525635,-9.005435943603516,1382.2779393196106
D4:22:CD:00:05:6B,-46.577945709228516,-14.16513442993164,-42.02915573120117,-3.9809207916259766,-2.0175185203552246,1.1917762756347656,1382.2779393196106
D4:22:CD:00:49:AA,176.25949096679688,-71.0220718383789,90.82373809814453,4.087064743041992,2.3680195808410645,6.682949066162109,1382.2779393196106
D4:22:CD:00:05:6E,67.57044219970703,39.06644058227539,82.41378021240234,-13.849546432495117,-0.8630373477935791,-0.5748357772827148,1382.2779393196106
D4:22:CD:00:05:5E,-107.7349624633789,-76.41644287109375,-118.7620849609375,-0.30054420232772827,1.2815301418304443,5.886335372924805,1382.2779393196106
D4:22:CD:00:05:5D,164.13201904296875,-22.73571014404297,25.00415802001953,4.590059280395508,-1.6277332305908203,-16.461627960205078,1382.307934999466
D4:22:CD:00:05:6B,-49.9822883605957,-17.18402671813965,-46.96778106689453,-3.482522964477539,1.155261516571045,2.010500907897949,1382.307934999466
D4:22:CD:00:49:AA,174.9053497314453,-71.30148315429688,91.86189270019531,2.73663330078125,1.687187671661377,2.7029953002929688,1382.307934999466
D4:22:CD:00:05:6E,51.16018295288086,43.6068229675293,75.2602310180664,1.1391956806182861,-9.970502853393555,-10.585441589355469,1382.307934999466
D4:22:CD:00:05:5E,-92.72164916992188,-77.47322845458984,-132.32391357421875,-5.041387557983398,1.9839670658111572,-4.42423152923584,1382.307934999466
D4:22:CD:00:05:5D,160.19772338867188,-32.58122634887695,25.05927085876465,7.527472496032715,-2.2732973098754883,-15.069513320922852,1382.3377640247345
D4:22:CD:00:05:6B,-52.84463882446289,-23.222288131713867,-52.009254455566406,-1.83160400390625,1.0293476581573486,-4.129791259765625,1382.3377640247345
D4:22:CD:00:49:AA,176.03257751464844,-71.25506591796875,90.99779510498047,0.08393357694149017,0.2533165216445923,-3.775247097015381,1382.3377640247345
D4:22:CD:00:05:6E,47.01974105834961,44.60976791381836,74.63541412353516,4.599086761474609,-8.613410949707031,-10.333986282348633,1382.3377640247345
D4:22:CD:00:05:5E,-92.93346405029297,-75.26286315917969,-129.751708984375,-5.855210304260254,10.89437484741211,-5.3830766677856445,1382.3377640247345
D4:22:CD:00:05:5D,154.70053100585938,-45.79431915283203,26.756275177001953,6.7834577560424805,1.4753646850585938,-10.222721099853516,1382.3971934318542
D4:22:CD:00:05:6B,-56.888206481933594,-30.13806915283203,-56.593467712402344,-2.18668794631958,-0.36436378955841064,-7.510278701782227,1382.3971934318542
D4:22:CD:00:49:AA,178.8291015625,-71.74427795410156,89.30113983154297,-0.6556214094161987,-1.7376506328582764,-7.802647590637207,1382.3971934318542
D4:22:CD:00:05:6E,42.44660568237305,43.230403900146484,79.07196807861328,-7.896906852722168,-4.316226005554199,-6.714836120605469,1382.3971934318542
D4:22:CD:00:05:5E,-99.762939453125,-71.47223663330078,-123.1706314086914,4.047177314758301,-6.785836219787598,-11.161725997924805,1382.3971934318542
D4:22:CD:00:05:5D,150.2972412109375,-60.586795806884766,31.183256149291992,4.231148719787598,2.0757241249084473,-0.9355611801147461,1382.4273116588593
D4:22:CD:00:05:6B,-60.78667068481445,-36.250484466552734,-60.64060592651367,-1.2011044025421143,1.0029170513153076,-6.34041690826416,1382.4273116588593
D4:22:CD:00:49:AA,-179.61648559570312,-72.44892883300781,88.53190612792969,0.4030950665473938,1.2202415466308594,-10.884542465209961,1382.4273116588593
D4:22:CD:00:05:6E,28.111915588378906,39.166297912597656,89.48323059082031,8.574243545532227,-6.060925483703613,-11.596321105957031,1382.4273116588593
D4:22:CD:00:05:5E,-104.15876007080078,-70.70513916015625,-124.56694030761719,-13.467649459838867,-3.782823085784912,-12.336164474487305,1382.4273116588593
D4:22:CD:00:05:5D,139.51052856445312,-76.2356185913086,45.638545989990234,1.1175272464752197,8.803201675415039,9.992256164550781,1382.4568183422089
D4:22:CD:00:05:6B,-63.408409118652344,-40.49113464355469,-64.47492980957031,-1.1204934120178223,3.801919460296631,-4.299426078796387,1382.4568183422089
D4:22:CD:00:49:AA,179.14096069335938,-73.68827056884766,89.67952728271484,2.0562996864318848,0.9519891738891602,-9.461906433105469,1382.4568183422089
D4:22:CD:00:05:6E,19.730571746826172,34.824066162109375,104.57000732421875,-0.731217622756958,3.6205391883850098,-10.354730606079102,1382.4568183422089
D4:22:CD:00:05:5E,-110.87035369873047,-69.41311645507812,-121.27615356445312,-8.98759651184082,-10.419898986816406,-13.876914978027344,1382.4568183422089
D4:22:CD:00:05:5D,62.605289459228516,-83.48892211914062,133.94989013671875,-18.206069946289062,7.1617536544799805,10.946012496948242,1382.4868886470795
D4:22:CD:00:05:6B,-63.99549865722656,-42.92306137084961,-68.11157989501953,-2.0860676765441895,5.032817840576172,-5.403682708740234,1382.4868886470795
D4:22:CD:00:49:AA,173.68179321289062,-76.44190216064453,94.6689682006836,1.3914930820465088,-0.39278924465179443,-8.529766082763672,1382.4868886470795
D4:22:CD:00:05:6E,16.359798431396484,30.28712272644043,122.30978393554688,-14.688125610351562,18.417808532714844,-16.138439178466797,1382.4868886470795
D4:22:CD:00:05:5E,-115.53632354736328,-67.81103515625,-116.74725341796875,0.42219191789627075,-0.8198374509811401,0.9746274948120117,1382.4868886470795
D4:22:CD:00:05:5D,36.96292495727539,-77.83927154541016,171.44827270507812,-13.478511810302734,-17.090587615966797,-14.852731704711914,1382.5178864002228
D4:22:CD:00:05:6B,-63.68085861206055,-43.796607971191406,-70.60845184326172,-1.787858486175537,6.170671463012695,-4.023271560668945,1382.5178864002228
D4:22:CD:00:49:AA,170.58731079101562,-78.62129211425781,98.20635986328125,-2.422438144683838,-2.327524185180664,-7.898183822631836,1382.5178864002228
D4:22:CD:00:05:6E,18.639636993408203,29.632516860961914,138.00047302246094,-14.03071403503418,17.858509063720703,-22.61072540283203,1382.5178864002228
D4:22:CD:00:05:5E,-121.31078338623047,-64.61579895019531,-112.67316436767578,-2.3313207626342773,-4.162405967712402,4.008919715881348,1382.5178864002228
D4:22:CD:00:05:5D,47.53517532348633,-77.88504791259766,163.44100952148438,-19.896156311035156,0.5819483995437622,-9.991451263427734,1382.547752380371
D4:22:CD:00:05:6B,-61.24070739746094,-43.68220901489258,-72.50662994384766,-0.47969722747802734,5.814775466918945,-3.3668298721313477,1382.547752380371
D4:22:CD:00:49:AA,176.04330444335938,-78.23120880126953,93.18342590332031,5.439545631408691,-2.2978458404541016,-0.7020492553710938,1382.547752380371
D4:22:CD:00:05:6E,34.22124099731445,34.1566276550293,135.73570251464844,11.279293060302734,-3.229389190673828,-3.784623146057129,1382.547752380371
D4:22:CD:00:05:5E,-124.72779083251953,-61.36521911621094,-110.53644561767578,-5.708728790283203,-5.442527770996094,3.6067161560058594,1382.547752380371
D4:22:CD:00:05:5D,94.38191223144531,-77.77259826660156,125.4601821899414,-12.963623046875,-10.530933380126953,0.7329807281494141,1382.5768592357635
D4:22:CD:00:05:6B,-58.17742919921875,-42.57577133178711,-74.78036499023438,0.8981983661651611,3.390058994293213,-3.9624781608581543,1382.5768592357635
D4:22:CD:00:49:AA,173.56256103515625,-77.1192398071289,93.79542541503906,11.287801742553711,0.017985939979553223,4.089351654052734,1382.5768592357635
D4:22:CD:00:05:6E,54.30371856689453,41.092281341552734,126.22342681884766,-4.0244550704956055,3.629117012023926,-7.270066261291504,1382.5768592357635
D4:22:CD:00:05:5E,-122.50467681884766,-59.5856819152832,-111.26132202148438,-5.344890594482422,-0.5455247163772583,3.119386672973633,1382.5768592357635
D4:22:CD:00:05:5D,116.27461242675781,-74.54969787597656,105.43779754638672,8.355352401733398,1.178466558456421,6.839094161987305,1382.6068587303162
D4:22:CD:00:05:6B,-56.82400131225586,-42.905364990234375,-76.99665832519531,-0.29720473289489746,1.9452545642852783,-1.6334161758422852,1382.6068587303162
D4:22:CD:00:49:AA,172.18565368652344,-76.4234848022461,94.70033264160156,1.9569265842437744,1.393479585647583,3.311735153198242,1382.6068587303162
D4:22:CD:00:05:6E,70.72509002685547,48.69553756713867,115.44152069091797,-1.6646835803985596,-8.360651016235352,-4.730050086975098,1382.6068587303162
D4:22:CD:00:05:5E,-118.84455871582031,-58.22041702270508,-114.50499725341797,-6.495369911193848,-4.521204948425293,4.159400939941406,1382.6068587303162
D4:22:CD:00:05:5D,124.45342254638672,-72.2195053100586,96.43220520019531,-3.0241284370422363,7.099759101867676,2.0382537841796875,1382.6373937129974
D4:22:CD:00:05:6B,-56.345149993896484,-46.05247497558594,-77.73780822753906,-0.3300647735595703,2.6670169830322266,7.112186431884766,1382.6373937129974
D4:22:CD:00:49:AA,175.4998321533203,-75.1685562133789,91.68096160888672,0.6397258043289185,2.5582499504089355,8.216705322265625,1382.6373937129974
D4:22:CD:00:05:6E,78.48131561279297,54.1126823425293,97.44828033447266,-12.410064697265625,1.309556484222412,0.3216886520385742,1382.6373937129974
D4:22:CD:00:05:5E,-113.5083999633789,-57.023746490478516,-118.5503921508789,-4.784243583679199,-6.800907135009766,4.175484657287598,1382.6373937129974
D4:22:CD:00:05:5D,135.76377868652344,-70.86182403564453,86.89207458496094,2.35272216796875,-0.14276421070098877,2.71994686126709,1382.6973683834076
D4:22:CD:00:05:6B,-54.262569427490234,-50.2764892578125,-76.27088928222656,1.8989779949188232,1.359114408493042,10.724187850952148,1382.6973683834076
D4:22:CD:00:49:AA,177.4429931640625,-74.9177474975586,91.11483764648438,4.403918266296387,-1.016312837600708,3.9589004516601562,1382.6973683834076
D4:22:CD:00:05:6E,67.70597839355469,53.08393096923828,73.71395111083984,-5.744476318359375,7.095276832580566,-1.8988995552062988,1382.6973683834076
D4:22:CD:00:05:5E,-100.20941162109375,-57.08196258544922,-126.27518463134766,-1.1644108295440674,-14.366329193115234,2.628520965576172,1382.6973683834076
D4:22:CD:00:05:5D,147.42820739746094,-70.90550231933594,76.0190200805664,4.759407997131348,2.363771915435791,5.432271957397461,1382.7276937961578
D4:22:CD:00:05:6B,-52.893123626708984,-53.3849983215332,-73.10325622558594,6.491257667541504,2.1337451934814453,10.551115036010742,1382.7276937961578
D4:22:CD:00:49:AA,178.83274841308594,-74.22696685791016,92.46054077148438,0.5266472101211548,-0.5049573183059692,1.220637321472168,1382.7276937961578
D4:22:CD:00:05:6E,57.59611892700195,46.73251724243164,53.47282028198242,-5.5039873123168945,-1.6245620250701904,-3.102630615234375,1382.7276937961578
D4:22:CD:00:05:5E,-88.3503189086914,-55.9350700378418,-129.3050994873047,-25.449748992919922,0.3029440641403198,-13.74835205078125,1382.7276937961578
D4:22:CD:00:05:5D,157.50799560546875,-70.32418060302734,68.1256103515625,-0.0034274314530193806,-3.6569933891296387,-1.6056900024414062,1382.7572638988495
D4:22:CD:00:05:6B,-53.78648376464844,-55.67357635498047,-70.1410140991211,3.367785930633545,-0.906798243522644,2.692019462585449,1382.7572638988495
D4:22:CD:00:49:AA,177.94976806640625,-72.28783416748047,96.45018005371094,-2.798208713531494,-1.1350913047790527,0.8275203704833984,1382.7572638988495
D4:22:CD:00:05:6E,52.435604095458984,36.503021240234375,37.7767333984375,-2.161593437194824,-4.789414405822754,-9.897769927978516,1382.7572638988495
D4:22:CD:00:05:5E,-82.7436294555664,-55.565032958984375,-124.64164733886719,-29.324840545654297,5.294336318969727,-6.733227729797363,1382.7572638988495
D4:22:CD:00:05:5D,167.82765197753906,-70.58032989501953,58.132015228271484,0.5259126424789429,1.140418291091919,2.466379165649414,1382.7875368595123
D4:22:CD:00:05:6B,-57.06052017211914,-57.40534210205078,-65.1498794555664,-4.241965293884277,-0.5959898233413696,1.1699810028076172,1382.7875368595123
D4:22:CD:00:49:AA,177.209228515625,-70.52592468261719,101.31732940673828,-5.920012474060059,0.4747276306152344,0.5612716674804688,1382.7875368595123
D4:22:CD:00:05:6E,56.005210876464844,24.67215919494629,26.811077117919922,7.807090759277344,-14.801187515258789,-14.615056991577148,1382.7875368595123
D4:22:CD:00:05:5E,-83.05793762207031,-55.756561279296875,-112.32548522949219,-19.551528930664062,-4.869058609008789,-8.88530158996582,1382.7875368595123
D4:22:CD:00:05:5D,176.33338928222656,-70.90643310546875,47.891990661621094,-1.2847797870635986,1.100102186203003,0.7280359268188477,1382.8177037239075
D4:22:CD:00:05:6B,-58.69216537475586,-58.57807922363281,-59.70099639892578,-4.719205856323242,-2.2185721397399902,-3.398451805114746,1382.8177037239075
D4:22:CD:00:49:AA,176.0053253173828,-70.3180923461914,104.26197052001953,-0.39159828424453735,1.1053886413574219,3.681502342224121,1382.8177037239075
D4:22:CD:00:05:6E,69.3857650756836,13.894085884094238,20.046836853027344,8.13467025756836,-1.962399959564209,-10.552631378173828,1382.8177037239075
D4:22:CD:00:05:5E,-94.52346801757812,-56.10883712768555,-93.9757308959961,-9.334476470947266,-5.366342544555664,-10.021183013916016,1382.8177037239075
D4:22:CD:00:05:5D,-177.02447509765625,-71.41297149658203,40.89928436279297,-1.4144415855407715,1.5374796390533447,0.4983549118041992,1382.8474235534668
D4:22:CD:00:05:6B,-59.86949920654297,-59.381591796875,-56.950050354003906,-7.773996353149414,-1.2534582614898682,-1.4589109420776367,1382.8474235534668
D4:22:CD:00:49:AA,173.35560607910156,-71.06490325927734,105.58930206298828,0.9550803899765015,0.3687118887901306,0.6769752502441406,1382.8474235534668
D4:22:CD:00:05:6E,85.05461120605469,5.540320873260498,15.847347259521484,2.700993061065674,5.381446838378906,-2.0246424674987793,1382.8474235534668
D4:22:CD:00:05:5E,-110.94673919677734,-55.836910247802734,-74.36192321777344,-2.278343677520752,-3.8965201377868652,-9.705062866210938,1382.8474235534668
D4:22:CD:00:05:5D,-171.46156311035156,-72.7895278930664,33.839141845703125,1.5601468086242676,0.47292107343673706,0.5600795745849609,1382.8774201869965
D4:22:CD:00:05:6B,-59.08790588378906,-59.29309844970703,-57.94719696044922,-6.475136756896973,-1.633840799331665,-0.410308837890625,1382.8774201869965
D4:22:CD:00:49:AA,171.1676025390625,-71.33378601074219,108.2650375366211,-5.6427001953125,2.9003000259399414,-1.0280752182006836,1382.8774201869965
D4:22:CD:00:05:6E,98.56917572021484,0.22700832784175873,11.757725715637207,-0.8487615585327148,5.029034614562988,11.611656188964844,1382.8774201869965
D4:22:CD:00:05:5E,-128.26861572265625,-54.25078582763672,-57.2999267578125,2.269293785095215,-0.43189120292663574,-9.114862442016602,1382.8774201869965
D4:22:CD:00:05:5D,-167.18496704101562,-73.70308685302734,26.812238693237305,2.075186252593994,-0.28704124689102173,-0.45160388946533203,1382.9074308872223
D4:22:CD:00:05:6B,-56.61799240112305,-57.7552604675293,-61.790714263916016,-3.3837332725524902,0.16659462451934814,-2.707218647003174,1382.9074308872223
D4:22:CD:00:49:AA,170.02548217773438,-71.96276092529297,110.00922393798828,-3.479708671569824,0.7644927501678467,-2.9195170402526855,1382.9074308872223
D4:22:CD:00:05:6E,107.63969421386719,-2.54667329788208,8.044654846191406,-1.399411916732788,1.2826259136199951,4.559234619140625,1382.9074308872223
D4:22:CD:00:05:5E,-142.71759033203125,-52.75019836425781,-44.85331726074219,3.0752358436584473,0.6891330480575562,-7.727042198181152,1382.9074308872223
D4:22:CD:00:05:5D,-166.14166259765625,-73.10137176513672,23.797149658203125,2.080568790435791,1.7075071334838867,-1.156397819519043,1382.9372427463531
D4:22:CD:00:05:6B,-54.94009017944336,-55.18271255493164,-66.67613983154297,-2.1746764183044434,0.23923420906066895,-3.790050983428955,1382.9372427463531
D4:22:CD:00:49:AA,168.45570373535156,-72.67627716064453,111.37750244140625,0.7915700674057007,0.025718852877616882,-5.779262542724609,1382.9372427463531
D4:22:CD:00:05:6E,113.92964935302734,-6.430721759796143,5.881706714630127,-0.11681148409843445,0.5936213731765747,1.5025434494018555,1382.9372427463531
D4:22:CD:00:05:5E,-155.09120178222656,-52.5728874206543,-35.38189697265625,3.6237430572509766,0.5107212066650391,-4.468931198120117,1382.9372427463531
D4:22:CD:00:05:5D,-168.6474609375,-71.07261657714844,25.178163528442383,1.5988259315490723,4.122480392456055,-1.8602337837219238,1382.997251033783
D4:22:CD:00:05:6B,-52.643524169921875,-52.1173210144043,-72.29681396484375,-1.639845371246338,-0.3864753246307373,-5.6308135986328125,1382.997251033783
D4:22:CD:00:49:AA,164.5353240966797,-72.9286117553711,114.36544036865234,0.7839332818984985,-0.09742043912410736,-6.818569183349609,1382.997251033783
D4:22:CD:00:05:6E,119.3153076171875,-12.737523078918457,4.079222679138184,2.1345930099487305,-2.459285259246826,3.5919227600097656,1382.997251033783
D4:22:CD:00:05:5E,-162.7924041748047,-54.433433532714844,-28.00823211669922,9.617195129394531,0.10596200823783875,-2.2701358795166016,1382.997251033783
D4:22:CD:00:05:5D,-172.1727294921875,-67.80883026123047,29.385799407958984,0.05727764964103699,1.9935178756713867,-0.6896333694458008,1383.0277807712555
D4:22:CD:00:05:6B,-50.6196403503418,-48.65953826904297,-77.75554656982422,-1.1917164325714111,-0.7223283052444458,-7.00565242767334,1383.0277807712555
D4:22:CD:00:49:AA,158.4454345703125,-72.85138702392578,118.60379028320312,-1.3585014343261719,-0.6931703090667725,-6.884878158569336,1383.0277807712555
D4:22:CD:00:05:6E,119.12743377685547,-20.9197998046875,3.0187766551971436,3.169771194458008,-2.4118266105651855,4.092164039611816,1383.0277807712555
D4:22:CD:00:05:5E,-162.8980255126953,-59.073795318603516,-24.431684494018555,6.075410842895508,7.411416053771973,2.0232467651367188,1383.0277807712555
D4:22:CD:00:05:5D,-176.690185546875,-63.34880828857422,34.33884811401367,0.11958585679531097,2.476184844970703,-3.0588784217834473,1383.0569701194763
D4:22:CD:00:05:6B,-50.52493667602539,-44.81851577758789,-82.45703887939453,0.28903263807296753,-0.48490792512893677,-8.983388900756836,1383.0569701194763
D4:22:CD:00:49:AA,151.8493194580078,-72.3349380493164,123.06260681152344,-2.463892936706543,0.49341821670532227,-5.42266845703125,1383.0569701194763
D4:22:CD:00:05:6E,111.51825714111328,-29.97483253479004,2.4829823970794678,4.548556327819824,-3.1704235076904297,6.366550445556641,1383.0569701194763
D4:22:CD:00:05:5E,-159.5403594970703,-59.97060012817383,-25.312732696533203,-0.666885495185852,-1.119239330291748,16.536441802978516,1383.0569701194763
D4:22:CD:00:05:5D,-178.6409454345703,-57.84235382080078,38.02277755737305,0.05979457497596741,0.8451215028762817,0.6512012481689453,1383.087037563324
D4:22:CD:00:05:6B,-57.842872619628906,-40.50598907470703,-85.22122192382812,1.0267794132232666,1.3695387840270996,-9.336833953857422,1383.087037563324
D4:22:CD:00:49:AA,144.2118682861328,-72.89398956298828,130.6157684326172,-3.3141989707946777,-1.5181236267089844,-0.568974494934082,1383.087037563324
D4:22:CD:00:05:6E,92.26911163330078,-39.87206268310547,2.695969820022583,10.13187026977539,0.825340747833252,9.978967666625977,1383.087037563324
D4:22:CD:00:05:5E,-160.39646911621094,-58.288883209228516,-28.475095748901367,6.5344038009643555,-3.597445487976074,8.010404586791992,1383.087037563324
D4:22:CD:00:05:5D,-179.2852783203125,-52.64014434814453,41.605804443359375,-1.5377659797668457,1.3693320751190186,-0.6888866424560547,1383.1174190044403
D4:22:CD:00:05:6B,-71.30923461914062,-35.34308624267578,-85.44672393798828,-2.561826229095459,8.715896606445312,-0.2702369689941406,1383.1174190044403
D4:22:CD:00:49:AA,135.57852172851562,-72.61978149414062,139.8848876953125,2.25490140914917,-0.2814246416091919,-1.5607576370239258,1383.1174190044403
D4:22:CD:00:05:6E,69.51278686523438,-48.40507125854492,5.643025875091553,16.87297821044922,-0.9823260307312012,5.420482635498047,1383.1174190044403
D4:22:CD:00:05:5E,-160.59921264648438,-56.869598388671875,-30.83025550842285,5.078960418701172,-2.0400195121765137,13.622838973999023,1383.1174190044403
