Device,EulerX,EulerY,EulerZ,FreeAccX,FreeAccY,FreeAccZ,Timestamp
D4:22:CD:00:05:5D,-176.83888244628906,-53.41705322265625,-98.06783294677734,-2.376870632171631,1.3042011260986328,2.1579036712646484,2424.600933074951
D4:22:CD:00:05:6B,-86.42617797851562,21.87491226196289,-156.9886016845703,6.647444725036621,-11.331121444702148,19.37759780883789,2424.600933074951
D4:22:CD:00:49:AA,138.37307739257812,-69.14490509033203,147.55772399902344,-5.96170711517334,-4.069967269897461,10.862485885620117,2424.600933074951
D4:22:CD:00:05:6E,-79.5798110961914,-56.57041931152344,140.89451599121094,-5.019298553466797,20.50267791748047,6.256717681884766,2424.600933074951
D4:22:CD:00:05:5E,-162.50137329101562,-47.06977081298828,-143.558837890625,-13.966178894042969,3.8707404136657715,17.73651885986328,2424.600933074951
D4:22:CD:00:49:AA,143.72763061523438,-68.78649139404297,143.15037536621094,-0.5498892068862915,-0.16902250051498413,7.3431854248046875,2424.6039407253265
D4:22:CD:00:05:6E,-72.7952880859375,-50.60674285888672,144.31236267089844,-9.595287322998047,21.999858856201172,4.665350914001465,2424.6039407253265
D4:22:CD:00:05:5E,-160.2288818359375,-40.82523727416992,-139.081298828125,-0.6186444759368896,3.998070240020752,9.417417526245117,2424.6039407253265
D4:22:CD:00:05:5D,160.04991149902344,-37.743385314941406,-106.85465240478516,2.22442626953125,-2.9048171043395996,1.8165016174316406,2424.605941057205
D4:22:CD:00:05:6B,-50.823917388916016,13.24876594543457,-37.28688430786133,7.230177879333496,-6.75412654876709,31.375335693359375,2424.605941057205
D4:22:CD:00:49:AA,150.52935791015625,-67.52006530761719,138.46774291992188,-2.8845953941345215,3.3668603897094727,10.876907348632812,2424.605941057205
D4:22:CD:00:05:6E,-65.1351089477539,-45.89278030395508,148.61109924316406,-14.800603866577148,17.253753662109375,0.8704957962036133,2424.605941057205
D4:22:CD:00:05:5E,-160.556884765625,-37.711029052734375,-133.44578552246094,6.075728416442871,-1.6612868309020996,-0.8397464752197266,2424.605941057205
D4:22:CD:00:05:5D,164.48492431640625,-38.14464569091797,-109.17037200927734,3.2956371307373047,-4.44460391998291,1.2274770736694336,2424.6084756851196
D4:22:CD:00:05:6B,-43.570533752441406,10.82921028137207,-29.748661041259766,3.6018195152282715,-9.423545837402344,29.60791778564453,2424.6084756851196
D4:22:CD:00:49:AA,158.5851287841797,-66.48605346679688,132.90650939941406,-6.695695877075195,0.5373305082321167,10.346845626831055,2424.6084756851196
D4:22:CD:00:05:6E,-56.179420471191406,-42.99863815307617,153.6001434326172,-15.721235275268555,10.599531173706055,-6.630221366882324,2424.6084756851196
D4:22:CD:00:05:5E,-161.42384338378906,-38.98526382446289,-129.64474487304688,8.992269515991211,-10.322010040283203,-12.557882308959961,2424.6084756851196
D4:22:CD:00:05:5D,173.3282928466797,-41.261173248291016,-113.3505859375,-1.4169085025787354,-0.6752477884292603,2.2634525299072266,2424.611475467682
D4:22:CD:00:05:6B,-39.908302307128906,11.380468368530273,-17.731325149536133,7.871407508850098,-10.184368133544922,11.441356658935547,2424.611475467682
D4:22:CD:00:05:5D,176.0801544189453,-44.02531051635742,-114.17671203613281,-0.8514264822006226,0.46377885341644287,2.143059730529785,2424.68559217453
D4:22:CD:00:05:6B,-39.02788162231445,12.55969524383545,-12.144978523254395,2.6253790855407715,-10.541419982910156,7.396999359130859,2424.68559217453
D4:22:CD:00:49:AA,171.99508666992188,-81.27082061767578,114.9223861694336,-2.796527862548828,1.2895328998565674,10.079504013061523,2424.68559217453
D4:22:CD:00:05:6E,159.28988647460938,-56.24998092651367,-22.588054656982422,-6.34857177734375,-2.4836764335632324,12.439556121826172,2424.68559217453
D4:22:CD:00:05:5E,-108.01268768310547,-7.662917613983154,-68.90157318115234,9.335067749023438,8.062055587768555,-3.246392250061035,2424.68559217453
D4:22:CD:00:05:5D,177.2675018310547,-47.2025260925293,-114.68144226074219,-0.07496824860572815,0.707404375076294,3.8805599212646484,2424.7161428928375
D4:22:CD:00:05:6B,-34.85148620605469,14.233461380004883,-11.094624519348145,-4.098746299743652,-16.638023376464844,3.680333137512207,2424.7161428928375
D4:22:CD:00:49:AA,-155.0469207763672,-83.58931732177734,83.23023986816406,-1.5696251392364502,-0.21362608671188354,9.544401168823242,2424.7161428928375
D4:22:CD:00:05:6E,158.9005584716797,-50.05105972290039,-13.197571754455566,-5.445557594299316,-6.151649475097656,8.308069229125977,2424.7161428928375
D4:22:CD:00:05:5E,-93.45442199707031,-1.8520587682724,-75.38072204589844,11.632402420043945,5.352418899536133,-1.7687082290649414,2424.7161428928375
D4:22:CD:00:05:5D,177.79306030273438,-51.93948745727539,-114.8279800415039,-1.224626064300537,-1.0115435123443604,7.4836578369140625,2424.7451400756836
D4:22:CD:00:05:6B,-29.51219940185547,16.65444564819336,-13.586660385131836,-5.743369102478027,-7.590902328491211,-9.830192565917969,2424.7451400756836
D4:22:CD:00:49:AA,-115.01220703125,-81.50680541992188,47.099849700927734,-0.15428650379180908,1.7492787837982178,5.743940353393555,2424.7451400756836
D4:22:CD:00:05:6E,151.33621215820312,-45.569725036621094,-8.931901931762695,-9.769449234008789,-10.225826263427734,2.0407142639160156,2424.7451400756836
D4:22:CD:00:05:5E,-69.82644653320312,8.299982070922852,-88.84404754638672,8.239885330200195,-3.381991386413574,-2.2371621131896973,2424.7451400756836
D4:22:CD:00:05:5D,177.5210418701172,-57.91122817993164,-113.94208526611328,-5.911147117614746,-8.26820182800293,9.023099899291992,2424.775141954422
D4:22:CD:00:05:6B,-24.707834243774414,17.648752212524414,-17.479795455932617,-3.7110533714294434,4.087770462036133,-13.167224884033203,2424.775141954422
D4:22:CD:00:49:AA,-107.98058319091797,-80.4571304321289,45.10621643066406,0.5923564434051514,-1.0498883724212646,1.7643547058105469,2424.775141954422
D4:22:CD:00:05:6E,134.47702026367188,-39.627140045166016,-7.4741668701171875,-5.963845252990723,-2.503875255584717,2.6224632263183594,2424.775141954422
D4:22:CD:00:05:5E,-59.50784683227539,15.983769416809082,-103.3250503540039,3.4774527549743652,-7.951852798461914,-8.322246551513672,2424.775141954422
D4:22:CD:00:05:5D,170.67221069335938,-66.34431457519531,-111.66368103027344,-6.006376266479492,-5.191280364990234,-0.39858055114746094,2424.8051550388336
D4:22:CD:00:05:6B,-23.535058975219727,17.667985916137695,-22.52374839782715,-2.0937790870666504,8.037927627563477,-15.899547576904297,2424.8051550388336
D4:22:CD:00:49:AA,-109.96304321289062,-78.78750610351562,52.28180694580078,1.2467820644378662,-1.7678325176239014,-1.3206605911254883,2424.8051550388336
D4:22:CD:00:05:6E,122.10030364990234,-34.419960021972656,-7.60375452041626,3.424187660217285,-4.131073951721191,-9.894720077514648,2424.8051550388336
D4:22:CD:00:05:5E,-59.90974807739258,21.088727951049805,-120.06012725830078,-6.594374656677246,-7.961896896362305,-21.807762145996094,2424.8051550388336
D4:22:CD:00:05:5D,162.1825714111328,-70.48744201660156,-106.67054748535156,8.824016571044922,1.1529536247253418,-9.266563415527344,2424.8346886634827
D4:22:CD:00:05:6B,-27.758085250854492,16.30966567993164,-30.38936996459961,0.844806432723999,9.060857772827148,-17.23632049560547,2424.8346886634827
D4:22:CD:00:49:AA,-111.34019470214844,-77.39373779296875,56.66913604736328,2.7562427520751953,-0.35210543870925903,-6.476260185241699,2424.8346886634827
D4:22:CD:00:05:6E,123.1756591796875,-31.406787872314453,-5.278637409210205,2.947634220123291,-9.54254150390625,-9.602788925170898,2424.8346886634827
D4:22:CD:00:05:5E,-69.88938903808594,20.90376853942871,-138.60610961914062,-24.378963470458984,-7.241408348083496,-37.80421447753906,2424.8346886634827
D4:22:CD:00:05:5D,162.39036560058594,-73.8978042602539,-103.70234680175781,3.993290424346924,-3.9168505668640137,-10.421392440795898,2424.865040063858
D4:22:CD:00:05:6B,-34.23685073852539,11.988264083862305,-43.479217529296875,3.0181145668029785,4.054892539978027,-14.918249130249023,2424.865040063858
D4:22:CD:00:49:AA,-110.17455291748047,-77.70262145996094,56.3064079284668,3.6718029975891113,1.5824575424194336,-12.10511589050293,2424.865040063858
D4:22:CD:00:05:6E,124.25308227539062,-28.70120620727539,-0.7040729522705078,-0.7206544876098633,-8.305412292480469,-7.11834716796875,2424.865040063858
D4:22:CD:00:05:5E,-82.78768920898438,13.856524467468262,-152.05929565429688,-24.673053741455078,17.47665023803711,-15.928445816040039,2424.865040063858
D4:22:CD:00:05:5D,166.9622802734375,-78.36863708496094,-105.99771881103516,4.437966346740723,-2.887927532196045,-11.240348815917969,2424.9246118068695
D4:22:CD:00:05:6B,-36.71844482421875,1.7726281881332397,-61.772335052490234,5.767094612121582,-18.181503295898438,-14.795724868774414,2424.9246118068695
D4:22:CD:00:49:AA,-106.16841888427734,-79.17911529541016,52.956058502197266,1.550541877746582,1.2607848644256592,-8.270185470581055,2424.9246118068695
D4:22:CD:00:05:6E,121.00395965576172,-25.803831100463867,4.601100444793701,1.7317595481872559,-6.633705139160156,-10.088014602661133,2424.9246118068695
D4:22:CD:00:05:5E,-84.88706970214844,7.151705741882324,-158.63449096679688,-14.385967254638672,21.8560791015625,-4.367331504821777,2424.9246118068695
D4:22:CD:00:05:5D,172.7786865234375,-82.35823059082031,-111.821533203125,1.8068451881408691,12.53580093383789,-4.702169418334961,2424.9555332660675
D4:22:CD:00:05:6B,-37.36071014404297,-12.781868934631348,-77.06779479980469,-6.404753684997559,-38.89384460449219,7.524433135986328,2424.9555332660675
D4:22:CD:00:49:AA,-98.0835189819336,-80.43177032470703,44.90797424316406,-0.8727930784225464,0.9756731986999512,-9.950798034667969,2424.9555332660675
D4:22:CD:00:05:6E,117.70608520507812,-24.16897964477539,9.663015365600586,7.092001914978027,-3.835357189178467,-7.325478553771973,2424.9555332660675
D4:22:CD:00:05:5E,-87.67289733886719,4.852923393249512,-154.74981689453125,-8.612653732299805,11.512947082519531,-19.201675415039062,2424.9555332660675
D4:22:CD:00:05:5D,171.34918212890625,-80.94344329833984,-112.81244659423828,3.3976268768310547,7.302403450012207,0.0870676040649414,2424.9855346679688
D4:22:CD:00:05:6B,-56.05595016479492,-12.053205490112305,-69.61090087890625,-24.604034423828125,4.307070732116699,1.2788352966308594,2424.9855346679688
D4:22:CD:00:49:AA,-83.7860107421875,-81.08822631835938,30.42148780822754,0.26450294256210327,-0.33403193950653076,-8.231603622436523,2424.9855346679688
D4:22:CD:00:05:6E,117.07617950439453,-23.934724807739258,13.408620834350586,9.20176887512207,-1.4096291065216064,-3.6517205238342285,2424.9855346679688
D4:22:CD:00:05:5E,-93.50189971923828,5.081773281097412,-147.43667602539062,-12.685344696044922,-4.130958557128906,-9.507146835327148,2424.9855346679688
D4:22:CD:00:05:5D,171.11509704589844,-79.20927429199219,-111.88817596435547,-6.0509443283081055,-2.323047161102295,0.8568449020385742,2425.006767272949
D4:22:CD:00:05:6B,-58.084259033203125,-8.051435470581055,-58.612667083740234,0.26909875869750977,-9.565568923950195,0.7320966720581055,2425.006767272949
D4:22:CD:00:49:AA,-77.11286163330078,-81.33281707763672,23.977277755737305,-0.49871504306793213,-3.270390033721924,-0.5803413391113281,2425.006767272949
D4:22:CD:00:05:6E,117.30088806152344,-23.685026168823242,14.524503707885742,12.664131164550781,-5.235123634338379,1.0286741256713867,2425.006767272949
D4:22:CD:00:05:5E,-98.7469711303711,5.486903190612793,-138.94223022460938,-14.502700805664062,-3.3409857749938965,-21.094192504882812,2425.006767272949
D4:22:CD:00:05:5D,170.08792114257812,-78.45758819580078,-106.59796905517578,-5.651999473571777,-1.937941312789917,4.72263240814209,2425.045020341873
D4:22:CD:00:05:6B,-53.580162048339844,-2.952885150909424,-43.35680389404297,11.440589904785156,-11.545042037963867,-13.190664291381836,2425.045020341873
D4:22:CD:00:49:AA,-78.65423583984375,-81.9283447265625,23.085878372192383,2.63401460647583,-1.4908702373504639,3.759058952331543,2425.045020341873
D4:22:CD:00:05:6E,110.62767028808594,-22.572200775146484,13.746066093444824,11.47010612487793,-3.6442012786865234,5.752074241638184,2425.045020341873
D4:22:CD:00:05:5E,-112.69679260253906,6.675889015197754,-129.30059814453125,-17.430564880371094,2.960019588470459,-14.248102188110352,2425.045020341873
D4:22:CD:00:05:5D,165.4599151611328,-78.38351440429688,-99.93504333496094,-0.5183819532394409,-0.6173561811447144,4.362303733825684,2425.0753269195557
D4:22:CD:00:05:6B,-57.48240280151367,0.1448369026184082,-25.649826049804688,3.6538000106811523,-5.227969169616699,-0.29819679260253906,2425.0753269195557
D4:22:CD:00:49:AA,-78.62335205078125,-83.26809692382812,20.046215057373047,1.0198347568511963,-2.350834369659424,1.7364006042480469,2425.0753269195557
D4:22:CD:00:05:6E,94.54463958740234,-21.112821578979492,12.008421897888184,12.207569122314453,3.4839468002319336,-2.5185108184814453,2425.0753269195557
D4:22:CD:00:05:5E,-121.54795837402344,5.258896350860596,-125.28752899169922,8.171798706054688,-21.040794372558594,-2.4784955978393555,2425.0753269195557
D4:22:CD:00:05:5D,156.2366485595703,-78.4488525390625,-91.11885070800781,0.577210545539856,-2.9670157432556152,4.231635093688965,2425.1055817604065
D4:22:CD:00:05:6B,-54.406620025634766,-0.6467180252075195,-9.794190406799316,2.247854709625244,-1.1938612461090088,-0.5234155654907227,2425.1055817604065
D4:22:CD:00:49:AA,-81.09867095947266,-84.61467742919922,19.297395706176758,-3.6740455627441406,-3.0935935974121094,3.9637060165405273,2425.1055817604065
D4:22:CD:00:05:6E,76.72111511230469,-21.329565048217773,9.72264575958252,13.14002799987793,-1.0088281631469727,-12.397224426269531,2425.1055817604065
D4:22:CD:00:05:5E,-119.2444076538086,-0.10990635305643082,-124.10830688476562,-6.490898132324219,-17.05859375,-11.660404205322266,2425.1055817604065
D4:22:CD:00:05:5D,143.79811096191406,-76.97744750976562,-80.82496643066406,-0.6820617914199829,-4.911120414733887,1.4380455017089844,2425.135182619095
D4:22:CD:00:05:6B,-44.420501708984375,-2.8597283363342285,2.8592963218688965,-1.462876558303833,3.355670928955078,-0.20441341400146484,2425.135182619095
D4:22:CD:00:49:AA,-89.14429473876953,-85.12203216552734,24.092262268066406,1.4693505764007568,-3.1356639862060547,3.153326988220215,2425.135182619095
D4:22:CD:00:05:6E,66.53912353515625,-22.330419540405273,7.728704929351807,8.21938705444336,-2.782177448272705,-14.198225021362305,2425.135182619095
D4:22:CD:00:05:5E,-120.94499969482422,-3.978635549545288,-121.76959991455078,-6.705338478088379,-9.26335334777832,-11.457067489624023,2425.135182619095
D4:22:CD:00:05:5D,136.5384979248047,-73.6318359375,-76.28343200683594,2.8999853134155273,-8.740949630737305,7.072298049926758,2425.165246486664
D4:22:CD:00:05:6B,-37.64647674560547,-4.7698750495910645,13.959945678710938,-6.243154525756836,13.617437362670898,-19.363109588623047,2425.165246486664
D4:22:CD:00:49:AA,-107.67154693603516,-85.32429504394531,38.07142639160156,6.186857223510742,-2.0415244102478027,-4.669398307800293,2425.165246486664
D4:22:CD:00:05:6E,62.791587829589844,-22.86608123779297,6.833103656768799,4.261226654052734,5.229836463928223,-10.591230392456055,2425.165246486664
D4:22:CD:00:05:5E,-127.45003509521484,-3.9963390827178955,-117.92950439453125,-6.962918281555176,-8.964252471923828,-17.818405151367188,2425.165246486664
D4:22:CD:00:05:5D,130.6885986328125,-70.49466705322266,-73.43912506103516,8.255842208862305,-4.609947204589844,4.119088172912598,2425.195349216461
D4:22:CD:00:05:6B,-51.20515823364258,-6.164702892303467,25.893352508544922,-11.904150009155273,13.281578063964844,-16.72345733642578,2425.195349216461
D4:22:CD:00:49:AA,-131.23863220214844,-84.1447525024414,55.906585693359375,4.218836784362793,-2.7794547080993652,-5.419495582580566,2425.195349216461
D4:22:CD:00:05:6E,59.913082122802734,-23.57239532470703,7.703835487365723,6.342750549316406,8.178947448730469,-9.327167510986328,2425.195349216461
D4:22:CD:00:05:5E,-128.2577362060547,-1.2283686399459839,-113.85981750488281,-7.569548606872559,-9.484811782836914,-6.610684394836426,2425.195349216461
D4:22:CD:00:05:5D,131.84494018554688,-67.06149291992188,-80.70703125,18.64691162109375,16.362842559814453,1.855422019958496,2425.255163669586
D4:22:CD:00:05:6B,-70.37281036376953,-5.838634490966797,36.674034118652344,-7.7549896240234375,7.041842460632324,2.596489906311035,2425.255163669586
D4:22:CD:00:49:AA,-140.27354431152344,-81.89613342285156,61.108253479003906,-1.446531057357788,-3.9305295944213867,-0.2435321807861328,2425.255163669586
D4:22:CD:00:05:6E,60.25003433227539,-23.687984466552734,10.429900169372559,7.567034721374512,9.158931732177734,-6.477334976196289,2425.255163669586
D4:22:CD:00:05:5E,-129.32240295410156,1.9184342622756958,-110.8701171875,-6.931680679321289,-5.371519088745117,-6.569701194763184,2425.255163669586
D4:22:CD:00:05:5D,135.85885620117188,-60.164642333984375,-92.8702621459961,14.063177108764648,14.837167739868164,4.19785213470459,2425.285165309906
D4:22:CD:00:05:6B,-78.06275177001953,-4.203660488128662,44.350685119628906,-8.28350830078125,9.572103500366211,-2.6335854530334473,2425.285165309906
D4:22:CD:00:49:AA,-140.5936737060547,-81.0558090209961,62.06694030761719,-3.3570785522460938,0.4663870334625244,1.3075132369995117,2425.285165309906
D4:22:CD:00:05:6E,63.614505767822266,-22.1435546875,12.679997444152832,7.497957229614258,8.279973983764648,-6.406055450439453,2425.285165309906
D4:22:CD:00:05:5E,-129.49855041503906,3.8709282875061035,-108.781005859375,-5.649052619934082,-11.29890251159668,-6.5442047119140625,2425.285165309906
D4:22:CD:00:05:5D,139.73744201660156,-50.161563873291016,-103.64066314697266,9.437618255615234,5.618166923522949,-3.954522132873535,2425.3147134780884
D4:22:CD:00:05:6B,-88.4769058227539,-1.2456908226013184,50.516380310058594,-9.492511749267578,7.414952278137207,-8.256580352783203,2425.3147134780884
D4:22:CD:00:49:AA,-141.50027465820312,-80.84601593017578,63.9963264465332,4.396380424499512,3.2829580307006836,-3.2680745124816895,2425.3147134780884
D4:22:CD:00:05:6E,69.7121810913086,-19.457990646362305,13.50805377960205,10.491449356079102,7.542950630187988,-5.179962158203125,2425.3147134780884
D4:22:CD:00:05:5E,-128.37423706054688,4.988252639770508,-106.87591552734375,-6.509636878967285,-7.576662063598633,-8.826980590820312,2425.3147134780884
D4:22:CD:00:05:5D,145.9994659423828,-38.879791259765625,-112.59984588623047,5.042034149169922,0.8246006965637207,-9.413963317871094,2425.349707365036
D4:22:CD:00:05:6B,-96.36453247070312,0.6304460763931274,56.08731460571289,-8.787727355957031,4.552072525024414,-1.0693016052246094,2425.349707365036
D4:22:CD:00:49:AA,-145.3759002685547,-80.47374725341797,67.2850570678711,9.281694412231445,3.842419147491455,0.8138847351074219,2425.349707365036
D4:22:CD:00:05:6E,78.03072357177734,-16.164756774902344,13.528099060058594,10.475957870483398,6.707274436950684,-1.4568185806274414,2425.349707365036
D4:22:CD:00:05:5E,-127.68094635009766,5.980986595153809,-105.31827545166016,-7.499629020690918,-7.482172012329102,-9.374961853027344,2425.349707365036
D4:22:CD:00:05:5D,155.05455017089844,-27.641916275024414,-119.40621185302734,0.06956076622009277,-0.06656330823898315,-10.448659896850586,2425.3757128715515
D4:22:CD:00:05:6B,-97.78014373779297,-1.3956974744796753,64.26678466796875,-5.9720306396484375,3.346386432647705,-7.680703163146973,2425.3757128715515
D4:22:CD:00:49:AA,-150.38232421875,-79.93494415283203,71.83224487304688,2.7401232719421387,0.3850334882736206,4.405896186828613,2425.3757128715515
D4:22:CD:00:05:6E,83.05286407470703,-12.557531356811523,13.585857391357422,11.494173049926758,0.19070616364479065,-1.7141084671020508,2425.3757128715515
D4:22:CD:00:05:5E,-127.47509765625,7.314902305603027,-104.02069091796875,-6.6361188888549805,-6.887785911560059,-9.343204498291016,2425.3757128715515
D4:22:CD:00:05:5D,164.47520446777344,-18.602262496948242,-124.29507446289062,-4.982195854187012,1.1337251663208008,-11.818826675415039,2425.4047269821167
D4:22:CD:00:05:6B,-98.81986236572266,-8.641047477722168,77.6390380859375,0.37369394302368164,13.866802215576172,-6.516179084777832,2425.4047269821167
D4:22:CD:00:49:AA,-152.3015899658203,-79.80931091308594,75.13404846191406,-2.0433783531188965,-0.7659670114517212,-1.3479022979736328,2425.4047269821167
D4:22:CD:00:05:6E,86.4532699584961,-9.231945991516113,16.532079696655273,11.064254760742188,-2.0301971435546875,-2.4041171073913574,2425.4047269821167
D4:22:CD:00:05:5E,-127.24657440185547,8.63412094116211,-102.74822998046875,-6.253985404968262,-8.270299911499023,-8.297073364257812,2425.4047269821167
D4:22:CD:00:05:5D,170.4781036376953,-13.559819221496582,-128.52706909179688,-6.673412322998047,1.326122760772705,-11.344779968261719,2425.4352447986603
D4:22:CD:00:05:6B,-101.73678588867188,-21.209836959838867,95.24666595458984,-9.147201538085938,51.03224182128906,4.959834098815918,2425.4352447986603
D4:22:CD:00:49:AA,-148.9502410888672,-79.76380157470703,73.83660125732422,4.245741844177246,-0.4135679006576538,0.2843046188354492,2425.4352447986603
D4:22:CD:00:05:6E,89.82896423339844,-5.373041152954102,20.697599411010742,13.938528060913086,-2.4407873153686523,-4.227044105529785,2425.4352447986603
D4:22:CD:00:05:5E,-127.09308624267578,9.93553638458252,-101.40653991699219,-6.328728675842285,-7.278063774108887,-7.540461540222168,2425.4352447986603
D4:22:CD:00:05:5D,168.7496337890625,-14.545232772827148,-132.5414276123047,-11.897821426391602,0.488045871257782,-11.850334167480469,2425.46524477005
D4:22:CD:00:05:6B,-100.1392593383789,-32.89155197143555,103.50265502929688,-12.77161979675293,30.96572494506836,18.971282958984375,2425.46524477005
D4:22:CD:00:49:AA,-144.5789794921875,-80.11566925048828,71.15789794921875,8.534954071044922,2.552769660949707,1.6810617446899414,2425.46524477005
D4:22:CD:00:05:6E,96.95450592041016,-0.8202346563339233,29.182266235351562,16.20404052734375,-0.5862234830856323,4.128924369812012,2425.46524477005
D4:22:CD:00:05:5E,-127.68637084960938,10.877629280090332,-100.35900115966797,-6.616341590881348,-8.554250717163086,-7.666296005249023,2425.46524477005
D4:22:CD:00:05:5D,162.08590698242188,-21.06949806213379,-134.91949462890625,-11.205135345458984,-6.440895080566406,0.9875621795654297,2425.495265483856
D4:22:CD:00:05:6B,-90.19776153564453,-28.27311134338379,96.77860260009766,0.7702693939208984,22.889354705810547,-8.185630798339844,2425.495265483856
D4:22:CD:00:49:AA,-144.31765747070312,-80.47036743164062,70.78853607177734,1.8418903350830078,0.2963963747024536,-1.0419540405273438,2425.495265483856
D4:22:CD:00:05:6E,105.6326675415039,6.671422958374023,44.24739074707031,25.504432678222656,0.6335036754608154,7.581315994262695,2425.495265483856
D4:22:CD:00:05:5E,-128.1623992919922,10.832475662231445,-99.53315734863281,-8.616304397583008,-5.476960182189941,-10.46426773071289,2425.495265483856
D4:22:CD:00:05:5D,157.94752502441406,-23.74777603149414,-134.8976593017578,-23.245304107666016,-1.477635145187378,42.80897521972656,2425.5545575618744
D4:22:CD:00:05:6B,-92.39070129394531,-16.384443283081055,86.10150146484375,4.21079158782959,31.914073944091797,3.4376440048217773,2425.5545575618744
D4:22:CD:00:49:AA,-141.80947875976562,-80.8296890258789,68.41548919677734,-0.9611492156982422,-0.9890289306640625,2.74057674407959,2425.5545575618744
D4:22:CD:00:05:6E,116.62553405761719,16.59970474243164,62.756378173828125,32.171165466308594,-10.322738647460938,10.676742553710938,2425.5545575618744
D4:22:CD:00:05:5E,-127.7992172241211,9.037262916564941,-99.1785888671875,-8.188226699829102,-8.73055648803711,-7.442998886108398,2425.5545575618744
D4:22:CD:00:05:5D,160.29063415527344,-18.28158950805664,-129.5053253173828,-22.001930236816406,-7.0366315841674805,21.429889678955078,2425.5849153995514
D4:22:CD:00:05:6B,-94.58809661865234,-8.535903930664062,75.05014038085938,11.846502304077148,20.46184539794922,-7.815589904785156,2425.5849153995514
D4:22:CD:00:49:AA,-142.9955291748047,-80.31403350830078,70.27506256103516,5.368871688842773,1.1954824924468994,5.536673545837402,2425.5849153995514
D4:22:CD:00:05:6E,118.79144287109375,28.709123611450195,81.61892700195312,27.449684143066406,-1.0682711601257324,4.346945762634277,2425.5849153995514
D4:22:CD:00:05:5E,-128.33544921875,6.764784812927246,-100.20661163330078,-10.097967147827148,-7.083357810974121,-8.897226333618164,2425.5849153995514
D4:22:CD:00:05:5D,164.84814453125,-9.11391830444336,-126.07785034179688,-13.361808776855469,-14.19434928894043,17.96210479736328,2425.6154565811157
D4:22:CD:00:05:6B,-103.43965911865234,-4.950180530548096,65.52470397949219,9.034116744995117,9.83989143371582,-3.6924490928649902,2425.6154565811157
D4:22:CD:00:49:AA,-153.3812255859375,-78.75262451171875,78.8478012084961,4.613982200622559,-2.504270076751709,6.534082412719727,2425.6154565811157
D4:22:CD:00:05:6E,121.08280944824219,40.993934631347656,100.79419708251953,12.846677780151367,3.432776927947998,-2.38179874420166,2425.6154565811157
D4:22:CD:00:05:5E,-130.34132385253906,4.3739013671875,-103.4776611328125,-11.727874755859375,-8.430145263671875,-8.75457763671875,2425.6154565811157
D4:22:CD:00:05:5D,157.76632690429688,-1.5411003828048706,-126.14020538330078,-12.009578704833984,-11.06899642944336,1.545781135559082,2425.645456790924
D4:22:CD:00:05:6B,-109.53665161132812,-5.846146106719971,59.87043380737305,-0.36403656005859375,5.247988700866699,-1.2204933166503906,2425.645456790924
D4:22:CD:00:49:AA,-161.53543090820312,-78.65867614746094,85.40464782714844,5.076228141784668,2.265690326690674,11.533376693725586,2425.645456790924
D4:22:CD:00:05:6E,130.85989379882812,49.90805435180664,119.0880126953125,9.035316467285156,8.03228759765625,-0.41454315185546875,2425.645456790924
D4:22:CD:00:05:5E,-133.03334045410156,1.071579098701477,-108.41117858886719,-12.75529670715332,-15.535232543945312,-11.386831283569336,2425.645456790924
D4:22:CD:00:05:5D,152.96754455566406,2.146491289138794,-127.68312072753906,-5.8486127853393555,-4.846301078796387,-9.596004486083984,2425.6754491329193
D4:22:CD:00:05:6B,-112.19035339355469,-10.129264831542969,58.69194412231445,-2.240172863006592,2.9232358932495117,-6.129888534545898,2425.6754491329193
D4:22:CD:00:49:AA,-172.7447052001953,-78.2130126953125,94.45220184326172,4.94774055480957,0.8112916946411133,7.324851989746094,2425.6754491329193
D4:22:CD:00:05:6E,147.37982177734375,54.43479919433594,136.4601287841797,1.2698609828948975,12.096855163574219,-0.4885225296020508,2425.6754491329193
D4:22:CD:00:05:5E,-130.9055938720703,-5.786241054534912,-115.39456939697266,-2.3656973838806152,-15.56869888305664,-17.709529876708984,2425.6754491329193
D4:22:CD:00:05:5D,153.57237243652344,0.6374900937080383,-129.2006378173828,-3.325965404510498,1.555109977722168,-16.355621337890625,2425.7054715156555
D4:22:CD:00:05:6B,-116.9954833984375,-15.801311492919922,60.65258026123047,-2.207638740539551,1.4138586521148682,-6.452302932739258,2425.7054715156555
D4:22:CD:00:49:AA,174.58370971679688,-77.84941864013672,104.16251373291016,4.20005989074707,-0.48001158237457275,3.5582141876220703,2425.7054715156555
D4:22:CD:00:05:6E,161.76100158691406,57.06193161010742,152.0905303955078,-6.247708320617676,12.509719848632812,-0.13218021392822266,2425.7054715156555
D4:22:CD:00:05:5E,-123.84839630126953,-8.842129707336426,-117.9693603515625,-1.9394149780273438,-2.9552478790283203,-7.419936180114746,2425.7054715156555
D4:22:CD:00:05:5D,154.6251983642578,-5.915980815887451,-129.6923370361328,-3.034761905670166,2.665823459625244,-19.551403045654297,2425.735156059265
D4:22:CD:00:05:6B,-122.54376983642578,-21.304920196533203,64.65930938720703,-4.542366981506348,0.808862566947937,-7.302416801452637,2425.735156059265
D4:22:CD:00:49:AA,161.36228942871094,-76.77789306640625,113.70635223388672,2.189924716949463,-0.6687029600143433,-3.475674629211426,2425.735156059265
D4:22:CD:00:05:6E,161.0059356689453,58.914119720458984,162.8154296875,-6.695056915283203,5.047445297241211,-5.102303504943848,2425.735156059265
D4:22:CD:00:05:5E,-128.30459594726562,-10.603828430175781,-117.1651611328125,-8.948787689208984,1.1880934238433838,-24.60421371459961,2425.735156059265
D4:22:CD:00:05:5D,153.8184356689453,-16.626747131347656,-128.93447875976562,-5.237981796264648,1.994014024734497,-21.427104949951172,2425.7654070854187
D4:22:CD:00:05:6B,-126.86841583251953,-26.234312057495117,69.29327392578125,-6.055269241333008,1.4241530895233154,-7.233062744140625,2425.7654070854187
D4:22:CD:00:49:AA,154.9302520751953,-74.67655944824219,117.49983978271484,-3.103412628173828,-1.0712180137634277,-5.182037353515625,2425.7654070854187
D4:22:CD:00:05:6E,158.49252319335938,60.847412109375,168.53614807128906,-4.390623092651367,0.04706035554409027,-9.336851119995117,2425.7654070854187
D4:22:CD:00:05:5E,-139.54995727539062,-13.268078804016113,-116.58918762207031,-1.6443018913269043,0.5499864816665649,-3.9685044288635254,2425.7654070854187
D4:22:CD:00:05:5D,150.75042724609375,-30.736793518066406,-126.57042694091797,-5.753911018371582,-2.6935572624206543,-17.513877868652344,2425.7947041988373
D4:22:CD:00:05:6B,-130.78024291992188,-30.02046775817871,74.01140594482422,-3.984097957611084,2.0029006004333496,-9.227174758911133,2425.7947041988373
D4:22:CD:00:49:AA,155.01852416992188,-73.91181182861328,118.33028411865234,-4.162314414978027,-0.020251724869012833,-7.9848127365112305,2425.7947041988373
D4:22:CD:00:05:6E,154.2571258544922,62.331844329833984,167.0800018310547,-1.634371042251587,-1.1262638568878174,-10.707195281982422,2425.7947041988373
D4:22:CD:00:05:5E,-133.33120727539062,-15.417664527893066,-118.21979522705078,-6.707180976867676,7.281597137451172,12.449914932250977,2425.7947041988373
D4:22:CD:00:05:5D,145.299560546875,-47.31990432739258,-122.11255645751953,-4.355003356933594,-4.096892356872559,-7.422030448913574,2425.8552396297455
D4:22:CD:00:05:6B,-135.2164306640625,-32.08152770996094,77.61677551269531,-6.939053535461426,3.101802349090576,-7.459314346313477,2425.8552396297455
D4:22:CD:00:49:AA,154.84805297851562,-74.32921600341797,120.0988540649414,-0.42178958654403687,1.044438123703003,-10.033109664916992,2425.8552396297455
D4:22:CD:00:05:6E,145.921630859375,61.845882415771484,157.66900634765625,1.4762258529663086,0.47800225019454956,-13.44830322265625,2425.8552396297455
D4:22:CD:00:05:5E,-130.36863708496094,-16.204866409301758,-118.43699645996094,0.21358159184455872,-6.800163269042969,-6.489757537841797,2425.8552396297455
D4:22:CD:00:05:5D,132.6205291748047,-66.11644744873047,-111.87493133544922,-0.18770796060562134,-4.592734336853027,7.632757186889648,2425.885240316391
D4:22:CD:00:05:6B,-134.796875,-33.58417892456055,79.54732513427734,-5.9611616134643555,3.5661697387695312,-8.545106887817383,2425.885240316391
D4:22:CD:00:49:AA,154.2306365966797,-74.64674377441406,120.28616333007812,3.8742504119873047,0.982823371887207,-8.625303268432617,2425.885240316391
D4:22:CD:00:05:6E,133.93272399902344,56.49168395996094,144.78738403320312,-1.2249939441680908,5.994121551513672,-20.408382415771484,2425.885240316391
D4:22:CD:00:05:5E,-133.75738525390625,-15.336148262023926,-118.10912322998047,-8.31374740600586,-7.36060905456543,-10.867630004882812,2425.885240316391
D4:22:CD:00:05:5D,72.11095428466797,-81.81158447265625,-53.37511444091797,8.079669952392578,-1.9865326881408691,21.155715942382812,2425.914781332016
D4:22:CD:00:05:6B,-133.82821655273438,-34.845977783203125,80.85067749023438,-3.9684653282165527,3.9721293449401855,-8.550687789916992,2425.914781332016
D4:22:CD:00:49:AA,150.4617156982422,-74.90377044677734,121.90438079833984,4.390228271484375,0.5833228826522827,-6.415863990783691,2425.914781332016
D4:22:CD:00:05:6E,126.75645446777344,47.726158142089844,135.93670654296875,-7.640848159790039,12.102636337280273,-22.95235824584961,2425.914781332016
D4:22:CD:00:05:5E,-136.4666290283203,-13.826559066772461,-117.33097076416016,-5.322214126586914,-3.7256860733032227,-11.99201774597168,2425.914781332016
D4:22:CD:00:05:5D,-1.6707262992858887,-71.04448699951172,22.328561782836914,21.794910430908203,6.933925628662109,15.983861923217773,2425.9447803497314
D4:22:CD:00:05:6B,-134.79486083984375,-36.176856994628906,82.7126693725586,-4.867104530334473,4.8559160232543945,-8.003387451171875,2425.9447803497314
D4:22:CD:00:49:AA,145.19435119628906,-75.56710815429688,124.97298431396484,1.3127672672271729,0.4826012849807739,-4.139362335205078,2425.9447803497314
D4:22:CD:00:05:6E,131.39923095703125,43.35554885864258,133.73072814941406,-0.5364950895309448,-2.003976821899414,-9.009244918823242,2425.9447803497314
D4:22:CD:00:05:5E,-138.95822143554688,-11.295062065124512,-116.40160369873047,-4.289996147155762,-7.7539520263671875,-11.26527214050293,2425.9447803497314
D4:22:CD:00:05:5D,-1.8617697954177856,-65.29953002929688,28.378599166870117,23.141143798828125,23.913230895996094,-31.01571273803711,2425.9747819900513
D4:22:CD:00:05:6B,-135.53965759277344,-37.53690719604492,84.59757232666016,-6.082221031188965,6.01744270324707,-7.042031288146973,2425.9747819900513
D4:22:CD:00:49:AA,149.29432678222656,-76.03020477294922,120.90151977539062,-1.3608872890472412,-4.134305953979492,-1.093902587890625,2425.9747819900513
D4:22:CD:00:05:6E,150.8056182861328,47.0214729309082,138.66928100585938,3.619706630706787,-4.647458076477051,-10.65492057800293,2425.9747819900513
D4:22:CD:00:05:5E,-143.31460571289062,-8.443038940429688,-116.1905517578125,-9.260927200317383,-11.54377555847168,-7.88731575012207,2425.9747819900513
D4:22:CD:00:05:5D,-1.170918345451355,-68.7553939819336,28.125595092773438,13.838327407836914,6.359096527099609,-7.164102554321289,2426.0047953128815
D4:22:CD:00:05:6B,-135.21340942382812,-38.4876823425293,85.7968978881836,-3.9100584983825684,8.325035095214844,-5.554770469665527,2426.0047953128815
D4:22:CD:00:49:AA,161.16868591308594,-75.26164245605469,110.9527587890625,6.0362348556518555,-5.258017539978027,0.4796895980834961,2426.0047953128815
D4:22:CD:00:05:6E,-179.57765197753906,52.5120849609375,151.68785095214844,2.589841365814209,4.303556442260742,-10.736566543579102,2426.0047953128815
D4:22:CD:00:05:5E,-144.0817413330078,-7.798733234405518,-117.28104400634766,-8.613273620605469,-11.89897346496582,-8.315893173217773,2426.0047953128815
D4:22:CD:00:05:5D,5.5723185539245605,-75.74192810058594,22.73980140686035,11.719425201416016,7.942940711975098,-0.016529083251953125,2426.03532910347
D4:22:CD:00:05:6B,-136.0662384033203,-38.533851623535156,87.19935607910156,-5.120138168334961,9.715801239013672,-3.1245946884155273,2426.03532910347
D4:22:CD:00:49:AA,161.91268920898438,-75.14069366455078,107.87838745117188,5.192540168762207,1.6977808475494385,2.5607690811157227,2426.03532910347
D4:22:CD:00:05:6E,-142.48196411132812,56.783817291259766,174.24874877929688,-2.4274120330810547,2.340801239013672,-13.050640106201172,2426.03532910347
D4:22:CD:00:05:5E,-143.5509796142578,-8.179588317871094,-119.21648406982422,-7.9149065017700195,-14.843236923217773,-8.726787567138672,2426.03532910347
D4:22:CD:00:05:5D,40.90980911254883,-84.74510192871094,-8.16019058227539,15.325448989868164,8.494491577148438,1.4315252304077148,2426.0653290748596
D4:22:CD:00:05:6B,-135.50088500976562,-37.823970794677734,89.4022216796875,-6.936125755310059,11.063535690307617,-1.3261489868164062,2426.0653290748596
D4:22:CD:00:49:AA,159.6059112548828,-75.73028564453125,107.05821990966797,0.21808001399040222,1.2693424224853516,2.06195068359375,2426.0653290748596
D4:22:CD:00:05:6E,-98.86117553710938,55.34668731689453,-162.04876708984375,6.866716384887695,12.883052825927734,-14.168167114257812,2426.0653290748596
D4:22:CD:00:05:5E,-138.39987182617188,-10.056629180908203,-122.0482406616211,-5.422577857971191,-10.206418991088867,-12.779121398925781,2426.0653290748596
D4:22:CD:00:05:5D,139.53115844726562,-83.03880310058594,-101.75062561035156,-17.73544692993164,-2.4321494102478027,7.805805206298828,2426.0953466892242
D4:22:CD:00:05:6B,-133.37586975097656,-36.40055847167969,92.02214050292969,-2.949924945831299,13.665414810180664,-0.5855035781860352,2426.0953466892242
D4:22:CD:00:49:AA,164.97828674316406,-75.1135482788086,101.5869369506836,-0.8695435523986816,0.11853495240211487,4.42893123626709,2426.0953466892242
D4:22:CD:00:05:6E,-73.77584838867188,50.666404724121094,-145.58050537109375,8.244468688964844,4.739858627319336,-10.423467636108398,2426.0953466892242
D4:22:CD:00:05:5E,-132.40423583984375,-7.761610984802246,-124.20673370361328,-8.558063507080078,-9.80927848815918,-14.308479309082031,2426.0953466892242
D4:22:CD:00:05:5D,155.44505310058594,-81.3619384765625,-115.64669799804688,-1.916372299194336,-16.263652801513672,7.6544952392578125,2426.1549637317657
D4:22:CD:00:05:6B,-132.79481506347656,-33.57748794555664,93.51914978027344,-2.5856947898864746,11.721790313720703,-2.398850917816162,2426.1549637317657
D4:22:CD:00:49:AA,172.849609375,-74.4422836303711,97.37268829345703,-0.8051497936248779,-1.6076910495758057,4.122244834899902,2426.1549637317657
D4:22:CD:00:05:6E,-58.497894287109375,44.089576721191406,-136.24606323242188,9.466999053955078,1.7413270473480225,-5.848664283752441,2426.1549637317657
D4:22:CD:00:05:5E,-124.34949493408203,-2.913357973098755,-124.14039611816406,-17.474468231201172,-8.284721374511719,-2.0561766624450684,2426.1549637317657
D4:22:CD:00:05:5D,168.01895141601562,-78.85872650146484,-118.48908233642578,-1.4128074645996094,0.16638481616973877,2.82867431640625,2426.1849603652954
D4:22:CD:00:05:6B,-131.66683959960938,-29.93646240234375,93.57809448242188,-2.6261544227600098,8.581249237060547,-3.577198028564453,2426.1849603652954
D4:22:CD:00:49:AA,-179.52395629882812,-73.5278549194336,93.90936279296875,-2.7900266647338867,-3.604678153991699,-1.6746788024902344,2426.1849603652954
D4:22:CD:00:05:6E,-47.233680725097656,37.005775451660156,-131.18075561523438,5.203527450561523,3.9893407821655273,-1.1270027160644531,2426.1849603652954
D4:22:CD:00:05:5E,-118.44670867919922,4.183263778686523,-119.26239776611328,-31.734970092773438,1.469628095626831,-4.978884696960449,2426.1849603652954
D4:22:CD:00:05:5D,171.9021453857422,-76.01312255859375,-114.25676727294922,-1.425973653793335,4.274811744689941,1.2286567687988281,2426.2145080566406
D4:22:CD:00:05:6B,-130.19004821777344,-27.040742874145508,92.64228057861328,-0.49742555618286133,6.617615699768066,-3.22336483001709,2426.2145080566406
D4:22:CD:00:49:AA,-178.15264892578125,-71.54434967041016,95.73462677001953,0.1390472948551178,-0.18200582265853882,-4.819365501403809,2426.2145080566406
D4:22:CD:00:05:6E,-37.38896560668945,30.464603424072266,-127.53605651855469,5.074444770812988,3.6629185676574707,0.5467329025268555,2426.2145080566406
D4:22:CD:00:05:5E,-116.3160171508789,11.806156158447266,-109.76776123046875,-18.250797271728516,-2.4994211196899414,-10.694091796875,2426.2145080566406
D4:22:CD:00:05:5D,175.78671264648438,-73.44768524169922,-117.57459259033203,-8.08924674987793,4.331393241882324,0.901331901550293,2426.2455077171326
D4:22:CD:00:05:6B,-130.5261688232422,-25.68782615661621,91.65679168701172,-2.0671820640563965,6.6826276779174805,-3.9517650604248047,2426.2455077171326
D4:22:CD:00:49:AA,179.3988800048828,-70.16744995117188,101.81289672851562,-4.151389122009277,3.0298171043395996,-3.5361928939819336,2426.2455077171326
D4:22:CD:00:05:6E,-24.58415412902832,27.173437118530273,-123.99943542480469,-1.8146417140960693,-0.41300278902053833,6.029567718505859,2426.2455077171326
D4:22:CD:00:05:5E,-112.53717041015625,16.729854583740234,-98.1153793334961,-9.149162292480469,0.22696131467819214,-14.744731903076172,2426.2455077171326
D4:22:CD:00:05:5D,-178.91831970214844,-70.15911102294922,-123.75559997558594,0.07271859049797058,0.9534215927124023,-0.1942138671875,2426.275507926941
D4:22:CD:00:05:6B,-132.2350311279297,-26.757802963256836,90.1536865234375,-1.4786994457244873,5.99793815612793,-1.77154541015625,2426.275507926941
D4:22:CD:00:49:AA,176.95347595214844,-69.49388122558594,106.52853393554688,-2.687978744506836,2.1427502632141113,-2.2044925689697266,2426.275507926941
D4:22:CD:00:05:6E,-2.234964609146118,29.203426361083984,-118.49121856689453,-0.8869116306304932,1.8608322143554688,-6.191925048828125,2426.275507926941
D4:22:CD:00:05:5E,-107.48263549804688,18.9056396484375,-86.88716888427734,-2.4498510360717773,2.4321742057800293,-13.877691268920898,2426.275507926941
D4:22:CD:00:05:5D,-175.031494140625,-67.3238754272461,-128.638671875,1.656717300415039,-0.42359668016433716,1.2925081253051758,2426.3055217266083
D4:22:CD:00:05:6B,-135.38180541992188,-29.70244789123535,88.36621856689453,-1.0855813026428223,5.881100654602051,-0.9504899978637695,2426.3055217266083
D4:22:CD:00:49:AA,173.891357421875,-68.41149139404297,110.28143310546875,2.021852970123291,0.4312936067581177,0.9076166152954102,2426.3055217266083
D4:22:CD:00:05:6E,17.628293991088867,30.917943954467773,-109.5310287475586,32.97283935546875,-2.5989675521850586,-10.576435089111328,2426.3055217266083
D4:22:CD:00:05:5E,-103.97430419921875,18.980350494384766,-77.04300689697266,0.608479380607605,2.967846393585205,-11.480831146240234,2426.3055217266083
D4:22:CD:00:05:5D,-174.76092529296875,-64.8955078125,-129.3993377685547,3.7481884956359863,-0.6166442632675171,0.24497699737548828,2426.3350496292114
D4:22:CD:00:05:6B,-140.9897003173828,-33.839908599853516,86.95106506347656,-3.77919864654541,6.878437042236328,0.7245683670043945,2426.3350496292114
D4:22:CD:00:49:AA,170.59266662597656,-66.76791381835938,113.9656753540039,-1.189682960510254,1.512923002243042,5.364168167114258,2426.3350496292114
D4:22:CD:00:05:6E,27.010761260986328,29.28702163696289,-99.94544219970703,9.104515075683594,1.0780186653137207,-1.5574712753295898,2426.3350496292114
D4:22:CD:00:05:5E,-102.96365356445312,17.23373794555664,-69.55091857910156,0.15084508061408997,3.2949271202087402,-10.108901977539062,2426.3350496292114
D4:22:CD:00:05:5D,-175.20240783691406,-63.298702239990234,-127.9102554321289,1.298379898071289,0.743560791015625,1.3451757431030273,2426.365051984787
D4:22:CD:00:05:6B,-147.44151306152344,-38.537681579589844,86.19023895263672,-6.17724609375,6.352391242980957,1.9769201278686523,2426.365051984787
D4:22:CD:00:49:AA,168.35926818847656,-66.4610366821289,116.54817962646484,-5.594132423400879,-0.07847093045711517,3.3789453506469727,2426.365051984787
D4:22:CD:00:05:6E,43.955596923828125,24.72214698791504,-88.95221710205078,13.130060195922852,-1.2894468307495117,-5.944085121154785,2426.365051984787
D4:22:CD:00:05:5E,-104.94225311279297,14.083983421325684,-65.07637023925781,-2.113636016845703,-0.39271092414855957,-9.191366195678711,2426.365051984787
D4:22:CD:00:05:5D,-175.48959350585938,-62.62305450439453,-126.59773254394531,-1.5384225845336914,1.3378851413726807,0.7398214340209961,2426.395065307617
D4:22:CD:00:05:6B,-154.26864624023438,-42.85210037231445,86.4281234741211,-7.2124834060668945,4.679486274719238,-0.4673042297363281,2426.395065307617
D4:22:CD:00:49:AA,166.72923278808594,-66.41301727294922,119.23506164550781,-2.5481576919555664,1.844606876373291,2.854949951171875,2426.395065307617
D4:22:CD:00:05:6E,55.49271011352539,15.92906665802002,-77.40316009521484,14.408842086791992,-4.798118591308594,-2.3036036491394043,2426.395065307617
D4:22:CD:00:05:5E,-108.45873260498047,9.164266586303711,-64.26976013183594,-0.764091968536377,-2.7597808837890625,-9.394851684570312,2426.395065307617
D4:22:CD:00:05:5D,-175.29452514648438,-62.128021240234375,-126.65016174316406,-1.008497953414917,0.7249749898910522,0.4964771270751953,2426.4556093215942
D4:22:CD:00:05:6B,-161.1427001953125,-46.05598831176758,87.30268096923828,-9.864385604858398,3.7039308547973633,-4.385154724121094,2426.4556093215942
D4:22:CD:00:49:AA,164.74978637695312,-66.84815979003906,122.13774108886719,-1.0102293491363525,2.5597662925720215,4.90572452545166,2426.4556093215942
D4:22:CD:00:05:6E,58.84732437133789,4.935064315795898,-64.90689086914062,5.886690139770508,-10.825262069702148,-6.002474784851074,2426.4556093215942
D4:22:CD:00:05:5E,-108.35897064208984,1.9256683588027954,-68.16752624511719,4.151115417480469,-8.363399505615234,-7.124357223510742,2426.4556093215942
D4:22:CD:00:05:5D,-175.1704559326172,-61.62504196166992,-127.03187561035156,0.4501074552536011,-0.38485395908355713,0.47969722747802734,2426.485604763031
D4:22:CD:00:05:6B,-165.47364807128906,-48.49812698364258,87.43987274169922,-7.414399147033691,2.8067941665649414,-7.762729644775391,2426.485604763031
D4:22:CD:00:49:AA,161.89697265625,-67.88750457763672,124.62142181396484,0.257926344871521,1.7769746780395508,0.9134349822998047,2426.485604763031
D4:22:CD:00:05:6E,60.389488220214844,-5.632498264312744,-49.0003547668457,16.739376068115234,-13.075918197631836,1.876276969909668,2426.485604763031
D4:22:CD:00:05:5E,-100.24810791015625,-5.863601207733154,-76.6541976928711,-16.715744018554688,-19.44469451904297,11.08431625366211,2426.485604763031
D4:22:CD:00:05:5D,-176.5749969482422,-60.92284393310547,-126.2000961303711,0.8541529178619385,-1.6722254753112793,-0.008777618408203125,2426.5151448249817
D4:22:CD:00:05:6B,-168.89480590820312,-51.16725540161133,84.44566345214844,-9.637933731079102,6.338861465454102,-11.727102279663086,2426.5151448249817
D4:22:CD:00:49:AA,157.939697265625,-69.11980438232422,127.59410858154297,0.7067338228225708,0.49545300006866455,-1.9506373405456543,2426.5151448249817
D4:22:CD:00:05:6E,48.46924591064453,-13.44588851928711,-31.185195922851562,32.53520965576172,-9.776531219482422,16.758647918701172,2426.5151448249817
D4:22:CD:00:05:5E,-91.81560516357422,-7.917461395263672,-79.5406265258789,10.105295181274414,-14.31478500366211,-20.440319061279297,2426.5151448249817
D4:22:CD:00:05:5D,-179.3638916015625,-59.64142990112305,-123.90186309814453,-0.36769622564315796,-1.3761522769927979,-0.6582183837890625,2426.5451452732086
D4:22:CD:00:05:6B,-166.08583068847656,-54.92304992675781,78.82251739501953,-4.069845199584961,2.571164131164551,-12.070852279663086,2426.5451452732086
D4:22:CD:00:49:AA,153.12249755859375,-70.97380065917969,131.55438232421875,-1.786586046218872,-0.3302682042121887,-2.972099781036377,2426.5451452732086
D4:22:CD:00:05:6E,39.32705307006836,-13.781084060668945,-22.280437469482422,2.4168033599853516,-6.925348281860352,-8.730571746826172,2426.5451452732086
D4:22:CD:00:05:5E,-97.33317565917969,-8.961430549621582,-82.01919555664062,5.235856056213379,-12.910192489624023,-11.879261016845703,2426.5451452732086
D4:22:CD:00:05:5D,177.30117797851562,-57.76711654663086,-120.07494354248047,-1.221717357635498,-1.0120704174041748,-0.11542892456054688,2426.5753269195557
D4:22:CD:00:05:6B,-156.7670135498047,-58.361366271972656,69.851318359375,-7.0368804931640625,2.6011996269226074,-10.11385726928711,2426.5753269195557
D4:22:CD:00:49:AA,145.7811279296875,-73.2451400756836,138.63929748535156,-2.6033244132995605,-0.6118913888931274,-4.610376358032227,2426.5753269195557
D4:22:CD:00:05:6E,42.63312530517578,-12.219680786132812,-21.79632568359375,11.483013153076172,-1.958550214767456,2.5829200744628906,2426.5753269195557
D4:22:CD:00:05:5E,-103.97826385498047,-9.432718276977539,-84.88013458251953,3.3981552124023438,-18.672832489013672,-1.3751964569091797,2426.5753269195557
D4:22:CD:00:05:5D,174.82289123535156,-55.52680206298828,-115.0682144165039,-1.1233017444610596,1.4148316383361816,-0.8393974304199219,2426.605341911316
D4:22:CD:00:05:6B,-146.72264099121094,-58.90095520019531,55.07704162597656,-12.325130462646484,3.0344109535217285,-9.553613662719727,2426.605341911316
D4:22:CD:00:49:AA,136.679443359375,-74.328369140625,148.80596923828125,-1.2273859977722168,0.882413387298584,-3.6926426887512207,2426.605341911316
D4:22:CD:00:05:6E,47.991817474365234,-8.25131607055664,-19.575407028198242,18.82391357421875,-10.85493278503418,-15.523881912231445,2426.605341911316
D4:22:CD:00:05:5E,-106.94523620605469,-8.171333312988281,-84.6459732055664,-0.7108131647109985,-15.081230163574219,-11.549942016601562,2426.605341911316
D4:22:CD:00:05:5D,173.53099060058594,-53.453887939453125,-110.66841125488281,0.3298284411430359,1.9895429611206055,-2.186734199523926,2426.6348752975464
D4:22:CD:00:05:6B,-134.32823181152344,-55.188087463378906,37.40658187866211,-25.83470916748047,15.233137130737305,-8.448726654052734,2426.6348752975464
D4:22:CD:00:49:AA,130.8071746826172,-74.43482971191406,155.11866760253906,-1.298729658126831,-0.7506639957427979,1.2486457824707031,2426.6348752975464
D4:22:CD:00:05:6E,55.9406623840332,-4.034729480743408,-17.393423080444336,15.145584106445312,-9.353750228881836,-18.135692596435547,2426.6348752975464
D4:22:CD:00:05:5E,-105.49968719482422,-5.189023494720459,-81.75070190429688,0.287580668926239,-24.213199615478516,-12.222808837890625,2426.6348752975464
D4:22:CD:00:05:5D,173.61351013183594,-51.8261604309082,-107.69733428955078,1.2104194164276123,0.6405911445617676,0.5742368698120117,2426.664875984192
D4:22:CD:00:05:6B,-115.10906982421875,-47.27801513671875,18.99944496154785,-14.92027473449707,27.41315460205078,-13.927511215209961,2426.664875984192
D4:22:CD:00:49:AA,128.91929626464844,-73.46846008300781,158.49951171875,1.2812964916229248,-0.547995924949646,-0.8403415679931641,2426.664875984192
D4:22:CD:00:05:6E,62.461090087890625,-1.7119035720825195,-15.762099266052246,16.97991180419922,-6.366029739379883,-21.557636260986328,2426.664875984192
D4:22:CD:00:05:5E,-98.8283920288086,-1.7258708477020264,-75.9510726928711,-7.304085731506348,-32.841400146484375,-20.421100616455078,2426.664875984192
D4:22:CD:00:05:5D,174.591552734375,-51.150413513183594,-106.65271759033203,3.105557918548584,-0.41078752279281616,0.7839555740356445,2426.6948895454407
D4:22:CD:00:05:6B,-99.80205535888672,-33.91654968261719,1.6825164556503296,-8.151102066040039,32.401344299316406,4.601169586181641,2426.6948895454407
D4:22:CD:00:49:AA,134.86949157714844,-71.27481842041016,154.4374542236328,1.3991270065307617,-0.0829380601644516,4.632460594177246,2426.6948895454407
D4:22:CD:00:05:6E,68.47721099853516,-0.09959957748651505,-13.517147064208984,23.314308166503906,2.1887574195861816,-18.771949768066406,2426.6948895454407
D4:22:CD:00:05:5E,-93.60358428955078,0.49093613028526306,-67.88404846191406,-0.12631520628929138,-34.43079376220703,-13.217092514038086,2426.6948895454407
D4:22:CD:00:05:5D,175.88050842285156,-51.90726089477539,-107.02224731445312,1.3976197242736816,0.8843498229980469,0.5096712112426758,2426.7554199695587
D4:22:CD:00:05:6B,-85.57982635498047,-15.248091697692871,-9.607978820800781,3.5360841751098633,27.488277435302734,5.673891067504883,2426.7554199695587
D4:22:CD:00:49:AA,143.61236572265625,-69.8306884765625,146.04278564453125,-0.4304184317588806,-4.612764358520508,9.032981872558594,2426.7554199695587
D4:22:CD:00:05:6E,76.34613037109375,0.3014257550239563,-7.323493480682373,22.257152557373047,11.449239730834961,-13.261322021484375,2426.7554199695587
D4:22:CD:00:05:5E,-94.44404602050781,1.9574675559997559,-60.371009826660156,-2.435764789581299,-20.778186798095703,-7.607112884521484,2426.7554199695587
D4:22:CD:00:05:5D,177.66432189941406,-53.79957580566406,-106.42723846435547,0.7349717617034912,0.054226696491241455,2.306650161743164,2426.7844195365906
D4:22:CD:00:05:6B,-68.20307922363281,1.1077804565429688,-16.103681564331055,0.3992576599121094,15.202096939086914,4.941224098205566,2426.7844195365906
D4:22:CD:00:49:AA,147.12969970703125,-68.96096801757812,141.8645782470703,1.1949677467346191,2.035853862762451,3.6093549728393555,2426.7844195365906
D4:22:CD:00:05:6E,87.96919250488281,-2.996013879776001,2.3031866550445557,17.301998138427734,16.801856994628906,-1.6421985626220703,2426.7844195365906
D4:22:CD:00:05:5E,-99.80179595947266,3.084179162979126,-57.43107223510742,-2.305543899536133,-6.6131792068481445,-0.621861457824707,2426.7844195365906
D4:22:CD:00:05:5D,179.3731689453125,-56.500518798828125,-106.21795654296875,-2.6016693115234375,1.2739472389221191,1.8674793243408203,2426.814968109131
D4:22:CD:00:05:6B,-53.797950744628906,12.677879333496094,-18.604887008666992,-2.4173941612243652,11.214374542236328,6.169194221496582,2426.814968109131
D4:22:CD:00:49:AA,153.4469451904297,-67.3712387084961,135.93475341796875,-5.795682907104492,-0.6282806396484375,3.7451610565185547,2426.814968109131
D4:22:CD:00:05:6E,102.9869155883789,-8.468212127685547,11.563689231872559,9.146036148071289,11.7822265625,1.7528715133666992,2426.814968109131
D4:22:CD:00:05:5E,-103.49131774902344,3.166916608810425,-61.71957778930664,-3.253587245941162,3.077578067779541,-0.20847702026367188,2426.814968109131
D4:22:CD:00:05:5D,-178.59463500976562,-59.57734298706055,-107.185302734375,-0.4730756878852844,1.642359972000122,1.8113117218017578,2426.8449687957764
D4:22:CD:00:05:6B,-43.01044845581055,17.41948890686035,-20.290987014770508,-0.7629435062408447,1.2310459613800049,4.063719749450684,2426.8449687957764
D4:22:CD:00:49:AA,161.45408630371094,-65.2148208618164,130.3846435546875,-8.887365341186523,-1.1789042949676514,5.543361663818359,2426.8449687957764
D4:22:CD:00:05:6E,117.91622161865234,-15.390198707580566,18.167373657226562,3.8137340545654297,7.302924156188965,8.573282241821289,2426.8449687957764
D4:22:CD:00:05:5E,-104.02404022216797,1.511831283569336,-71.52070617675781,0.7126281261444092,6.2004241943359375,-5.456969261169434,2426.8449687957764
D4:22:CD:00:05:5D,-175.9600067138672,-64.14252471923828,-108.79590606689453,-1.8518059253692627,2.2520923614501953,3.1783294677734375,2426.875283718109
D4:22:CD:00:05:6B,-39.219234466552734,14.820122718811035,-23.866127014160156,2.967961311340332,3.981581687927246,-8.46674919128418,2426.875283718109
D4:22:CD:00:49:AA,168.53903198242188,-64.66289520263672,127.46880340576172,-2.621854305267334,3.414426803588867,7.895540237426758,2426.875283718109
D4:22:CD:00:05:6E,129.5302734375,-22.30189323425293,22.2398738861084,-1.8670601844787598,3.9641103744506836,4.107222557067871,2426.875283718109
D4:22:CD:00:05:5E,-102.35149383544922,-1.4625177383422852,-84.21768188476562,3.4695897102355957,4.953671455383301,-6.937994003295898,2426.875283718109
D4:22:CD:00:05:5D,-173.43515014648438,-70.4543685913086,-109.99036407470703,-1.4299137592315674,-2.040797233581543,8.363906860351562,2426.905297279358
D4:22:CD:00:05:6B,-38.159786224365234,9.075260162353516,-30.392044067382812,2.8052639961242676,-0.6989181041717529,-5.657989501953125,2426.905297279358
D4:22:CD:00:49:AA,175.92706298828125,-65.09107971191406,124.44374084472656,1.2591605186462402,2.4858436584472656,2.4806289672851562,2426.905297279358
D4:22:CD:00:05:6E,137.62973022460938,-27.369630813598633,24.393169403076172,-3.9194116592407227,-0.6519588232040405,-1.4741134643554688,2426.905297279358
D4:22:CD:00:05:5E,-99.44942474365234,-4.910784721374512,-98.18630981445312,4.129062652587891,2.6487417221069336,-5.70850944519043,2426.905297279358
D4:22:CD:00:05:5D,-172.72921752929688,-77.24169921875,-115.70075225830078,3.9664368629455566,-0.9068909883499146,3.619318962097168,2426.934829711914
D4:22:CD:00:05:6B,-33.47907257080078,2.5424716472625732,-39.738807678222656,-1.500453233718872,-0.23095953464508057,-7.85941219329834,2426.934829711914
D4:22:CD:00:49:AA,-176.78053283691406,-65.07907104492188,120.36026763916016,-0.1493634283542633,1.6987805366516113,-4.281994819641113,2426.934829711914
D4:22:CD:00:05:6E,143.1790771484375,-30.451473236083984,25.44424057006836,-1.5970196723937988,-2.5865378379821777,-3.1055922508239746,2426.934829711914
D4:22:CD:00:05:5E,-95.98651123046875,-8.350007057189941,-112.4604263305664,-0.5154992341995239,-0.28886544704437256,-6.472286224365234,2426.934829711914
D4:22:CD:00:05:5D,-176.89776611328125,-77.49436950683594,-115.60891723632812,10.348531723022461,8.709171295166016,-7.5414533615112305,2426.9648308753967
D4:22:CD:00:05:6B,-25.77884864807129,-4.296326637268066,-50.90561294555664,-0.21049892902374268,-3.186112403869629,-5.785996437072754,2426.9648308753967
D4:22:CD:00:49:AA,-173.7745819091797,-64.30368041992188,118.86723327636719,2.9009757041931152,0.420229971408844,-8.351985931396484,2426.9648308753967
D4:22:CD:00:05:6E,145.78407287597656,-32.488040924072266,25.888206481933594,0.9687032699584961,-3.335585117340088,-2.7978272438049316,2426.9648308753967
D4:22:CD:00:05:5E,-93.48748779296875,-11.828328132629395,-126.7381362915039,-5.694730758666992,-2.4859676361083984,-6.677647590637207,2426.9648308753967
D4:22:CD:00:05:5D,-179.02101135253906,-75.16756439208984,-109.05230712890625,0.48322975635528564,-3.919778347015381,-8.672359466552734,2426.9948444366455
D4:22:CD:00:05:6B,-18.58510971069336,-11.757377624511719,-64.03199005126953,2.178861618041992,-6.8940324783325195,-8.586189270019531,2426.9948444366455
D4:22:CD:00:49:AA,-173.5171661376953,-64.15681457519531,117.9262924194336,1.9558026790618896,-0.375083327293396,-8.82375717163086,2426.9948444366455
D4:22:CD:00:05:6E,144.46945190429688,-34.27668762207031,25.520715713500977,0.22936612367630005,-2.990011692047119,-2.1225366592407227,2426.9948444366455
D4:22:CD:00:05:5E,-94.20882415771484,-14.812322616577148,-139.4189453125,-15.318183898925781,-0.20998036861419678,-7.132352828979492,2426.9948444366455
D4:22:CD:00:05:5D,-174.4329071044922,-76.27617645263672,-111.12256622314453,-2.8704347610473633,-5.141329765319824,-11.893535614013672,2427.055372953415
D4:22:CD:00:05:6B,-14.105070114135742,-20.077049255371094,-79.38123321533203,-1.0476293563842773,-24.977020263671875,-1.2575979232788086,2427.055372953415
D4:22:CD:00:49:AA,-172.34146118164062,-65.56102752685547,116.58946228027344,-1.046236276626587,0.3336670994758606,-7.44120979309082,2427.055372953415
D4:22:CD:00:05:6E,139.20994567871094,-35.74372863769531,24.502952575683594,1.2540740966796875,-3.3234682083129883,-2.747115135192871,2427.055372953415
D4:22:CD:00:05:5E,-97.89161682128906,-16.824764251708984,-149.46226501464844,-27.926700592041016,5.261324882507324,-7.613071441650391,2427.055372953415
D4:22:CD:00:05:5D,-166.24989318847656,-77.724609375,-121.13694763183594,-9.911144256591797,19.326629638671875,-1.0690946578979492,2427.085372686386
D4:22:CD:00:05:6B,-7.620493412017822,-21.643014907836914,-88.912109375,-9.642007827758789,-1.4481751918792725,-10.352994918823242,2427.085372686386
D4:22:CD:00:49:AA,-170.87281799316406,-67.78397369384766,115.20000457763672,-0.485173761844635,2.149252414703369,-7.074517250061035,2427.085372686386
D4:22:CD:00:05:6E,133.17308044433594,-36.67922592163086,23.646385192871094,2.3599424362182617,-0.6852403879165649,-4.860506057739258,2427.085372686386
D4:22:CD:00:05:5E,-109.53203582763672,-16.644351959228516,-152.92898559570312,-23.004413604736328,20.739547729492188,-14.149374008178711,2427.085372686386
