Device,EulerX,EulerY,EulerZ,FreeAccX,FreeAccY,FreeAccZ,Timestamp
D4:22:CD:00:05:5D,-176.54934692382812,-65.94731140136719,-124.83171844482422,2.2110037803649902,2.0291919708251953,-4.104038238525391,2248.8617894649506
D4:22:CD:00:05:6B,-88.13398742675781,-62.64881134033203,-143.69300842285156,2.016880989074707,3.824685573577881,8.174007415771484,2248.8617894649506
D4:22:CD:00:49:AA,144.365234375,-69.38152313232422,129.4801788330078,0.7708238363265991,0.25085681676864624,-4.161347389221191,2248.8617894649506
D4:22:CD:00:05:6E,-166.78810119628906,-70.8043212890625,-55.89875411987305,-2.835984230041504,-10.920707702636719,-5.38808536529541,2248.8617894649506
D4:22:CD:00:05:5E,-178.51907348632812,-61.02167510986328,49.92320251464844,7.602574348449707,4.959245681762695,13.532611846923828,2248.8617894649506
D4:22:CD:00:05:5D,-179.5267333984375,-61.52304458618164,-119.1481704711914,1.491161823272705,-1.6601452827453613,1.0416793823242188,2248.865797519684
D4:22:CD:00:05:6B,-88.78099822998047,-47.401424407958984,-147.1077117919922,2.019115447998047,4.8805694580078125,17.448753356933594,2248.865797519684
D4:22:CD:00:49:AA,137.38963317871094,-69.9021987915039,135.3935089111328,-6.977409362792969,-1.4823691844940186,1.8308038711547852,2248.865797519684
D4:22:CD:00:05:6E,-171.7371368408203,-70.11431121826172,-52.731204986572266,9.466850280761719,-3.4464755058288574,2.934206962585449,2248.865797519684
D4:22:CD:00:05:5E,-177.453857421875,-62.32566833496094,49.64083480834961,5.650054931640625,2.194035053253174,18.918773651123047,2248.865797519684
D4:22:CD:00:05:5D,177.89576721191406,-57.333885192871094,-114.34081268310547,0.10719501972198486,1.8004405498504639,0.6843252182006836,2248.868798017502
D4:22:CD:00:05:6B,-85.94027709960938,-31.64600944519043,-148.18325805664062,5.631916046142578,6.934673309326172,18.955181121826172,2248.868798017502
D4:22:CD:00:49:AA,131.847900390625,-70.188232421875,141.4497833251953,-2.530261993408203,0.9767055511474609,0.4855165481567383,2248.868798017502
D4:22:CD:00:05:6E,-165.8733367919922,-72.47392272949219,-56.44115447998047,8.64033317565918,-4.636788368225098,7.031625747680664,2248.868798017502
D4:22:CD:00:05:5E,-175.91481018066406,-63.04483413696289,53.7781867980957,2.4392752647399902,6.112971305847168,17.786766052246094,2248.868798017502
D4:22:CD:00:49:AA,127.73426818847656,-70.36265563964844,146.18089294433594,-0.05107494443655014,1.5766563415527344,10.696914672851562,2248.871899843216
D4:22:CD:00:05:6E,-153.9028778076172,-74.18106079101562,-65.94903564453125,2.619058609008789,-3.044628620147705,8.840795516967773,2248.871899843216
D4:22:CD:00:05:5D,-168.13800048828125,-66.12943267822266,-126.94973754882812,0.18398669362068176,0.3071134090423584,0.623046875,2248.94611120224
D4:22:CD:00:05:6B,-172.48011779785156,-46.3796501159668,-15.475556373596191,5.413300514221191,3.525261402130127,4.824887275695801,2248.94611120224
D4:22:CD:00:05:5E,-105.34368896484375,17.055278778076172,-67.52079772949219,-0.8452199697494507,-6.916105270385742,-7.112115859985352,2248.94611120224
D4:22:CD:00:05:5D,-165.96229553222656,-64.38231658935547,-128.08523559570312,-2.0659775733947754,0.8167567253112793,0.3095550537109375,2248.976170063019
D4:22:CD:00:05:6B,-164.53321838378906,-51.5225830078125,-21.520017623901367,3.2253150939941406,1.0588624477386475,5.101346015930176,2248.976170063019
D4:22:CD:00:49:AA,-161.44351196289062,-79.31695556640625,95.31324768066406,-0.561964750289917,0.23706921935081482,1.9452943801879883,2248.976170063019
D4:22:CD:00:05:6E,29.76249122619629,-63.33348846435547,70.26510620117188,0.509289026260376,3.337315559387207,19.894329071044922,2248.976170063019
D4:22:CD:00:05:5E,-111.80829620361328,8.00137996673584,-68.52604675292969,1.864870548248291,-10.201591491699219,-7.52432918548584,2248.976170063019
D4:22:CD:00:05:5D,-168.89854431152344,-63.9992561340332,-125.39415740966797,-2.45688533782959,-0.08860298991203308,-0.17016887664794922,2249.0067405700684
D4:22:CD:00:05:6B,-154.72239685058594,-57.29768753051758,-34.03364944458008,2.6248044967651367,-0.7700372934341431,5.210668563842773,2249.0067405700684
D4:22:CD:00:49:AA,-159.69749450683594,-79.68743133544922,92.87891387939453,-0.11275558173656464,0.8537101745605469,1.6527118682861328,2249.0067405700684
D4:22:CD:00:05:6E,-18.330053329467773,-71.5661392211914,121.5010757446289,-6.404304504394531,-0.5072742700576782,27.65761947631836,2249.0067405700684
D4:22:CD:00:05:5E,-117.79122924804688,-13.419734954833984,-70.78416442871094,-1.91288423538208,-12.998506546020508,7.501096725463867,2249.0067405700684
D4:22:CD:00:05:5D,-172.41380310058594,-63.42407989501953,-122.4721908569336,-0.45697152614593506,-1.5939562320709229,-0.9933528900146484,2249.0367472171783
D4:22:CD:00:05:6B,-146.25230407714844,-60.43490219116211,-50.494651794433594,2.605487823486328,-1.1579041481018066,2.640814781188965,2249.0367472171783
D4:22:CD:00:49:AA,-165.25466918945312,-82.2361068725586,96.00260162353516,1.4038355350494385,-0.053815774619579315,-1.994704246520996,2249.0367472171783
D4:22:CD:00:05:6E,-4.982268333435059,-73.11217498779297,120.11625671386719,0.6426142454147339,-3.6392159461975098,2.904242515563965,2249.0367472171783
D4:22:CD:00:05:5E,-124.8044662475586,-29.207136154174805,-69.52226257324219,-0.39697664976119995,-12.930234909057617,4.552204132080078,2249.0367472171783
D4:22:CD:00:05:5D,-174.55587768554688,-62.057952880859375,-120.19371032714844,-0.4557355046272278,-0.7495208978652954,-0.038951873779296875,2249.0667474269867
D4:22:CD:00:05:6B,-133.25717163085938,-60.86476516723633,-73.73555755615234,2.741668701171875,-0.5600240230560303,0.15565013885498047,2249.0667474269867
D4:22:CD:00:49:AA,174.5630645751953,-84.00047302246094,113.35791015625,1.1466248035430908,-1.0820140838623047,-3.897721767425537,2249.0667474269867
D4:22:CD:00:05:6E,24.181291580200195,-71.02095031738281,101.26680755615234,-2.208547592163086,-3.2335195541381836,-1.613295555114746,2249.0667474269867
D4:22:CD:00:05:5E,-138.2062530517578,-40.03853225708008,-64.13656616210938,4.0915422439575195,-13.769330978393555,-8.12453842163086,2249.0667474269867
D4:22:CD:00:05:5D,-176.71510314941406,-59.8941535949707,-117.7912826538086,-0.735365629196167,-1.5093235969543457,-0.06333541870117188,2249.096761703491
D4:22:CD:00:05:6B,-117.35198211669922,-57.19602966308594,-98.28343200683594,3.8691492080688477,-0.424172043800354,-1.2290029525756836,2249.096761703491
D4:22:CD:00:49:AA,150.10765075683594,-83.91949462890625,134.8626708984375,0.6299533843994141,-1.038726806640625,-3.852745532989502,2249.096761703491
D4:22:CD:00:05:6E,24.013607025146484,-66.82892608642578,102.28530883789062,5.896012306213379,5.320199966430664,1.624131202697754,2249.096761703491
D4:22:CD:00:05:5E,-147.7464599609375,-50.63185119628906,-58.61321258544922,6.719255447387695,-16.89504623413086,10.865022659301758,2249.096761703491
D4:22:CD:00:05:5D,-178.8485565185547,-56.966041564941406,-114.88220977783203,-0.41755908727645874,-0.05781922489404678,-1.4634389877319336,2249.1262917518616
D4:22:CD:00:05:6B,-103.09395599365234,-49.92510223388672,-118.0792465209961,3.613093852996826,-2.888925075531006,-2.579268455505371,2249.1262917518616
D4:22:CD:00:49:AA,131.27676391601562,-83.0991439819336,151.1914825439453,-3.560577869415283,-1.6190729141235352,-2.653562545776367,2249.1262917518616
D4:22:CD:00:05:6E,20.521028518676758,-64.92041778564453,108.74324798583984,-0.8334150314331055,8.782312393188477,1.5981121063232422,2249.1262917518616
D4:22:CD:00:05:5E,-154.0659942626953,-58.24599075317383,-51.691104888916016,1.9929211139678955,-15.18838119506836,11.947172164916992,2249.1262917518616
D4:22:CD:00:05:5D,179.5023651123047,-54.01457214355469,-112.07852935791016,-1.0103135108947754,1.0375304222106934,-0.10163688659667969,2249.1562917232513
D4:22:CD:00:05:6B,-93.17733001708984,-41.00034713745117,-131.5574951171875,10.439916610717773,-1.4592223167419434,2.7607173919677734,2249.1562917232513
D4:22:CD:00:49:AA,125.25934600830078,-82.65228271484375,157.19151306152344,-2.850515842437744,-1.691441535949707,1.366532325744629,2249.1562917232513
D4:22:CD:00:05:6E,24.887004852294922,-65.8152847290039,106.19161224365234,-1.2388572692871094,14.08740234375,4.942033767700195,2249.1562917232513
D4:22:CD:00:05:5E,-160.08604431152344,-63.21612548828125,-40.77600860595703,6.594135284423828,-13.336587905883789,18.492225646972656,2249.1562917232513
D4:22:CD:00:05:5D,178.11517333984375,-51.51640319824219,-109.66979217529297,-0.3946792483329773,2.089724540710449,-1.0547981262207031,2249.216839313507
D4:22:CD:00:05:6B,-81.18788146972656,-29.040626525878906,-141.52420043945312,11.69851303100586,-3.9444894790649414,9.318258285522461,2249.216839313507
D4:22:CD:00:49:AA,123.0013427734375,-81.9502182006836,159.63356018066406,2.7328405380249023,-2.9005050659179688,4.514499664306641,2249.216839313507
D4:22:CD:00:05:6E,40.46714401245117,-66.35169982910156,94.66791534423828,-6.172022819519043,14.448257446289062,16.337120056152344,2249.216839313507
D4:22:CD:00:05:5E,-167.03147888183594,-65.1112060546875,-31.16154670715332,-0.552071213722229,-4.878022193908691,13.6590576171875,2249.216839313507
D4:22:CD:00:05:5D,178.1421661376953,-50.15132141113281,-108.17949676513672,1.8035693168640137,1.1724693775177002,2.8424034118652344,2249.2468395233154
D4:22:CD:00:05:6B,-76.29671478271484,-8.91051197052002,-146.2849578857422,12.000423431396484,-3.3451828956604004,22.70046615600586,2249.2468395233154
D4:22:CD:00:49:AA,126.4959945678711,-81.23402404785156,155.7466278076172,-0.5079083442687988,-5.356217384338379,6.274208068847656,2249.2468395233154
D4:22:CD:00:05:6E,56.862220764160156,-65.68440246582031,85.86550903320312,-7.321272850036621,8.536151885986328,15.558156967163086,2249.2468395233154
D4:22:CD:00:05:5E,-179.08949279785156,-66.21916961669922,-23.269678115844727,4.2253618240356445,0.43881523609161377,6.641075134277344,2249.2468395233154
D4:22:CD:00:05:5D,179.16246032714844,-50.662513732910156,-108.56859588623047,-1.7927675247192383,2.5603365898132324,2.583195686340332,2249.276831150055
D4:22:CD:00:05:6B,-68.15713500976562,16.54843521118164,-146.13624572753906,-6.279901504516602,-13.803201675415039,25.98474884033203,2249.276831150055
D4:22:CD:00:49:AA,144.1219940185547,-79.95475006103516,138.13119506835938,1.9666180610656738,-5.585933685302734,10.754838943481445,2249.276831150055
D4:22:CD:00:05:6E,63.8378791809082,-67.43765258789062,89.3113021850586,-9.652616500854492,-0.33673161268234253,6.644285202026367,2249.276831150055
D4:22:CD:00:05:5E,173.56968688964844,-71.41529846191406,-17.934288024902344,1.9423651695251465,7.592782974243164,-0.44019317626953125,2249.276831150055
D4:22:CD:00:05:5D,-178.8511199951172,-52.6363639831543,-110.29766845703125,-1.7641873359680176,1.9739480018615723,2.1555662155151367,2249.306381702423
D4:22:CD:00:05:6B,-52.56305694580078,41.578529357910156,-140.43045043945312,-16.050453186035156,-15.525701522827148,9.33426284790039,2249.306381702423
D4:22:CD:00:49:AA,153.7291717529297,-78.3832778930664,128.40731811523438,1.386946439743042,-3.3071603775024414,6.456951141357422,2249.306381702423
D4:22:CD:00:05:6E,62.46221160888672,-72.31339263916016,102.34342956542969,-8.103340148925781,-8.440450668334961,-2.1784491539001465,2249.306381702423
D4:22:CD:00:05:5E,171.6882781982422,-80.21337127685547,-18.297849655151367,-0.49728894233703613,3.2635159492492676,-3.7327957153320312,2249.306381702423
D4:22:CD:00:05:5D,-176.2061767578125,-56.04697799682617,-113.37065124511719,-0.22648343443870544,2.5426416397094727,2.8715200424194336,2249.33638215065
D4:22:CD:00:05:6B,-26.412919998168945,60.51210403442383,-125.38520050048828,-12.986820220947266,-10.88980484008789,-2.7250304222106934,2249.33638215065
D4:22:CD:00:49:AA,160.01034545898438,-77.33055114746094,121.4661865234375,-1.1287357807159424,0.22589066624641418,8.374570846557617,2249.33638215065
D4:22:CD:00:05:6E,41.368587493896484,-77.34993743896484,136.07363891601562,-4.210648536682129,-9.811574935913086,-6.217123985290527,2249.33638215065
D4:22:CD:00:05:5E,-81.57315826416016,-89.27207946777344,-129.2368621826172,-3.1322898864746094,7.604119300842285,-7.043933868408203,2249.33638215065
D4:22:CD:00:05:5D,-172.7593536376953,-61.29903030395508,-117.34579467773438,-1.882159948348999,2.2091479301452637,3.517791748046875,2249.3663811683655
D4:22:CD:00:05:6B,9.926949501037598,70.06372833251953,-98.12351989746094,-5.843271255493164,-3.8505048751831055,-5.0597639083862305,2249.3663811683655
D4:22:CD:00:49:AA,164.43002319335938,-77.11538696289062,117.49467468261719,-4.91135311126709,1.845334529876709,4.640692710876465,2249.3663811683655
D4:22:CD:00:05:6E,3.7265212535858154,-75.82459259033203,-170.9605255126953,-4.29361629486084,-6.545759201049805,-7.386652946472168,2249.3663811683655
D4:22:CD:00:05:5E,-20.716968536376953,-79.6440658569336,167.9510955810547,-4.607699394226074,8.465824127197266,-10.95858383178711,2249.3663811683655
D4:22:CD:00:05:5D,-169.04293823242188,-68.56869506835938,-121.50935363769531,-4.917210578918457,-1.150996446609497,8.638099670410156,2249.396395921707
D4:22:CD:00:05:6B,38.12262725830078,71.010986328125,-72.29366302490234,-3.828157424926758,-1.747920036315918,-6.356017112731934,2249.396395921707
D4:22:CD:00:49:AA,170.3651580810547,-75.69358825683594,114.13409423828125,-6.411072731018066,-0.6824873685836792,-1.7486324310302734,2249.396395921707
D4:22:CD:00:05:6E,-11.312838554382324,-68.27320861816406,-140.1954345703125,-1.3843648433685303,-13.423349380493164,-9.611465454101562,2249.396395921707
D4:22:CD:00:05:5E,-21.157041549682617,-70.44194793701172,165.6742401123047,-4.849400520324707,6.74659538269043,-11.439504623413086,2249.396395921707
D4:22:CD:00:05:5D,-167.9456024169922,-75.56982421875,-127.74576568603516,-2.474435806274414,-4.231602668762207,2.0587377548217773,2249.426929950714
D4:22:CD:00:05:6B,51.50328826904297,70.9281997680664,-60.9700927734375,-3.936863422393799,-1.315152645111084,-8.141807556152344,2249.426929950714
D4:22:CD:00:49:AA,-178.78155517578125,-73.7750473022461,108.09637451171875,-3.4570703506469727,-4.249812126159668,-3.9027791023254395,2249.426929950714
D4:22:CD:00:05:6E,-18.1048526763916,-60.47230911254883,-125.43647766113281,2.9995880126953125,-9.536657333374023,-10.619028091430664,2249.426929950714
D4:22:CD:00:05:5E,-22.470905303955078,-62.08073806762695,164.3170623779297,-7.6389007568359375,5.629499435424805,-13.168277740478516,2249.426929950714
D4:22:CD:00:05:5D,-172.20994567871094,-77.80547332763672,-122.73408508300781,1.075697660446167,1.0151212215423584,-6.826136589050293,2249.456929206848
D4:22:CD:00:05:6B,58.635684967041016,73.2374267578125,-60.60133361816406,-3.6911821365356445,0.31665563583374023,-8.83673095703125,2249.456929206848
D4:22:CD:00:49:AA,-169.8035888671875,-72.44486236572266,103.75511169433594,4.065366744995117,0.5240738391876221,-6.695675849914551,2249.456929206848
D4:22:CD:00:05:6E,-23.701169967651367,-53.45252990722656,-116.49708557128906,3.3136444091796875,-6.245952606201172,-10.77907943725586,2249.456929206848
D4:22:CD:00:05:5E,-25.14094352722168,-55.46041488647461,164.23019409179688,-9.38104248046875,6.327980995178223,-13.63217544555664,2249.456929206848
D4:22:CD:00:05:5D,177.2608642578125,-76.7389907836914,-104.92153930664062,2.9323010444641113,-2.233865261077881,-8.189189910888672,2249.516471385956
D4:22:CD:00:05:6B,55.23940658569336,77.71067810058594,-73.57194519042969,-0.822023868560791,0.12235751748085022,-9.702356338500977,2249.516471385956
D4:22:CD:00:49:AA,-164.79295349121094,-72.61405944824219,100.007080078125,5.402549743652344,2.7295947074890137,-11.443431854248047,2249.516471385956
D4:22:CD:00:05:6E,-27.21828269958496,-47.52900695800781,-110.324462890625,3.505582809448242,-6.263974189758301,-8.72275161743164,2249.516471385956
D4:22:CD:00:05:5E,-27.265926361083984,-50.34818649291992,165.31866455078125,-12.997282028198242,6.067742347717285,-11.26617431640625,2249.516471385956
D4:22:CD:00:05:5D,168.381591796875,-75.47913360595703,-89.06429290771484,-2.4337334632873535,-1.453465461730957,-10.35403823852539,2249.5464704036713
D4:22:CD:00:05:6B,17.616626739501953,80.4651107788086,-118.91185760498047,2.2422642707824707,0.5877304077148438,-11.457609176635742,2249.5464704036713
D4:22:CD:00:49:AA,-160.3470458984375,-73.58147430419922,96.35398864746094,0.9230659008026123,1.2094230651855469,-9.209104537963867,2249.5464704036713
D4:22:CD:00:05:6E,-28.07584571838379,-42.59389114379883,-106.97434997558594,2.496469020843506,-6.555638313293457,-8.039079666137695,2249.5464704036713
D4:22:CD:00:05:5E,-27.594602584838867,-46.921234130859375,166.77720642089844,-16.790592193603516,4.293917655944824,-13.674322128295898,2249.5464704036713
D4:22:CD:00:05:5D,165.6338653564453,-74.79251098632812,-82.5411605834961,8.15705680847168,8.183319091796875,-3.491330623626709,2249.5764718055725
D4:22:CD:00:05:6B,-25.215553283691406,73.57525634765625,-165.6961669921875,1.4097390174865723,-1.9205994606018066,-15.766416549682617,2249.5764718055725
D4:22:CD:00:49:AA,-155.9183807373047,-75.09965515136719,93.31155395507812,-1.534623622894287,0.9553235769271851,-6.68365478515625,2249.5764718055725
D4:22:CD:00:05:6E,-26.87696075439453,-39.21236801147461,-105.4275131225586,1.160146951675415,-7.499599456787109,-7.052562713623047,2249.5764718055725
D4:22:CD:00:05:5E,-29.284337997436523,-46.50128173828125,168.50552368164062,-15.948781967163086,0.14914405345916748,-11.745491027832031,2249.5764718055725
D4:22:CD:00:05:5D,166.47305297851562,-72.49769592285156,-81.3232650756836,7.380368232727051,0.5832252502441406,-2.062790870666504,2249.60662317276
D4:22:CD:00:05:6B,-43.97849655151367,60.05507278442383,174.59521484375,-7.858159065246582,-1.4987151622772217,-20.77505874633789,2249.60662317276
D4:22:CD:00:49:AA,-151.30487060546875,-76.5577163696289,90.71143341064453,0.2792007327079773,0.9018036127090454,-4.071307182312012,2249.60662317276
D4:22:CD:00:05:6E,-23.95336151123047,-37.747291564941406,-104.77498626708984,-0.19581109285354614,-9.129003524780273,-5.676443099975586,2249.60662317276
D4:22:CD:00:05:5E,-31.96428871154785,-49.25998306274414,170.2196807861328,-13.467485427856445,-2.110274314880371,-8.949346542358398,2249.60662317276
D4:22:CD:00:05:5D,164.31057739257812,-70.09381103515625,-83.00518798828125,1.6114237308502197,-5.9405059814453125,1.5665502548217773,2249.6366221904755
D4:22:CD:00:05:6B,-50.623477935791016,44.573036193847656,161.241455078125,-11.830305099487305,6.815966606140137,-30.764720916748047,2249.6366221904755
D4:22:CD:00:49:AA,-151.95948791503906,-76.70038604736328,91.87764739990234,3.0622382164001465,1.6316325664520264,1.406062126159668,2249.6366221904755
D4:22:CD:00:05:6E,-21.525938034057617,-38.271766662597656,-103.57351684570312,3.4389467239379883,-10.86418342590332,-4.467510223388672,2249.6366221904755
D4:22:CD:00:05:5E,-37.502532958984375,-53.58127212524414,173.8256072998047,-11.852922439575195,-10.132316589355469,4.627786636352539,2249.6366221904755
D4:22:CD:00:05:5D,161.9340362548828,-67.66641998291016,-80.01068878173828,-3.368483543395996,-4.441455841064453,3.3075485229492188,2249.666622400284
D4:22:CD:00:05:6B,-69.22315216064453,43.30448532104492,160.19972229003906,6.478633880615234,-3.577683925628662,-5.123764991760254,2249.666622400284
D4:22:CD:00:49:AA,-153.8763885498047,-77.34693908691406,90.9923324584961,-0.17515680193901062,-1.509068489074707,5.004073143005371,2249.666622400284
D4:22:CD:00:05:6E,-24.440439224243164,-39.97794723510742,-101.37250518798828,8.499486923217773,-10.372478485107422,-1.8632421493530273,2249.666622400284
D4:22:CD:00:05:5E,-37.03541564941406,-56.4579963684082,174.685546875,-1.9142303466796875,-12.946403503417969,3.010690689086914,2249.666622400284
D4:22:CD:00:05:5D,160.45687866210938,-65.13156127929688,-74.71066284179688,-1.275632381439209,0.9907082319259644,4.647465705871582,2249.6966364383698
D4:22:CD:00:05:6B,-73.04095458984375,51.87503433227539,165.385009765625,-25.599140167236328,11.278192520141602,3.479741096496582,2249.6966364383698
D4:22:CD:00:49:AA,-154.4579620361328,-78.93206787109375,88.85962677001953,-7.106383323669434,-3.8072056770324707,2.7888498306274414,2249.6966364383698
D4:22:CD:00:05:6E,-32.983116149902344,-42.309513092041016,-99.3708267211914,7.422797203063965,-9.223827362060547,-0.48465442657470703,2249.6966364383698
D4:22:CD:00:05:5E,-34.04743576049805,-59.573368072509766,171.73434448242188,-13.233152389526367,0.291561484336853,6.81865119934082,2249.6966364383698
D4:22:CD:00:05:5D,155.81466674804688,-63.488670349121094,-70.6301498413086,-1.148843765258789,0.5603172779083252,2.1957836151123047,2249.7261686325073
D4:22:CD:00:05:6B,-55.41671371459961,62.3863525390625,178.3065948486328,-7.600192070007324,4.399689674377441,-19.161151885986328,2249.7261686325073
D4:22:CD:00:49:AA,-155.93165588378906,-80.06320190429688,89.0263442993164,-4.9466657638549805,-1.4945268630981445,1.7349472045898438,2249.7261686325073
D4:22:CD:00:05:6E,-40.88508224487305,-45.268375396728516,-99.51461791992188,4.384084701538086,-5.280918121337891,3.71392822265625,2249.7261686325073
D4:22:CD:00:05:5E,-36.554080963134766,-62.98302459716797,172.63037109375,-5.532567977905273,6.604252815246582,9.892501831054688,2249.7261686325073
D4:22:CD:00:05:5D,150.20191955566406,-62.800071716308594,-66.31940460205078,0.44875240325927734,1.9349174499511719,-0.6909818649291992,2249.7561688423157
D4:22:CD:00:05:6B,-29.58174705505371,70.1633071899414,-151.70053100585938,-7.865608215332031,3.612006187438965,-7.38362979888916,2249.7561688423157
D4:22:CD:00:49:AA,-152.92015075683594,-80.57738494873047,85.41356658935547,-1.4535002708435059,-0.41407448053359985,0.6887989044189453,2249.7561688423157
D4:22:CD:00:05:6E,-42.45648193359375,-47.53208923339844,-101.72511291503906,4.181900978088379,-1.6817123889923096,4.467321395874023,2249.7561688423157
D4:22:CD:00:05:5E,-41.089195251464844,-66.30889892578125,175.3180694580078,-6.12587833404541,5.133186340332031,-5.96953010559082,2249.7561688423157
D4:22:CD:00:05:5D,144.63209533691406,-62.97061538696289,-60.994075775146484,2.412175178527832,1.0903875827789307,1.0188283920288086,2249.8167173862457
D4:22:CD:00:05:6B,2.25166392326355,69.51061248779297,-117.52009582519531,-4.124752998352051,4.5882978439331055,2.122910499572754,2249.8167173862457
D4:22:CD:00:49:AA,-147.92105102539062,-80.88206481933594,80.24166107177734,-0.3252292275428772,-1.3101963996887207,-2.2323951721191406,2249.8167173862457
D4:22:CD:00:05:6E,-41.285400390625,-48.646907806396484,-105.60608673095703,0.9067353010177612,-4.596954345703125,3.0060338973999023,2249.8167173862457
D4:22:CD:00:05:5E,-39.76907730102539,-68.887939453125,174.151611328125,-8.165016174316406,2.4800543785095215,-1.8341927528381348,2249.8167173862457
D4:22:CD:00:05:5D,136.52206420898438,-64.47663879394531,-54.53888702392578,2.961212158203125,-1.5516808032989502,1.9187612533569336,2249.8467149734497
D4:22:CD:00:05:6B,22.12472152709961,62.64702224731445,-97.25865936279297,-1.4176928997039795,6.482644081115723,3.8792972564697266,2249.8467149734497
D4:22:CD:00:49:AA,-146.89370727539062,-79.9033432006836,79.54689025878906,1.2202484607696533,-2.237649440765381,-0.10904979705810547,2249.8467149734497
D4:22:CD:00:05:6E,-40.96957015991211,-49.14393615722656,-110.08211517333984,-5.332847595214844,-1.1996464729309082,3.2710189819335938,2249.8467149734497
D4:22:CD:00:05:5E,-38.502784729003906,-70.63939666748047,172.62611389160156,-8.629537582397461,1.064612865447998,-3.26625394821167,2249.8467149734497
D4:22:CD:00:05:5D,125.34801483154297,-65.3350601196289,-47.941612243652344,6.724661827087402,1.3737680912017822,1.172593116760254,2249.876713991165
D4:22:CD:00:05:6B,32.80305480957031,52.73409652709961,-85.69266510009766,2.3269057273864746,4.265403747558594,3.2612218856811523,2249.876713991165
D4:22:CD:00:49:AA,-147.43890380859375,-77.81777954101562,80.00788116455078,3.9675235748291016,-0.3315598964691162,0.10641670227050781,2249.876713991165
D4:22:CD:00:05:6E,-39.88545608520508,-48.82007598876953,-113.80538177490234,-9.808387756347656,-2.71771240234375,-0.23795318603515625,2249.876713991165
D4:22:CD:00:05:5E,-37.84169387817383,-71.53425598144531,171.28189086914062,-7.271955490112305,2.3454713821411133,-2.139120578765869,2249.876713991165
D4:22:CD:00:05:5D,120.68222045898438,-63.33848190307617,-50.70334243774414,11.936771392822266,16.827533721923828,5.212932586669922,2249.9061093330383
D4:22:CD:00:05:6B,38.099159240722656,40.90914535522461,-76.38521575927734,10.469537734985352,-1.5223360061645508,5.627455711364746,2249.9061093330383
D4:22:CD:00:49:AA,-148.93138122558594,-76.02803802490234,79.95958709716797,10.713470458984375,0.512779951095581,-1.1592073440551758,2249.9061093330383
D4:22:CD:00:05:6E,-38.89421463012695,-48.497344970703125,-116.24169158935547,-12.894166946411133,-5.238539695739746,-2.7522377967834473,2249.9061093330383
D4:22:CD:00:05:5E,-36.96034240722656,-71.72782135009766,169.78562927246094,-6.650116920471191,2.4995012283325195,-2.322127342224121,2249.9061093330383
D4:22:CD:00:05:5D,129.29638671875,-55.608238220214844,-64.15752410888672,18.180255889892578,12.13237190246582,9.662593841552734,2249.9362831115723
D4:22:CD:00:05:6B,26.139713287353516,29.19914436340332,-69.96831512451172,28.98733139038086,11.15058708190918,11.223852157592773,2249.9362831115723
D4:22:CD:00:49:AA,-151.57176208496094,-74.58243560791016,80.83793640136719,6.402826309204102,1.2499151229858398,1.2549991607666016,2249.9362831115723
D4:22:CD:00:05:6E,-37.68278884887695,-48.088951110839844,-116.74095153808594,-11.841552734375,-4.8657331466674805,-3.593797206878662,2249.9362831115723
D4:22:CD:00:05:5E,-35.9787483215332,-71.60787963867188,168.26673889160156,-5.7895917892456055,2.921408176422119,-1.8578028678894043,2249.9362831115723
D4:22:CD:00:05:5D,139.5063934326172,-45.465450286865234,-78.3957748413086,10.934591293334961,2.0046162605285645,5.324131011962891,2249.9662852287292
D4:22:CD:00:05:6B,-0.286611407995224,18.612895965576172,-67.40973663330078,-10.736223220825195,-1.0665369033813477,-11.237764358520508,2249.9662852287292
D4:22:CD:00:49:AA,-153.02328491210938,-73.73787689208984,81.5615234375,0.9573631286621094,2.192689895629883,5.278940200805664,2249.9662852287292
D4:22:CD:00:05:6E,-36.141258239746094,-47.895328521728516,-115.60535430908203,-8.461029052734375,-7.807775497436523,-4.995800018310547,2249.9662852287292
D4:22:CD:00:05:5E,-34.150306701660156,-71.52774810791016,166.3907012939453,-5.650519371032715,2.441709518432617,-2.040731906890869,2249.9662852287292
D4:22:CD:00:05:5D,145.49740600585938,-35.838951110839844,-91.19013977050781,3.705759048461914,-5.328174591064453,-2.4683032035827637,2249.996297597885
D4:22:CD:00:05:6B,-10.088948249816895,9.553206443786621,-68.35618591308594,-2.643733024597168,-2.7333765029907227,-1.7034025192260742,2249.996297597885
D4:22:CD:00:49:AA,-153.7952117919922,-73.60397338867188,81.93103790283203,5.257020950317383,2.5248613357543945,3.8960132598876953,2249.996297597885
D4:22:CD:00:05:6E,-35.98875045776367,-48.76727294921875,-113.711669921875,-4.089178085327148,-7.750785827636719,-5.631661415100098,2249.996297597885
D4:22:CD:00:05:5E,-31.639673233032227,-71.76313018798828,164.7126922607422,-5.157040596008301,1.8889288902282715,-1.7347602844238281,2249.996297597885
D4:22:CD:00:05:5D,151.1961669921875,-27.786540985107422,-101.97290802001953,-2.867419719696045,-7.228424072265625,-9.878555297851562,2250.0268268585205
D4:22:CD:00:05:6B,-17.846269607543945,-0.34695950150489807,-72.51618957519531,12.551065444946289,-1.1353387832641602,-7.029111862182617,2250.0268268585205
D4:22:CD:00:49:AA,-154.22760009765625,-74.37580108642578,81.41551971435547,6.456833839416504,2.806392192840576,2.041767120361328,2250.0268268585205
D4:22:CD:00:05:6E,-37.247737884521484,-50.75957489013672,-111.57010650634766,-0.052225261926651,-7.292899131774902,-4.532628059387207,2250.0268268585205
D4:22:CD:00:05:5E,-30.952058792114258,-72.65528106689453,165.536865234375,-5.919978141784668,-0.06239006668329239,-2.936779499053955,2250.0268268585205
D4:22:CD:00:05:5D,156.94277954101562,-22.75255012512207,-110.5074234008789,-6.222286224365234,-4.761873245239258,-15.911434173583984,2250.0568265914917
D4:22:CD:00:05:6B,-28.352588653564453,-11.160632133483887,-79.5567398071289,1.885253667831421,-10.714916229248047,-4.423792839050293,2250.0568265914917
D4:22:CD:00:49:AA,-157.27891540527344,-75.45807647705078,82.26008605957031,3.2030344009399414,2.1781864166259766,-1.5076789855957031,2250.0568265914917
D4:22:CD:00:05:6E,-38.83305358886719,-53.027645111083984,-110.2028579711914,2.865316390991211,-6.850785255432129,-3.3165030479431152,2250.0568265914917
D4:22:CD:00:05:5E,-33.51719665527344,-74.01129913330078,169.53958129882812,-5.7037353515625,1.470639944076538,-4.801233291625977,2250.0568265914917
D4:22:CD:00:05:5D,162.7987823486328,-21.83850860595703,-117.6177749633789,-2.865614414215088,-4.0714111328125,-10.811622619628906,2250.1163754463196
D4:22:CD:00:05:6B,-33.74922180175781,-23.985902786254883,-91.70675659179688,-4.114351272583008,-20.587596893310547,-0.7485466003417969,2250.1163754463196
D4:22:CD:00:49:AA,-161.25674438476562,-76.2230224609375,83.94638061523438,1.443481206893921,0.7898892164230347,-3.56795597076416,2250.1163754463196
D4:22:CD:00:05:6E,-38.04667282104492,-54.99505615234375,-111.51402282714844,2.255805015563965,-4.037915229797363,-2.815891742706299,2250.1163754463196
D4:22:CD:00:05:5E,-40.400604248046875,-75.29147338867188,177.05775451660156,-5.94167423248291,1.3265933990478516,-4.45522403717041,2250.1163754463196
D4:22:CD:00:05:5D,166.703125,-25.17279815673828,-124.71026611328125,-9.902215957641602,-4.379192352294922,-9.860876083374023,2250.146375656128
D4:22:CD:00:05:6B,-31.877647399902344,-39.785003662109375,-109.44477081298828,-22.884464263916016,-28.28561782836914,14.170476913452148,2250.146375656128
D4:22:CD:00:49:AA,-164.18936157226562,-77.13179779052734,85.3751220703125,-0.7808620929718018,-0.6381036043167114,-6.164548873901367,2250.146375656128
D4:22:CD:00:05:6E,-32.092769622802734,-56.828182220458984,-115.97437286376953,0.7090444564819336,-0.9161713123321533,-4.900538444519043,2250.146375656128
D4:22:CD:00:05:5E,-50.90281677246094,-76.05089569091797,-172.99002075195312,-6.883693695068359,2.40695858001709,-3.071971893310547,2250.146375656128
D4:22:CD:00:05:5D,164.66619873046875,-28.464256286621094,-131.19451904296875,-6.809087753295898,6.0932464599609375,18.967449188232422,2250.2061820030212
D4:22:CD:00:05:6B,-19.67724609375,-48.23835372924805,-127.39753723144531,-14.630964279174805,3.1678390502929688,25.503814697265625,2250.2061820030212
D4:22:CD:00:49:AA,-167.2109832763672,-77.51233673095703,87.95121002197266,-1.5041847229003906,0.9719692468643188,-5.780487060546875,2250.2061820030212
D4:22:CD:00:05:6E,-16.279333114624023,-59.31468200683594,-126.59712219238281,2.308366298675537,-3.7906670570373535,-2.618518352508545,2250.2061820030212
D4:22:CD:00:05:5E,-62.72551345825195,-76.24470520019531,-162.24862670898438,-6.012642860412598,2.532480239868164,-1.7747879028320312,2250.2061820030212
D4:22:CD:00:05:5D,162.40724182128906,-29.04094696044922,-132.6472930908203,-17.369327545166016,-8.461088180541992,-5.756124496459961,2250.2101831436157
D4:22:CD:00:05:6B,-14.319402694702148,-48.43406295776367,-124.5785140991211,8.739788055419922,-11.961013793945312,4.238470077514648,2250.2101831436157
D4:22:CD:00:49:AA,-168.25741577148438,-77.16002655029297,89.14037322998047,1.243262767791748,2.186241626739502,-2.8084964752197266,2250.2101831436157
D4:22:CD:00:05:6E,13.115707397460938,-60.429771423339844,-149.6583709716797,5.882468223571777,-24.046955108642578,7.666158676147461,2250.2101831436157
D4:22:CD:00:05:5E,-69.7922134399414,-76.9347915649414,-155.4889373779297,-5.817605018615723,5.274252891540527,-0.31850624084472656,2250.2101831436157
D4:22:CD:00:05:5D,164.52297973632812,-29.40243911743164,-130.30091857910156,-13.34933853149414,-13.21725082397461,4.144556045532227,2250.236180305481
D4:22:CD:00:05:6B,-27.63398551940918,-43.535518646240234,-109.10498809814453,-12.575090408325195,-8.047370910644531,4.057451248168945,2250.236180305481
D4:22:CD:00:49:AA,-168.3697052001953,-76.63642120361328,88.61151123046875,3.801344394683838,-1.0988872051239014,1.6033382415771484,2250.236180305481
D4:22:CD:00:05:6E,37.96049499511719,-54.19293975830078,-176.69476318359375,7.720369338989258,-24.294925689697266,22.045188903808594,2250.236180305481
D4:22:CD:00:05:5E,-71.36747741699219,-77.66710662841797,-154.22105407714844,-7.917366981506348,3.973233222961426,-1.8586196899414062,2250.236180305481
D4:22:CD:00:05:5D,167.57785034179688,-25.840782165527344,-124.74774932861328,-17.672760009765625,-8.430374145507812,18.914958953857422,2250.2661802768707
D4:22:CD:00:05:6B,-36.30537414550781,-33.55552291870117,-97.72468566894531,-4.130709648132324,-25.632884979248047,-0.0782766342163086,2250.2661802768707
D4:22:CD:00:49:AA,-168.57835388183594,-75.49951171875,86.85186767578125,-1.331744909286499,-2.9477806091308594,0.2422475814819336,2250.2661802768707
D4:22:CD:00:05:6E,50.63963317871094,-39.080360412597656,164.53173828125,8.033618927001953,-15.486976623535156,25.170024871826172,2250.2661802768707
D4:22:CD:00:05:5E,-65.85202026367188,-77.670166015625,-160.2788543701172,-8.881742477416992,3.784125328063965,-2.131814479827881,2250.2661802768707
D4:22:CD:00:05:5D,167.47532653808594,-17.23451805114746,-120.08014678955078,-5.094586372375488,-16.906227111816406,15.764097213745117,2250.296193599701
D4:22:CD:00:05:6B,-42.69819641113281,-21.64422035217285,-93.95567321777344,-0.08279991149902344,-18.305438995361328,-3.115795135498047,2250.296193599701
D4:22:CD:00:49:AA,-168.06532287597656,-74.92108917236328,85.96257781982422,-0.46953320503234863,1.242255449295044,6.019561767578125,2250.296193599701
D4:22:CD:00:05:6E,47.20985412597656,-19.194873809814453,152.17764282226562,-1.3881981372833252,-8.787092208862305,24.75632095336914,2250.296193599701
D4:22:CD:00:05:5E,-54.68294143676758,-76.0986328125,-172.752197265625,-9.611490249633789,4.146455764770508,-1.778325080871582,2250.296193599701
D4:22:CD:00:05:5D,165.12646484375,-8.141257286071777,-119.43102264404297,-11.630533218383789,-8.473209381103516,9.58690071105957,2250.326727628708
D4:22:CD:00:05:6B,-50.903053283691406,-10.748112678527832,-95.95304107666016,-6.573158264160156,-10.39065170288086,-6.228986740112305,2250.326727628708
D4:22:CD:00:49:AA,-169.83045959472656,-74.49591064453125,87.54293060302734,4.670165061950684,3.1770076751708984,7.624860763549805,2250.326727628708
D4:22:CD:00:05:6E,30.79277801513672,-0.1057339608669281,141.49099731445312,-11.006275177001953,3.4461545944213867,9.934703826904297,2250.326727628708
D4:22:CD:00:05:5E,-41.99597930908203,-72.03170776367188,172.31689453125,-11.139942169189453,3.7126998901367188,1.0355911254882812,2250.326727628708
D4:22:CD:00:05:5D,162.49603271484375,-1.7754465341567993,-120.455810546875,-6.552494049072266,-1.5493028163909912,-3.550914764404297,2250.356725692749
D4:22:CD:00:05:6B,-55.50376892089844,-5.530248165130615,-102.18222045898438,-5.547222137451172,-1.7352139949798584,1.4464120864868164,2250.356725692749
D4:22:CD:00:49:AA,-173.9547882080078,-73.75369262695312,91.04857635498047,5.361919403076172,2.249122142791748,9.514516830444336,2250.356725692749
D4:22:CD:00:05:6E,16.604534149169922,13.8576021194458,131.9432830810547,-7.027863502502441,-1.8374009132385254,0.7442626953125,2250.356725692749
D4:22:CD:00:05:5E,-20.27312660217285,-63.07149124145508,154.30239868164062,-11.196361541748047,4.931653022766113,-0.9409637451171875,2250.356725692749
D4:22:CD:00:05:5D,163.22933959960938,-0.3294402062892914,-121.47332000732422,-4.791106224060059,3.5250306129455566,-12.694509506225586,2250.4166145324707
D4:22:CD:00:05:6B,-60.745872497558594,-7.141734600067139,-110.19896697998047,-1.6701107025146484,-0.22587251663208008,1.7641372680664062,2250.4166145324707
D4:22:CD:00:49:AA,-179.38491821289062,-73.4308853149414,95.79188537597656,5.469326019287109,2.8258719444274902,11.3890380859375,2250.4166145324707
D4:22:CD:00:05:6E,9.78265380859375,21.928756713867188,124.48041534423828,-4.406807899475098,-7.006572723388672,-5.284420967102051,2250.4166145324707
D4:22:CD:00:05:5E,-6.9442009925842285,-59.753501892089844,148.56651306152344,-12.856683731079102,11.42512321472168,-14.93250846862793,2250.4166145324707
D4:22:CD:00:05:5D,164.92112731933594,-5.376781463623047,-121.55663299560547,-4.04963493347168,3.0893054008483887,-20.656143188476562,2250.4466137886047
D4:22:CD:00:05:6B,-67.20346069335938,-13.747869491577148,-118.1303939819336,-1.6512293815612793,2.7531075477600098,0.814143180847168,2250.4466137886047
D4:22:CD:00:49:AA,174.75892639160156,-73.56511688232422,100.33621978759766,5.174369812011719,2.2566280364990234,5.6191606521606445,2250.4466137886047
D4:22:CD:00:05:6E,11.90668773651123,27.362472534179688,118.95948028564453,-2.5193920135498047,-5.61397647857666,-10.32940673828125,2250.4466137886047
D4:22:CD:00:05:5E,0.554969310760498,-63.059654235839844,147.85755920410156,-9.993906021118164,-1.4665818214416504,-12.095226287841797,2250.4466137886047
D4:22:CD:00:05:5D,164.2884063720703,-16.615476608276367,-120.76971435546875,-6.114912033081055,-1.0513954162597656,-21.853572845458984,2250.4766137599945
D4:22:CD:00:05:6B,-69.9001235961914,-23.10552978515625,-125.17826843261719,1.0781335830688477,2.7050867080688477,-1.6232757568359375,2250.4766137599945
D4:22:CD:00:49:AA,168.60226440429688,-73.404296875,104.98565673828125,2.0853681564331055,0.298343300819397,-2.5163731575012207,2250.4766137599945
D4:22:CD:00:05:6E,12.994154930114746,31.6630916595459,116.62174987792969,-6.1179046630859375,-6.280400276184082,-13.487409591674805,2250.4766137599945
D4:22:CD:00:05:5E,2.8010923862457275,-66.07062530517578,143.80882263183594,11.258174896240234,-12.793737411499023,-9.12497329711914,2250.4766137599945
D4:22:CD:00:05:5D,160.76544189453125,-31.984817504882812,-118.8408432006836,-7.305368423461914,-3.848062515258789,-15.961418151855469,2250.507156610489
D4:22:CD:00:05:6B,-71.64710998535156,-32.57175064086914,-131.14877319335938,1.9626543521881104,3.1177468299865723,-4.613801956176758,2250.507156610489
D4:22:CD:00:49:AA,163.8756561279297,-72.13752746582031,108.03693389892578,-1.4952294826507568,-0.45630383491516113,-9.171930313110352,2250.507156610489
D4:22:CD:00:05:6E,4.783093452453613,35.466896057128906,117.95045471191406,-2.2184667587280273,-2.83174991607666,-13.439754486083984,2250.507156610489
D4:22:CD:00:05:5E,7.487152576446533,-62.49599075317383,140.2496337890625,-6.921209335327148,17.107406616210938,-6.007391929626465,2250.507156610489
D4:22:CD:00:05:5D,156.30242919921875,-49.88754653930664,-115.63810729980469,-4.3557891845703125,-6.399112701416016,-6.947580337524414,2250.5361568927765
D4:22:CD:00:05:6B,-71.79676818847656,-41.53178024291992,-135.9990234375,2.2785511016845703,3.3360958099365234,-5.958928108215332,2250.5361568927765
D4:22:CD:00:49:AA,163.96412658691406,-70.3843765258789,107.8437271118164,-4.03713321685791,-0.3305134177207947,-9.853553771972656,2250.5361568927765
D4:22:CD:00:05:6E,-1.0078456401824951,38.58042526245117,122.86943817138672,-1.4962120056152344,0.34054410457611084,-13.218141555786133,2250.5361568927765
D4:22:CD:00:05:5E,7.142406940460205,-61.138702392578125,139.78102111816406,1.8070242404937744,3.898080348968506,2.4471702575683594,2250.5361568927765
D4:22:CD:00:05:5D,150.18162536621094,-70.02014923095703,-109.30729675292969,-0.36611509323120117,-4.81375789642334,12.084630966186523,2250.5661566257477
D4:22:CD:00:05:6B,-72.05416107177734,-48.87448501586914,-139.3342742919922,2.6584296226501465,2.330623149871826,-4.388645172119141,2250.5661566257477
D4:22:CD:00:49:AA,165.4327850341797,-70.60466766357422,107.01554870605469,-0.9574389457702637,1.355726718902588,-7.573733329772949,2250.5661566257477
D4:22:CD:00:05:6E,0.234575092792511,40.93878936767578,133.46029663085938,-7.257452964782715,2.6557469367980957,-14.946083068847656,2250.5661566257477
D4:22:CD:00:05:5E,-3.1145360469818115,-62.81574249267578,142.63018798828125,-5.413166046142578,3.246166706085205,2.3833580017089844,2250.5661566257477
D4:22:CD:00:05:5D,50.37175369262695,-86.36767578125,-5.121412754058838,14.662286758422852,5.936229705810547,28.706180572509766,2250.596159696579
D4:22:CD:00:05:6B,-73.72227478027344,-53.32075500488281,-141.12120056152344,6.1727447509765625,2.603686809539795,0.05519390106201172,2250.596159696579
D4:22:CD:00:49:AA,164.87557983398438,-72.778564453125,107.45550537109375,2.148621082305908,2.505302906036377,-9.39093017578125,2250.596159696579
D4:22:CD:00:05:6E,5.9375786781311035,43.324493408203125,147.50164794921875,-19.495906829833984,4.225131034851074,-21.22323226928711,2250.596159696579
D4:22:CD:00:05:5E,-13.041869163513184,-64.13786315917969,146.84141540527344,-8.219451904296875,-0.1775544285774231,0.014170646667480469,2250.596159696579
D4:22:CD:00:05:5D,5.6182708740234375,-73.47933959960938,47.77418899536133,10.530830383300781,29.560916900634766,-4.064868927001953,2250.626426935196
D4:22:CD:00:05:6B,-70.33345031738281,-56.578495025634766,-142.66177368164062,3.2835817337036133,1.632457971572876,-3.2711591720581055,2250.626426935196
D4:22:CD:00:49:AA,163.5791473388672,-74.3134536743164,108.24671173095703,1.43206787109375,0.8986420631408691,-11.710939407348633,2250.626426935196
D4:22:CD:00:05:6E,21.429122924804688,46.718441009521484,154.32797241210938,0.6442196369171143,3.436401844024658,-14.026607513427734,2250.626426935196
D4:22:CD:00:05:5E,-14.447882652282715,-62.84489059448242,148.24124145507812,-9.098918914794922,-0.13600048422813416,0.690032958984375,2250.626426935196
D4:22:CD:00:05:5D,0.06711847335100174,-71.91954040527344,44.76239013671875,20.311233520507812,12.006790161132812,-12.513784408569336,2250.65643119812
D4:22:CD:00:05:6B,-67.685546875,-59.032936096191406,-142.47776794433594,1.3382127285003662,1.2032084465026855,-2.703925609588623,2250.65643119812
D4:22:CD:00:49:AA,166.01968383789062,-71.9874496459961,105.31420135498047,4.683927536010742,-6.868381500244141,-3.02717924118042,2250.65643119812
D4:22:CD:00:05:6E,36.51265335083008,49.510154724121094,148.31600952148438,3.358436107635498,-5.62593936920166,-9.22732162475586,2250.65643119812
D4:22:CD:00:05:5E,-13.654040336608887,-60.24503707885742,149.31654357910156,-6.687568664550781,2.9780144691467285,2.865880012512207,2250.65643119812
D4:22:CD:00:05:5D,16.619321823120117,-76.56654357910156,28.46528434753418,8.68716812133789,3.315277576446533,-2.793881416320801,2250.7159757614136
D4:22:CD:00:05:6B,-66.64665985107422,-61.716121673583984,-140.4792938232422,1.4076244831085205,2.178393840789795,1.061152458190918,2250.7159757614136
D4:22:CD:00:49:AA,171.95265197753906,-69.3329086303711,100.05325317382812,5.192243576049805,1.5958287715911865,10.155866622924805,2250.7159757614136
D4:22:CD:00:05:6E,36.153831481933594,49.45844650268555,135.20751953125,-0.401591420173645,-1.1193771362304688,-9.854434967041016,2250.7159757614136
D4:22:CD:00:05:5E,-10.99299430847168,-57.35612487792969,150.98895263671875,-5.931584358215332,1.4277045726776123,2.5965986251831055,2250.7159757614136
D4:22:CD:00:05:5D,62.952056884765625,-80.54022216796875,-8.920008659362793,8.293506622314453,-14.559759140014648,9.901817321777344,2250.7469758987427
D4:22:CD:00:05:6B,-65.1273422241211,-64.83901977539062,-137.56541442871094,-1.031104564666748,-0.6045246124267578,4.914061546325684,2250.7469758987427
D4:22:CD:00:49:AA,176.90757751464844,-69.37186431884766,96.5233383178711,1.0823538303375244,0.6449562311172485,4.214097023010254,2250.7469758987427
D4:22:CD:00:05:6E,32.60536193847656,44.49883270263672,118.18408966064453,-3.0035204887390137,-3.3550915718078613,-14.139904022216797,2250.7469758987427
D4:22:CD:00:05:5E,-9.941553115844727,-56.27164077758789,156.35946655273438,-6.102413177490234,-3.3250885009765625,1.2473773956298828,2250.7469758987427
D4:22:CD:00:05:5D,95.23687744140625,-80.68016815185547,-37.740394592285156,-3.6880083084106445,-9.254484176635742,3.3988494873046875,2250.7759759426117
D4:22:CD:00:05:6B,-66.51908111572266,-67.21249389648438,-133.6331787109375,-1.740452766418457,-4.666269302368164,6.207273483276367,2250.7759759426117
D4:22:CD:00:49:AA,-175.92257690429688,-68.31275177001953,92.19393157958984,0.35336142778396606,1.0813570022583008,1.248626708984375,2250.7759759426117
D4:22:CD:00:05:6E,33.409820556640625,33.220985412597656,101.6036376953125,-12.906749725341797,-2.4673972129821777,-17.524330139160156,2250.7759759426117
D4:22:CD:00:05:5E,-9.731255531311035,-57.304386138916016,163.6760711669922,-16.837566375732422,-0.11439783871173859,-1.244154930114746,2250.7759759426117
D4:22:CD:00:05:5D,116.86077880859375,-80.0943832397461,-58.22629928588867,9.319280624389648,-0.4149913191795349,0.84539794921875,2250.806521654129
D4:22:CD:00:05:6B,-70.91792297363281,-68.61093139648438,-128.4673309326172,-0.3408780097961426,-6.792634963989258,5.766010284423828,2250.806521654129
D4:22:CD:00:49:AA,-170.51173400878906,-66.83866119384766,89.79852294921875,3.5304436683654785,0.19101393222808838,4.8694000244140625,2250.806521654129
D4:22:CD:00:05:6E,37.492897033691406,19.70244598388672,88.10673522949219,-8.923988342285156,-1.7510671615600586,-13.476432800292969,2250.806521654129
D4:22:CD:00:05:5E,-14.116392135620117,-63.6619758605957,172.1986083984375,-28.97747802734375,1.0346002578735352,-3.7778306007385254,2250.806521654129
D4:22:CD:00:05:5D,137.12301635742188,-78.90275573730469,-73.09783172607422,-1.2544376850128174,-0.6690046787261963,2.563344955444336,2250.8365218639374
D4:22:CD:00:05:6B,-76.0542221069336,-68.71084594726562,-121.13812255859375,-2.3283166885375977,-3.1060986518859863,3.966952323913574,2250.8365218639374
D4:22:CD:00:49:AA,-167.7528076171875,-66.18304443359375,89.66650390625,0.01066804863512516,-2.2451014518737793,0.21280670166015625,2250.8365218639374
D4:22:CD:00:05:6E,43.35734558105469,7.1554694175720215,75.61265563964844,-2.3428492546081543,1.7960805892944336,-6.881120681762695,2250.8365218639374
D4:22:CD:00:05:5E,-20.723539352416992,-72.20942687988281,-177.19259643554688,-16.21953582763672,1.0340263843536377,-2.8451623916625977,2250.8365218639374
D4:22:CD:00:05:5D,152.22125244140625,-76.7380599975586,-82.2278823852539,-5.9249114990234375,0.9945065975189209,4.34986686706543,2250.8665215969086
D4:22:CD:00:05:6B,-78.6307144165039,-66.73712158203125,-112.9212646484375,-0.9679595232009888,0.9032409191131592,4.259753227233887,2250.8665215969086
D4:22:CD:00:49:AA,-166.1042938232422,-65.86981201171875,91.39429473876953,-5.379402160644531,-3.2651190757751465,-1.7133474349975586,2250.8665215969086
D4:22:CD:00:05:6E,51.41301345825195,-3.7073819637298584,63.52375793457031,9.25050163269043,0.5559536218643188,-0.4133434295654297,2250.8665215969086
D4:22:CD:00:05:5E,-31.140810012817383,-80.37323760986328,-160.24195861816406,-7.520237922668457,-0.8201099634170532,-7.684082984924316,2250.8665215969086
D4:22:CD:00:05:5D,161.19749450683594,-74.10346984863281,-90.17420959472656,-2.1209049224853516,-0.5714734792709351,0.12694168090820312,2250.896523952484
D4:22:CD:00:05:6B,-73.60631561279297,-64.12065887451172,-108.12356567382812,-5.913052558898926,-3.346238136291504,-4.056048393249512,2250.896523952484
D4:22:CD:00:49:AA,-164.77340698242188,-65.42808532714844,95.22740936279297,-6.116863250732422,2.1754984855651855,-3.9759678840637207,2250.896523952484
D4:22:CD:00:05:6E,66.50064086914062,-10.3308687210083,54.49135971069336,14.737979888916016,-7.560153007507324,-3.219834804534912,2250.896523952484
D4:22:CD:00:05:5E,-86.4783706665039,-86.03508758544922,-98.828857421875,-2.0077948570251465,-0.5132205486297607,-10.917943954467773,2250.896523952484
D4:22:CD:00:05:5D,168.214111328125,-71.94065856933594,-98.69881439208984,-1.8039402961730957,-0.05836615711450577,0.10912704467773438,2250.9260568618774
D4:22:CD:00:05:6B,-71.15510559082031,-62.586002349853516,-104.5050277709961,-4.841507911682129,-3.787623405456543,-6.001328468322754,2250.9260568618774
D4:22:CD:00:49:AA,-164.56085205078125,-64.94175720214844,99.2548828125,-0.6181151866912842,2.040130138397217,-0.8942146301269531,2250.9260568618774
D4:22:CD:00:05:6E,82.51018524169922,-15.596354484558105,50.2585334777832,-1.3847370147705078,-4.226778030395508,7.170507431030273,2250.9260568618774
D4:22:CD:00:05:5E,-156.951904296875,-81.67381286621094,-25.52484893798828,0.7555441856384277,-0.17421135306358337,-14.234935760498047,2250.9260568618774
D4:22:CD:00:05:5D,172.12649536132812,-69.03761291503906,-103.92853546142578,4.919973373413086,-0.9247349500656128,-0.6357622146606445,2250.9560573101044
D4:22:CD:00:05:6B,-71.13275146484375,-62.7010612487793,-103.33613586425781,-5.19258975982666,-0.4721994400024414,-4.055360794067383,2250.9560573101044
D4:22:CD:00:49:AA,-165.03419494628906,-65.216552734375,102.3366470336914,2.8248071670532227,1.9897029399871826,0.6057004928588867,2250.9560573101044
D4:22:CD:00:05:6E,89.48196411132812,-20.373111724853516,47.61777114868164,-0.9159911870956421,-7.445375442504883,1.0876235961914062,2250.9560573101044
D4:22:CD:00:05:5E,-172.45755004882812,-75.297607421875,-10.015390396118164,1.8171749114990234,4.440727233886719,-15.052816390991211,2250.9560573101044
D4:22:CD:00:05:5D,174.74252319335938,-66.07115173339844,-105.42029571533203,2.287308692932129,0.058916449546813965,0.6407489776611328,2251.0165989398956
D4:22:CD:00:05:6B,-70.38319396972656,-63.62102127075195,-104.30563354492188,-4.042763710021973,1.2237749099731445,-0.22687530517578125,2251.0165989398956
D4:22:CD:00:49:AA,-167.0436553955078,-65.42395782470703,106.17953491210938,-0.8352392911911011,2.1132802963256836,1.7894868850708008,2251.0165989398956
D4:22:CD:00:05:6E,96.1402587890625,-25.141176223754883,44.49578094482422,-2.284350872039795,-8.391372680664062,2.761629104614258,2251.0165989398956
D4:22:CD:00:05:5E,-178.8265838623047,-70.7730712890625,-2.377798080444336,-1.833406925201416,3.892645835876465,-14.741357803344727,2251.0165989398956
D4:22:CD:00:05:5D,176.01844787597656,-63.771995544433594,-104.62708282470703,1.214343547821045,0.5600464344024658,0.8469181060791016,2251.0765991210938
D4:22:CD:00:05:6B,-68.00098419189453,-63.98991394042969,-106.79735565185547,-4.981806755065918,0.434112548828125,2.7658891677856445,2251.0765991210938
D4:22:CD:00:49:AA,-171.024658203125,-66.5213851928711,110.75220489501953,-3.3505029678344727,0.7545742988586426,1.894505500793457,2251.0765991210938
D4:22:CD:00:05:6E,100.9251708984375,-30.94566535949707,39.721439361572266,-8.045614242553711,-7.972084045410156,12.999088287353516,2251.0765991210938
D4:22:CD:00:05:5E,175.4500274658203,-68.02831268310547,3.003474712371826,-2.1494364738464355,4.876740455627441,-10.692541122436523,2251.0765991210938
D4:22:CD:00:05:5D,176.84983825683594,-62.34487533569336,-103.399658203125,-0.10254058241844177,1.0353076457977295,1.0073976516723633,2251.1061549186707
D4:22:CD:00:05:6B,-67.07483673095703,-63.127464294433594,-109.64561462402344,-5.519560813903809,-0.057511091232299805,3.685291290283203,2251.1061549186707
D4:22:CD:00:49:AA,-174.95303344726562,-67.1390609741211,115.02546691894531,-2.3838281631469727,0.2835512161254883,3.7010974884033203,2251.1061549186707
D4:22:CD:00:05:6E,103.546142578125,-36.10513687133789,33.47119903564453,4.976831436157227,-9.547714233398438,5.8576812744140625,2251.1061549186707
D4:22:CD:00:05:5E,167.82421875,-67.18988037109375,7.434782981872559,-4.340917587280273,4.487617492675781,-5.228087425231934,2251.1061549186707
D4:22:CD:00:05:5D,178.25582885742188,-61.74751281738281,-102.90271759033203,0.24774354696273804,0.36289113759994507,0.32648181915283203,2251.1091549396515
D4:22:CD:00:05:6B,-65.9560775756836,-61.449459075927734,-113.12533569335938,-3.1154708862304688,-0.5410107374191284,4.405320167541504,2251.1091549396515
D4:22:CD:00:49:AA,-178.58328247070312,-67.95559692382812,119.78614044189453,-1.0391845703125,2.6053552627563477,1.6656780242919922,2251.1091549396515
D4:22:CD:00:05:6E,110.31292724609375,-41.18719482421875,27.83815574645996,5.485786437988281,-4.705251693725586,4.538883209228516,2251.1091549396515
D4:22:CD:00:05:5E,157.0016326904297,-67.95463562011719,12.184173583984375,-4.103305816650391,2.0834531784057617,-0.5113353729248047,2251.1091549396515
D4:22:CD:00:05:5D,-179.60467529296875,-61.64201354980469,-103.11004638671875,0.1169455498456955,0.7005288600921631,0.630976676940918,2251.1371545791626
D4:22:CD:00:05:6B,-63.34263610839844,-58.92706298828125,-118.25547790527344,-3.0215258598327637,-1.5860209465026855,1.1493759155273438,2251.1371545791626
D4:22:CD:00:49:AA,175.72760009765625,-68.41099548339844,124.97772216796875,0.4075588583946228,3.2037248611450195,1.5126714706420898,2251.1371545791626
D4:22:CD:00:05:6E,115.7789077758789,-47.79179000854492,21.805044174194336,2.9580392837524414,-4.7248945236206055,5.924489974975586,2251.1371545791626
D4:22:CD:00:05:5E,142.3601531982422,-71.5521240234375,23.53753089904785,2.165860176086426,2.8097848892211914,2.41348934173584,2251.1371545791626
D4:22:CD:00:05:5D,-178.22406005859375,-61.85297775268555,-103.26783752441406,-1.267287254333496,0.21644413471221924,0.6413183212280273,2251.166155099869
D4:22:CD:00:05:6B,-61.72998809814453,-55.90311050415039,-123.07767486572266,-3.234320640563965,-0.8241294622421265,-1.2345008850097656,2251.166155099869
D4:22:CD:00:49:AA,169.68182373046875,-68.92278289794922,129.01263427734375,-0.9691717624664307,1.551788330078125,1.3066778182983398,2251.166155099869
D4:22:CD:00:05:6E,119.25629425048828,-56.86981201171875,14.959502220153809,4.907183647155762,-0.5948915481567383,2.119436264038086,2251.166155099869
D4:22:CD:00:05:5E,130.7749786376953,-74.86215209960938,36.12302780151367,-45.37440490722656,29.79564666748047,21.253429412841797,2251.166155099869
D4:22:CD:00:05:5D,-177.65101623535156,-61.86323165893555,-103.2076644897461,-0.1747710406780243,-0.8121117353439331,-0.08990001678466797,2251.196281194687
D4:22:CD:00:05:6B,-60.96981430053711,-52.320068359375,-127.19425964355469,-1.4471604824066162,-1.0480880737304688,-1.8809881210327148,2251.196281194687
D4:22:CD:00:49:AA,162.39573669433594,-69.7843246459961,134.1797332763672,-2.817986011505127,-0.5151244401931763,-1.2511253356933594,2251.196281194687
D4:22:CD:00:05:6E,122.20625305175781,-65.94918823242188,5.869337558746338,2.825939655303955,-3.44038724899292,8.771089553833008,2251.196281194687
D4:22:CD:00:05:5E,124.67987060546875,-76.07270812988281,39.208946228027344,1.4231274127960205,-5.560845375061035,-3.2582602500915527,2251.196281194687
D4:22:CD:00:05:5D,-177.9832000732422,-61.24798583984375,-102.4503402709961,-1.2552428245544434,-1.4349958896636963,0.0024509429931640625,2251.226808786392
D4:22:CD:00:05:6B,-63.73448181152344,-47.230979919433594,-130.66395568847656,0.7362208366394043,-0.1505328118801117,-1.941777229309082,2251.226808786392
D4:22:CD:00:49:AA,155.64866638183594,-70.67413330078125,139.31460571289062,-2.4262990951538086,-1.4133527278900146,-3.5267434120178223,2251.226808786392
D4:22:CD:00:05:6E,122.13163757324219,-71.80999755859375,0.5768810510635376,12.74666976928711,0.4000290632247925,1.1016216278076172,2251.226808786392
D4:22:CD:00:05:5E,111.64400482177734,-75.90150451660156,47.66961669921875,2.8384194374084473,-6.124941825866699,14.941577911376953,2251.226808786392
D4:22:CD:00:05:5D,179.43527221679688,-59.438743591308594,-99.96055603027344,-3.7921037673950195,-2.589484691619873,2.278611183166504,2251.2868082523346
D4:22:CD:00:05:6B,-68.268798828125,-39.790916442871094,-134.43429565429688,0.0005022287368774414,1.669260025024414,-1.5172042846679688,2251.2868082523346
D4:22:CD:00:49:AA,149.7339630126953,-72.20326232910156,143.9451904296875,-0.3402470350265503,-0.6502043008804321,-5.353926658630371,2251.2868082523346
D4:22:CD:00:05:6E,126.41986083984375,-71.75726318359375,2.8322579860687256,1.063284158706665,3.0147624015808105,3.6565380096435547,2251.2868082523346
D4:22:CD:00:05:5E,117.4142074584961,-75.72959899902344,41.15336227416992,6.596891403198242,8.010717391967773,8.885353088378906,2251.2868082523346
D4:22:CD:00:05:5D,176.5796661376953,-56.039405822753906,-96.82862091064453,1.5091075897216797,0.04512793570756912,-1.939699649810791,2251.3164455890656
D4:22:CD:00:05:6B,-75.9435043334961,-28.36393165588379,-138.02310180664062,-0.6951612234115601,3.4952988624572754,0.9174470901489258,2251.3164455890656
D4:22:CD:00:49:AA,143.8696746826172,-74.00080108642578,149.46502685546875,-1.2386069297790527,0.19959872961044312,-5.583009719848633,2251.3164455890656
D4:22:CD:00:05:6E,126.2686996459961,-68.45514678955078,9.654860496520996,4.461509704589844,7.3675947189331055,11.065576553344727,2251.3164455890656
D4:22:CD:00:05:5E,131.96240234375,-74.15482330322266,34.56428527832031,4.7329816818237305,-0.005322737619280815,21.013660430908203,2251.3164455890656
