Device,EulerX,EulerY,EulerZ,FreeAccX,FreeAccY,FreeAccZ,Timestamp
D4:22:CD:00:05:5D,158.31459045410156,-74.40142059326172,-53.34012985229492,-7.711688041687012,5.022571563720703,-1.5321741104125977,1573.0989863872528
D4:22:CD:00:05:6B,-13.477669715881348,32.309173583984375,-82.80693054199219,-1.0323219299316406,-10.733156204223633,-17.120685577392578,1573.0989863872528
D4:22:CD:00:49:AA,167.93450927734375,-84.07719421386719,144.0975341796875,-1.656320571899414,0.4862757921218872,-5.314960479736328,1573.0989863872528
D4:22:CD:00:05:6E,-107.19869995117188,-86.54997253417969,-29.460102081298828,5.072443008422852,-1.7131719589233398,-7.787192344665527,1573.0989863872528
D4:22:CD:00:05:5E,-144.6784210205078,-33.154232025146484,-128.62562561035156,-14.72616195678711,14.68686294555664,3.325704574584961,1573.0989863872528
D4:22:CD:00:05:6B,-21.332992553710938,24.411611557006836,-102.24908447265625,-8.40987777709961,-28.68750762939453,-21.860828399658203,1573.1100006103516
D4:22:CD:00:49:AA,158.7373504638672,-84.44403076171875,152.0556182861328,-1.7394671440124512,1.247037649154663,-1.4646711349487305,1573.1100006103516
D4:22:CD:00:05:6E,-52.50817108154297,-89.04468536376953,-80.6001968383789,5.2778730392456055,-2.77170991897583,-4.1527910232543945,1573.1100006103516
D4:22:CD:00:05:5E,-148.81373596191406,-29.328659057617188,-126.50907897949219,-17.585594177246094,4.999721527099609,5.620086669921875,1573.1100006103516
D4:22:CD:00:05:5D,-156.009521484375,-74.98822784423828,-139.7193145751953,-1.0193684101104736,-0.5443471670150757,-0.5180559158325195,1573.1140036582947
D4:22:CD:00:49:AA,155.90792846679688,-83.00776672363281,152.114501953125,-4.163295745849609,-0.2146267294883728,3.868832588195801,1573.1140036582947
D4:22:CD:00:05:6E,26.921546936035156,-88.11758422851562,-158.32505798339844,4.76572322845459,-3.416903495788574,-2.4112772941589355,1573.1140036582947
D4:22:CD:00:05:5E,-145.6457977294922,-28.420175552368164,-122.61296081542969,-5.584566116333008,-22.63104248046875,-17.95187759399414,1573.1140036582947
D4:22:CD:00:05:5D,-156.2189178466797,-76.26107788085938,-140.3594512939453,-1.2239363193511963,-0.6141239404678345,-0.3355560302734375,1573.1188507080078
D4:22:CD:00:05:6B,-65.03656005859375,-29.61370277404785,-60.60318374633789,1.5333361625671387,0.4892762303352356,-2.706968307495117,1573.1188507080078
D4:22:CD:00:05:6E,39.440086364746094,-88.25000762939453,-170.7255401611328,3.009212017059326,-3.587975025177002,1.3522815704345703,1573.1188507080078
D4:22:CD:00:05:5E,-145.49258422851562,-29.11020851135254,-118.82341003417969,-17.196880340576172,-16.37929916381836,-3.6114773750305176,1573.1188507080078
D4:22:CD:00:05:5D,154.77561950683594,-72.79520416259766,-85.9644775390625,-0.2702784538269043,3.8461480140686035,-1.706796646118164,1573.1238896846771
D4:22:CD:00:05:6B,-60.71442794799805,-21.3756160736084,-62.93404769897461,1.6573681831359863,-2.8470001220703125,-1.1327552795410156,1573.1238896846771
D4:22:CD:00:49:AA,113.26567077636719,-11.09155559539795,-168.1179962158203,-8.250022888183594,-2.6395492553710938,-11.006460189819336,1573.1238896846771
D4:22:CD:00:05:6E,-36.872806549072266,-39.81404495239258,-164.27615356445312,-4.636946678161621,-12.278018951416016,-12.295297622680664,1573.1238896846771
D4:22:CD:00:05:5D,151.7829132080078,-65.90235900878906,-79.08048248291016,5.8225812911987305,-1.9351377487182617,-4.232146263122559,1573.1661615371704
D4:22:CD:00:05:6B,-66.12975311279297,-14.565978050231934,-63.47126007080078,-0.992713451385498,3.017490863800049,0.45325660705566406,1573.1661615371704
D4:22:CD:00:49:AA,116.5517578125,-23.94133758544922,-168.17129516601562,-10.746683120727539,-5.593001365661621,-4.437403678894043,1573.1661615371704
D4:22:CD:00:05:6E,0.0010546044213697314,-44.53486251831055,168.9046630859375,-3.7789058685302734,-3.5674867630004883,-1.617767333984375,1573.1661615371704
D4:22:CD:00:05:5E,143.02783203125,-78.39994812011719,25.624767303466797,-0.47310322523117065,-3.5238142013549805,9.042474746704102,1573.1661615371704
D4:22:CD:00:05:5D,157.82516479492188,-60.74141311645508,-79.08822631835938,9.54159164428711,3.3671650886535645,0.5395402908325195,1573.1961617469788
D4:22:CD:00:05:6B,-74.31927490234375,-3.890991449356079,-62.01090621948242,-5.959084510803223,9.063486099243164,15.142438888549805,1573.1961617469788
D4:22:CD:00:49:AA,121.77084350585938,-37.16576385498047,-170.3284912109375,-8.142009735107422,-1.4719853401184082,4.07829475402832,1573.1961617469788
D4:22:CD:00:05:6E,17.839948654174805,-45.54551696777344,151.8369903564453,-10.695886611938477,8.632421493530273,9.343324661254883,1573.1961617469788
D4:22:CD:00:05:5E,138.45298767089844,-74.00089263916016,31.479171752929688,-0.6292428970336914,-9.047920227050781,12.292259216308594,1573.1961617469788
D4:22:CD:00:05:5D,164.2038116455078,-58.23432922363281,-83.3273696899414,2.549750804901123,5.406464576721191,0.9071559906005859,1573.2260687351227
D4:22:CD:00:05:6B,-74.15532684326172,9.713050842285156,-56.66004180908203,11.335493087768555,-3.677389144897461,28.181846618652344,1573.2260687351227
D4:22:CD:00:49:AA,124.11944580078125,-47.365081787109375,-173.19129943847656,-8.227092742919922,-5.280342102050781,12.609474182128906,1573.2260687351227
D4:22:CD:00:05:6E,23.503746032714844,-53.821533203125,146.6225128173828,-10.38071060180664,9.624835968017578,11.70329475402832,1573.2260687351227
D4:22:CD:00:05:5E,135.07949829101562,-63.04209899902344,40.28813934326172,1.7309739589691162,3.1231203079223633,21.357139587402344,1573.2260687351227
D4:22:CD:00:05:5D,167.266357421875,-57.52904510498047,-84.12004852294922,1.034980297088623,3.0970654487609863,3.239333152770996,1573.2561707496643
D4:22:CD:00:05:6B,-60.920806884765625,21.070594787597656,-48.57429122924805,13.847846984863281,-22.374862670898438,26.41333770751953,1573.2561707496643
D4:22:CD:00:49:AA,126.70330047607422,-55.495323181152344,-176.61329650878906,-11.412912368774414,-3.3735227584838867,9.22978401184082,1573.2561707496643
D4:22:CD:00:05:6E,17.477750778198242,-65.03538513183594,153.32644653320312,-9.802043914794922,-1.659618616104126,9.48309326171875,1573.2561707496643
D4:22:CD:00:05:5E,150.28370666503906,-59.539608001708984,34.315879821777344,12.167434692382812,8.073989868164062,22.077762603759766,1573.2561707496643
D4:22:CD:00:05:5D,169.36416625976562,-58.60304260253906,-83.33110809326172,-2.689411163330078,1.6803524494171143,2.8684043884277344,1573.2855982780457
D4:22:CD:00:05:6B,-41.96171569824219,29.122671127319336,-39.97976303100586,15.25035285949707,-24.51089859008789,13.31353759765625,1573.2855982780457
D4:22:CD:00:49:AA,132.04640197753906,-61.92524337768555,178.24758911132812,-9.056230545043945,-7.149349212646484,6.48516845703125,1573.2855982780457
D4:22:CD:00:05:6E,-5.6395158767700195,-72.86965942382812,176.11465454101562,-7.814901351928711,-8.170341491699219,9.438343048095703,1573.2855982780457
D4:22:CD:00:05:5E,152.578369140625,-63.958370208740234,35.62340545654297,-4.55375862121582,-7.660186767578125,3.5245962142944336,1573.2855982780457
D4:22:CD:00:05:5D,172.22825622558594,-61.03499984741211,-83.96920776367188,-2.768545150756836,0.4611849784851074,3.0257177352905273,1573.3161718845367
D4:22:CD:00:05:6B,-24.9702205657959,36.15768814086914,-33.15890884399414,13.827579498291016,-18.083248138427734,2.026604652404785,1573.3161718845367
D4:22:CD:00:49:AA,138.428955078125,-67.75336456298828,174.2825469970703,-4.1825714111328125,-3.481513023376465,6.206289291381836,1573.3161718845367
D4:22:CD:00:05:6E,-41.01446533203125,-73.06694793701172,-147.77703857421875,-6.061595916748047,-3.0990281105041504,3.404926300048828,1573.3161718845367
D4:22:CD:00:05:5E,153.2677001953125,-63.26057815551758,38.91659927368164,-12.355009078979492,10.266151428222656,6.748414993286133,1573.3161718845367
D4:22:CD:00:05:5D,173.8362579345703,-64.98778533935547,-83.05252838134766,-1.404585599899292,1.1099483966827393,5.646720886230469,1573.361536026001
D4:22:CD:00:05:6B,-11.778319358825684,42.61613082885742,-27.534555435180664,8.269641876220703,-8.567649841308594,-4.968340873718262,1573.361536026001
D4:22:CD:00:49:AA,146.68807983398438,-73.64176177978516,170.1857147216797,-2.066098213195801,-1.628734827041626,4.992240905761719,1573.361536026001
D4:22:CD:00:05:6E,-57.74599838256836,-66.37947082519531,-121.59219360351562,-7.089468955993652,-7.308907508850098,2.2379150390625,1573.361536026001
D4:22:CD:00:05:5E,160.13497924804688,-63.22880935668945,40.05951690673828,-5.676543235778809,7.2784576416015625,-5.323034286499023,1573.361536026001
D4:22:CD:00:05:5D,172.13165283203125,-70.02867889404297,-78.16606903076172,7.633798599243164,-1.63761568069458,8.777624130249023,1573.4065527915955
D4:22:CD:00:05:6B,-4.8273468017578125,47.727901458740234,-20.8702449798584,-0.3302183151245117,-3.7248897552490234,-5.175352096557617,1573.4065527915955
D4:22:CD:00:49:AA,161.08059692382812,-78.40226745605469,161.0848388671875,-0.40997594594955444,-0.1279900074005127,-0.6478004455566406,1573.4065527915955
D4:22:CD:00:05:6E,-53.41143035888672,-58.868709564208984,-106.55241394042969,-8.776866912841797,-11.598287582397461,0.4163789749145508,1573.4065527915955
D4:22:CD:00:05:5E,164.8450469970703,-65.23632049560547,37.861175537109375,-5.085278511047363,7.775590896606445,-11.302370071411133,1573.4065527915955
D4:22:CD:00:05:5D,169.82827758789062,-76.56631469726562,-78.8636703491211,0.17296147346496582,-6.289192199707031,0.15211868286132812,1573.4361622333527
D4:22:CD:00:05:6B,-2.4159512519836426,50.83382034301758,-14.258920669555664,-5.026317596435547,-4.199708938598633,-4.278709411621094,1573.4361622333527
D4:22:CD:00:49:AA,-176.81240844726562,-80.52344512939453,144.7534637451172,-0.6448400020599365,-2.7594852447509766,-5.723752021789551,1573.4361622333527
D4:22:CD:00:05:6E,-35.25761413574219,-54.29801940917969,-98.40193176269531,0.04029840975999832,-21.678043365478516,-8.478790283203125,1573.4361622333527
D4:22:CD:00:05:5E,171.69410705566406,-68.2832260131836,31.135940551757812,-6.447043418884277,6.123292922973633,-17.757095336914062,1573.4361622333527
D4:22:CD:00:05:5D,162.9965057373047,-78.4441146850586,-79.14920806884766,6.667542457580566,-3.9061527252197266,-9.678077697753906,1573.466163635254
D4:22:CD:00:05:6B,-1.0157496929168701,54.18513107299805,-14.28042221069336,-3.267843723297119,-4.030124664306641,-7.255997657775879,1573.466163635254
D4:22:CD:00:49:AA,-156.685546875,-81.97554016113281,129.51710510253906,0.9543201923370361,0.1224675178527832,-6.05623722076416,1573.466163635254
D4:22:CD:00:05:6E,-19.900081634521484,-53.8493537902832,-94.75662994384766,5.899654388427734,-14.140743255615234,-14.622720718383789,1573.466163635254
D4:22:CD:00:05:5E,-177.94186401367188,-72.43045806884766,20.343740463256836,-3.7585201263427734,10.048442840576172,-15.004989624023438,1573.466163635254
D4:22:CD:00:05:5D,161.2624053955078,-77.6091537475586,-73.07298278808594,5.629728317260742,-1.811311960220337,-7.253870964050293,1573.496334552765
D4:22:CD:00:05:6B,-2.9935500621795654,58.8020133972168,-25.287588119506836,-2.995558738708496,-1.8138129711151123,-12.231945037841797,1573.496334552765
D4:22:CD:00:49:AA,-127.0419692993164,-83.36053466796875,102.56111145019531,0.9742307662963867,1.7675464153289795,-10.162158966064453,1573.496334552765
D4:22:CD:00:05:6E,-20.622840881347656,-55.45975875854492,-91.67688751220703,8.744009017944336,-8.036985397338867,-17.185550689697266,1573.496334552765
D4:22:CD:00:05:5E,-152.61477661132812,-77.46669006347656,-2.828568696975708,-1.411123514175415,5.7777299880981445,-12.09225082397461,1573.496334552765
D4:22:CD:00:05:5D,161.88272094726562,-78.56411743164062,-66.59042358398438,2.0350193977355957,-6.108068466186523,-7.771122932434082,1573.5264112949371
D4:22:CD:00:05:6B,-15.032063484191895,61.691280364990234,-49.27710723876953,-3.3254547119140625,-0.9934357404708862,-16.265392303466797,1573.5264112949371
D4:22:CD:00:49:AA,-94.8949966430664,-83.24755859375,73.66311645507812,-0.6101105213165283,3.642061710357666,-11.92138671875,1573.5264112949371
D4:22:CD:00:05:6E,-28.100656509399414,-58.09794998168945,-90.54488372802734,5.21257209777832,-3.965607166290283,-14.782047271728516,1573.5264112949371
D4:22:CD:00:05:5E,-107.84344482421875,-78.98479461669922,-45.750186920166016,0.11853396892547607,0.38763242959976196,-11.332036972045898,1573.5264112949371
D4:22:CD:00:05:5D,158.53131103515625,-81.33512115478516,-62.7489128112793,0.8905352354049683,0.8196858167648315,-9.1419677734375,1573.5563306808472
D4:22:CD:00:05:6B,-33.33119201660156,58.02408981323242,-79.93817901611328,-4.386983871459961,-4.079402923583984,-20.800376892089844,1573.5563306808472
D4:22:CD:00:49:AA,-71.93801879882812,-82.9864501953125,52.78804397583008,-0.3433533310890198,3.949157238006592,-10.057258605957031,1573.5563306808472
D4:22:CD:00:05:6E,-32.85989761352539,-61.005794525146484,-92.38932037353516,3.397752285003662,-0.26199841499328613,-11.591684341430664,1573.5563306808472
D4:22:CD:00:05:5E,-72.87124633789062,-75.20026397705078,-81.18051147460938,1.4607043266296387,-3.0235185623168945,-11.216773986816406,1573.5563306808472
D4:22:CD:00:05:5D,160.17762756347656,-79.9525146484375,-63.69922637939453,-11.039257049560547,16.930110931396484,-1.044875144958496,1573.5867176055908
D4:22:CD:00:05:6B,-39.14097213745117,47.91539001464844,-103.45096588134766,-16.265560150146484,-22.238544464111328,-21.499149322509766,1573.5867176055908
D4:22:CD:00:49:AA,-61.061161041259766,-82.5951156616211,42.457706451416016,-0.814566969871521,0.31553369760513306,-7.706415176391602,1573.5867176055908
D4:22:CD:00:05:6E,-29.551923751831055,-63.159217834472656,-98.51256561279297,2.1366419792175293,0.8508927822113037,-8.51234245300293,1573.5867176055908
D4:22:CD:00:05:5E,-52.60908126831055,-68.97261810302734,-103.837890625,-0.8484058380126953,-7.643184661865234,-9.131826400756836,1573.5867176055908
D4:22:CD:00:05:5D,156.81976318359375,-73.31830596923828,-57.70438766479492,-6.529653549194336,-5.166555404663086,-1.8821582794189453,1573.616732597351
D4:22:CD:00:05:6B,-31.491100311279297,46.00568389892578,-114.17253875732422,5.713348388671875,21.290733337402344,-28.40118408203125,1573.616732597351
D4:22:CD:00:49:AA,-60.866905212402344,-82.19405364990234,43.13229751586914,0.10082937777042389,-0.7111485004425049,-4.563834190368652,1573.616732597351
D4:22:CD:00:05:6E,-19.6535587310791,-63.64360809326172,-106.3512954711914,-0.12420330941677094,-1.8462409973144531,-6.321680068969727,1573.616732597351
D4:22:CD:00:05:5E,-45.11130142211914,-63.209693908691406,-119.22650146484375,-9.66244125366211,-20.007282257080078,-10.324331283569336,1573.616732597351
D4:22:CD:00:05:5D,157.18775939941406,-67.95211029052734,-52.750301361083984,-3.606227397918701,3.555868148803711,1.6869487762451172,1573.6457240581512
D4:22:CD:00:05:6B,-35.2860107421875,50.26169204711914,-104.09601593017578,-4.128226280212402,2.1972904205322266,-2.1650443077087402,1573.6457240581512
D4:22:CD:00:49:AA,-62.49687957763672,-81.68244171142578,44.22454071044922,-1.3915183544158936,-2.614989757537842,-1.7907590866088867,1573.6457240581512
D4:22:CD:00:05:6E,-8.082094192504883,-63.98562240600586,-112.46472930908203,0.5405677556991577,-5.833925247192383,-1.9554195404052734,1573.6457240581512
D4:22:CD:00:05:5E,-43.5074462890625,-60.60197448730469,-129.2709503173828,-24.585594177246094,-14.89643669128418,-7.585676193237305,1573.6457240581512
D4:22:CD:00:05:5D,156.0477294921875,-65.0610122680664,-50.71635437011719,6.4598541259765625,1.4487168788909912,4.113589286804199,1573.7061395645142
D4:22:CD:00:05:6B,-31.849489212036133,56.13730239868164,-82.83169555664062,1.7798433303833008,-3.8321800231933594,-10.106424331665039,1573.7061395645142
D4:22:CD:00:49:AA,-64.49187469482422,-81.47891998291016,46.67025375366211,0.3204500675201416,-5.244820594787598,3.536686897277832,1573.7061395645142
D4:22:CD:00:05:6E,-0.14364995062351227,-64.13904571533203,-113.83074188232422,6.541010856628418,-8.426931381225586,2.79251766204834,1573.7061395645142
D4:22:CD:00:05:5E,-39.214595794677734,-61.99246597290039,-132.1424102783203,-21.99567413330078,-12.879608154296875,-8.191946029663086,1573.7061395645142
D4:22:CD:00:05:5D,153.38975524902344,-62.019981384277344,-47.70941162109375,0.614484429359436,-7.049264907836914,10.609712600708008,1573.7359919548035
D4:22:CD:00:05:6B,-16.291378021240234,55.58234786987305,-53.97439193725586,-3.7082180976867676,-9.141128540039062,-14.66998291015625,1573.7359919548035
D4:22:CD:00:49:AA,-64.7686538696289,-82.27767181396484,45.92259979248047,0.7042990922927856,-2.3159618377685547,8.795064926147461,1573.7359919548035
D4:22:CD:00:05:6E,-0.23313744366168976,-64.4907455444336,-109.40476989746094,9.092622756958008,-8.486808776855469,4.457296371459961,1573.7359919548035
D4:22:CD:00:05:5E,-55.59880447387695,-67.37972259521484,-117.8001480102539,9.86606216430664,-12.420368194580078,9.540468215942383,1573.7359919548035
D4:22:CD:00:05:5D,150.03036499023438,-58.96672439575195,-44.53413009643555,-1.0941922664642334,2.5639562606811523,4.035617828369141,1573.7661156654358
D4:22:CD:00:05:6B,0.6600641012191772,47.67517852783203,-36.67329788208008,-1.623687982559204,-5.459028244018555,-6.21048641204834,1573.7661156654358
D4:22:CD:00:49:AA,-67.25919342041016,-82.9824447631836,46.65664291381836,-0.21365514397621155,-3.129486083984375,6.110973358154297,1573.7661156654358
D4:22:CD:00:05:6E,-9.680998802185059,-67.6124267578125,-103.41975402832031,14.556600570678711,-5.116900444030762,7.11906623840332,1573.7661156654358
D4:22:CD:00:05:5E,-73.80973815917969,-71.03662109375,-102.58136749267578,-6.009230613708496,-5.082222938537598,14.513444900512695,1573.7661156654358
D4:22:CD:00:05:5D,145.22535705566406,-57.541358947753906,-41.3995475769043,-1.0100173950195312,2.893209934234619,3.6870765686035156,1573.7962679862976
D4:22:CD:00:05:6B,7.437796115875244,35.945068359375,-29.527250289916992,-4.822033882141113,4.507295608520508,1.0925798416137695,1573.7962679862976
D4:22:CD:00:49:AA,-73.69904327392578,-83.11029052734375,50.888309478759766,2.2915215492248535,-0.32164454460144043,3.5207509994506836,1573.7962679862976
D4:22:CD:00:05:6E,-29.372514724731445,-72.5688247680664,-100.7094497680664,5.877565383911133,-9.514982223510742,6.058570861816406,1573.7962679862976
D4:22:CD:00:05:5E,-92.62786865234375,-72.01811218261719,-87.66108703613281,-5.271402359008789,0.42205625772476196,0.7138824462890625,1573.7962679862976
D4:22:CD:00:05:5D,140.07823181152344,-57.79297637939453,-39.19374084472656,5.581571578979492,3.257561206817627,5.269402503967285,1573.8262739181519
D4:22:CD:00:05:6B,3.8960070610046387,20.90213394165039,-26.47678565979004,-9.034143447875977,3.868468761444092,0.34981822967529297,1573.8262739181519
D4:22:CD:00:49:AA,-81.07542419433594,-82.83670043945312,56.00501251220703,3.9193005561828613,3.7218852043151855,5.659849166870117,1573.8262739181519
D4:22:CD:00:05:6E,-46.110321044921875,-76.53319549560547,-101.2907943725586,-4.960344314575195,15.37762451171875,14.89437484741211,1573.8262739181519
D4:22:CD:00:05:5E,-102.44090270996094,-74.03661346435547,-79.86787414550781,-6.240429878234863,2.7371912002563477,0.1063241958618164,1573.8262739181519
D4:22:CD:00:05:5D,128.850341796875,-61.862403869628906,-36.67210388183594,7.657336235046387,-0.5414379835128784,6.477489471435547,1573.8566343784332
D4:22:CD:00:05:6B,-4.078314304351807,2.9235846996307373,-23.72641944885254,-2.0568594932556152,9.500434875488281,-5.967752456665039,1573.8566343784332
D4:22:CD:00:49:AA,-89.42122650146484,-82.31131744384766,59.74176788330078,6.270612716674805,7.6445817947387695,1.4570322036743164,1573.8566343784332
D4:22:CD:00:05:6E,-57.57419967651367,-78.94705963134766,-103.61425018310547,-3.894545078277588,-1.7223114967346191,-1.0491256713867188,1573.8566343784332
D4:22:CD:00:05:5E,-110.9897232055664,-76.62734985351562,-72.53929138183594,-2.240703582763672,-5.072384834289551,3.3471784591674805,1573.8566343784332
D4:22:CD:00:05:5D,117.52696990966797,-63.1696891784668,-45.29030990600586,14.932252883911133,27.12042999267578,3.6215763092041016,1573.8865094184875
D4:22:CD:00:05:6B,-20.99995994567871,-15.24562931060791,-18.063716888427734,5.909804344177246,3.5822110176086426,-5.760677337646484,1573.8865094184875
D4:22:CD:00:49:AA,-97.43077850341797,-82.59964752197266,61.89147186279297,8.683979034423828,3.8275952339172363,-1.6376104354858398,1573.8865094184875
D4:22:CD:00:05:6E,-60.32705307006836,-81.51303100585938,-107.0030746459961,-2.022399425506592,3.024693012237549,-0.5125064849853516,1573.8865094184875
D4:22:CD:00:05:5E,-119.34463500976562,-78.96434783935547,-64.55402374267578,-3.5400209426879883,-2.8297557830810547,1.2877559661865234,1573.8865094184875
D4:22:CD:00:05:5D,130.97149658203125,-56.733787536621094,-64.61474609375,13.975622177124023,16.87295913696289,5.135124206542969,1573.9166021347046
D4:22:CD:00:05:6B,-39.221656799316406,-28.7425537109375,-10.424229621887207,-0.6012113094329834,-7.180246353149414,1.4690027236938477,1573.9166021347046
D4:22:CD:00:49:AA,-101.77503204345703,-82.82624816894531,62.32331085205078,-0.9769916534423828,-1.6114366054534912,4.539097785949707,1573.9166021347046
D4:22:CD:00:05:6E,-40.116188049316406,-82.53005981445312,-119.53329467773438,-9.671560287475586,-4.405522346496582,-2.4932117462158203,1573.9166021347046
D4:22:CD:00:05:5E,-124.63770294189453,-80.8035659790039,-59.432289123535156,-2.311492919921875,-1.340728759765625,1.1800546646118164,1573.9166021347046
D4:22:CD:00:05:5D,142.27296447753906,-46.423973083496094,-80.10840606689453,5.45371150970459,0.8855340480804443,1.4200668334960938,1573.9503993988037
D4:22:CD:00:05:6B,-48.64033508300781,-36.30108642578125,-3.4994401931762695,-6.062957763671875,-1.7676193714141846,4.523412704467773,1573.9503993988037
D4:22:CD:00:49:AA,-98.91560363769531,-82.78800964355469,58.52556228637695,-0.44198477268218994,0.6540610790252686,0.3669462203979492,1573.9503993988037
D4:22:CD:00:05:6E,-25.038156509399414,-81.73121643066406,-128.8775634765625,-7.227887153625488,-8.840173721313477,-4.218204498291016,1573.9503993988037
D4:22:CD:00:05:5E,-130.0080108642578,-82.08366394042969,-54.27611541748047,-0.8000777959823608,-3.832576274871826,0.5616283416748047,1573.9503993988037
D4:22:CD:00:05:5D,151.4269561767578,-35.648460388183594,-91.19161987304688,0.3853248357772827,-5.55362606048584,-10.521751403808594,1574.0067255496979
D4:22:CD:00:05:6B,-59.82328414916992,-39.7098503112793,2.1114141941070557,-4.837109565734863,-2.336043357849121,0.5242023468017578,1574.0067255496979
D4:22:CD:00:49:AA,-102.57882690429688,-82.54955291748047,62.09462356567383,2.714909553527832,5.234747886657715,-3.360827922821045,1574.0067255496979
D4:22:CD:00:05:6E,-20.2576847076416,-80.47760772705078,-131.73565673828125,-3.9335498809814453,-5.14056396484375,-3.6956229209899902,1574.0067255496979
D4:22:CD:00:05:5E,-136.08128356933594,-82.43423461914062,-49.39577865600586,1.0659000873565674,-3.8332810401916504,0.6249418258666992,1574.0067255496979
D4:22:CD:00:05:5D,159.05357360839844,-27.895235061645508,-99.30143737792969,-4.921957015991211,-5.742704391479492,-18.758384704589844,1574.0367238521576
D4:22:CD:00:05:6B,-68.5126953125,-42.36415481567383,6.0044121742248535,-6.065572738647461,-2.487732410430908,3.6323041915893555,1574.0367238521576
D4:22:CD:00:49:AA,-112.34793090820312,-82.24043273925781,71.71237182617188,0.21152102947235107,2.42879056930542,-3.796861171722412,1574.0367238521576
D4:22:CD:00:05:6E,-15.235847473144531,-79.1777114868164,-133.1735382080078,-1.5492477416992188,-2.5175843238830566,-3.5665526390075684,1574.0367238521576
D4:22:CD:00:05:5E,-146.59176635742188,-82.13867950439453,-40.015018463134766,-2.771223545074463,-0.9293932914733887,-4.999732971191406,1574.0367238521576
D4:22:CD:00:05:5D,165.77090454101562,-25.072860717773438,-105.2706298828125,-5.6037702560424805,-1.439316749572754,-13.124963760375977,1574.0658643245697
D4:22:CD:00:05:6B,-68.81452178955078,-47.29326248168945,6.874903678894043,-0.7460370063781738,-0.44885891675949097,0.23368453979492188,1574.0658643245697
D4:22:CD:00:49:AA,-122.81539154052734,-81.70976257324219,81.95282745361328,-2.031940460205078,-0.28232067823410034,-5.1006927490234375,1574.0658643245697
D4:22:CD:00:05:6E,-7.270126819610596,-78.20526885986328,-134.78367614746094,0.7200353145599365,-2.4493460655212402,-3.730344295501709,1574.0658643245697
D4:22:CD:00:05:5E,-157.28814697265625,-80.49209594726562,-28.692121505737305,-2.6746253967285156,-0.005731165409088135,-4.77006721496582,1574.0658643245697
D4:22:CD:00:05:5D,167.87596130371094,-27.49806022644043,-111.12555694580078,-9.531816482543945,-4.833091735839844,-13.32522201538086,1574.0968542099
D4:22:CD:00:05:6B,-66.95073699951172,-56.79075241088867,5.520426273345947,3.0853686332702637,-2.5630440711975098,1.9871625900268555,1574.0968542099
D4:22:CD:00:49:AA,-129.4161834716797,-80.7406997680664,88.95706176757812,0.42330455780029297,-0.8222247362136841,-7.226784706115723,1574.0968542099
D4:22:CD:00:05:6E,2.544955253601074,-77.5747299194336,-137.62611389160156,3.234891891479492,-3.597665309906006,-3.966439723968506,1574.0968542099
D4:22:CD:00:05:5E,-163.42872619628906,-77.30415344238281,-22.149921417236328,-6.671759605407715,0.5307343006134033,-8.015220642089844,1574.0968542099
D4:22:CD:00:05:5D,168.5737762451172,-33.51646423339844,-117.18365478515625,-6.284755706787109,-3.0956764221191406,2.055074691772461,1574.1256022453308
D4:22:CD:00:05:6B,-60.43500518798828,-71.06167602539062,2.4665801525115967,0.029135316610336304,-1.0213618278503418,19.94110870361328,1574.1256022453308
D4:22:CD:00:49:AA,-132.0223846435547,-79.93663024902344,92.36778259277344,1.5709586143493652,0.10439999401569366,-5.374598503112793,1574.1256022453308
D4:22:CD:00:05:6E,12.088692665100098,-76.66658020019531,-146.81900024414062,8.401435852050781,-11.44967269897461,-3.20438289642334,1574.1256022453308
D4:22:CD:00:05:5E,-167.48011779785156,-72.5853271484375,-19.896652221679688,1.5841081142425537,-6.214780807495117,2.218059539794922,1574.1256022453308
D4:22:CD:00:05:5D,166.73402404785156,-36.604007720947266,-120.6347885131836,-15.603641510009766,-7.556720733642578,18.819366455078125,1574.1561558246613
D4:22:CD:00:05:6B,-14.136774063110352,-78.9342041015625,-30.53881072998047,-1.4656670093536377,3.824341297149658,24.955646514892578,1574.1561558246613
D4:22:CD:00:49:AA,-130.2016143798828,-79.5518569946289,90.43617248535156,1.8178961277008057,2.6595582962036133,-2.3388819694519043,1574.1561558246613
D4:22:CD:00:05:6E,25.369646072387695,-74.20833587646484,-172.86534118652344,9.276636123657227,-8.65711784362793,6.928426742553711,1574.1561558246613
D4:22:CD:00:05:5E,-168.6425323486328,-67.37479400634766,-20.981853485107422,-1.9437596797943115,-2.7092857360839844,1.3072271347045898,1574.1561558246613
D4:22:CD:00:05:5D,169.60107421875,-37.84343719482422,-117.61112213134766,-14.87653923034668,-7.5912933349609375,8.156026840209961,1574.1867434978485
D4:22:CD:00:05:6B,-3.8470494747161865,-75.20735168457031,-27.27174949645996,5.334651947021484,6.2574968338012695,2.3610992431640625,1574.1867434978485
D4:22:CD:00:49:AA,-129.08973693847656,-79.0859146118164,88.12640380859375,4.276788711547852,-1.6214332580566406,-1.1127996444702148,1574.1867434978485
D4:22:CD:00:05:6E,41.78668975830078,-63.05938720703125,163.4860382080078,7.969560623168945,-7.603790283203125,19.22122573852539,1574.1867434978485
D4:22:CD:00:05:5E,-170.46685791015625,-63.92459487915039,-20.426179885864258,-4.007635116577148,-4.218977928161621,-0.6185598373413086,1574.1867434978485
D4:22:CD:00:05:5D,175.22482299804688,-33.21605682373047,-112.4433364868164,-9.635919570922852,-9.689081192016602,14.82742691040039,1574.2157561779022
D4:22:CD:00:05:6B,-19.593639373779297,-66.0784683227539,-1.7970353364944458,25.88949203491211,6.08251953125,10.904233932495117,1574.2157561779022
D4:22:CD:00:49:AA,-135.59185791015625,-78.07828521728516,93.15165710449219,4.233776092529297,2.2198619842529297,8.12729263305664,1574.2157561779022
D4:22:CD:00:05:6E,49.452789306640625,-47.43305587768555,152.26036071777344,9.170862197875977,-12.090564727783203,23.821548461914062,1574.2157561779022
D4:22:CD:00:05:5E,-172.80853271484375,-63.04365158081055,-17.951513290405273,-3.1138553619384766,0.08531245589256287,0.8816728591918945,1574.2157561779022
D4:22:CD:00:05:5D,172.25057983398438,-23.937944412231445,-108.92398834228516,-8.288003921508789,-18.589935302734375,17.815227508544922,1574.2756333351135
D4:22:CD:00:05:6B,-35.02666091918945,-54.074607849121094,10.196078300476074,20.588729858398438,0.4557313919067383,6.723695755004883,1574.2756333351135
D4:22:CD:00:49:AA,-138.85227966308594,-77.11151123046875,95.25684356689453,-2.4344921112060547,-0.6034505367279053,7.038238525390625,1574.2756333351135
D4:22:CD:00:05:6E,51.300350189208984,-29.51719856262207,144.05101013183594,10.221019744873047,-1.1935093402862549,18.05428695678711,1574.2756333351135
D4:22:CD:00:05:5E,-175.21682739257812,-63.54021072387695,-15.745809555053711,-1.2507014274597168,-2.533618927001953,4.185633659362793,1574.2756333351135
D4:22:CD:00:05:5D,163.29116821289062,-13.91772747039795,-108.1904296875,-7.965120315551758,-18.00405502319336,11.651422500610352,1574.3067059516907
D4:22:CD:00:05:6B,-49.32606887817383,-42.27565383911133,10.820083618164062,11.819110870361328,-6.096811294555664,4.596466064453125,1574.3067059516907
D4:22:CD:00:49:AA,-140.03530883789062,-76.44188690185547,96.89867401123047,2.2229814529418945,0.7722997665405273,8.376440048217773,1574.3067059516907
D4:22:CD:00:05:6E,51.88623809814453,-11.92657470703125,135.64389038085938,9.256282806396484,1.523118495941162,9.721355438232422,1574.3067059516907
D4:22:CD:00:05:5E,-177.98443603515625,-65.45504760742188,-13.286324501037598,-3.5744190216064453,-0.7498939037322998,3.976367950439453,1574.3067059516907
D4:22:CD:00:05:5D,160.12953186035156,-5.197151184082031,-109.1726303100586,-4.045619010925293,-9.65611457824707,0.592315673828125,1574.336308002472
D4:22:CD:00:05:6B,-58.890411376953125,-34.0463981628418,5.754492282867432,3.4372968673706055,-5.606023788452148,1.2161035537719727,1574.336308002472
D4:22:CD:00:49:AA,-145.04391479492188,-76.11551666259766,101.59346008300781,7.20075798034668,7.692566871643066,11.131978988647461,1574.336308002472
D4:22:CD:00:05:6E,52.945194244384766,1.1437757015228271,127.9693603515625,10.652481079101562,-3.2979869842529297,7.897838592529297,1574.336308002472
D4:22:CD:00:05:5E,178.5159912109375,-69.23622131347656,-11.198894500732422,-2.6861820220947266,-2.7963271141052246,6.799043655395508,1574.336308002472
D4:22:CD:00:05:5D,162.6236572265625,-0.27938488125801086,-110.7322998046875,-2.947294235229492,0.09803780913352966,-6.135680198669434,1574.3663020133972
D4:22:CD:00:05:6B,-60.28712463378906,-33.106571197509766,-3.312412738800049,-1.2363002300262451,-2.8861327171325684,-3.860626220703125,1574.3663020133972
D4:22:CD:00:49:AA,-147.75125122070312,-76.25469207763672,102.50023651123047,5.288930892944336,8.336311340332031,8.392602920532227,1574.3663020133972
D4:22:CD:00:05:6E,59.50137710571289,8.910933494567871,123.87755584716797,-1.1025643348693848,-11.095306396484375,7.306671142578125,1574.3663020133972
D4:22:CD:00:05:5E,174.61038208007812,-74.92106628417969,-8.224102020263672,2.569538116455078,-3.538346767425537,9.182527542114258,1574.3663020133972
D4:22:CD:00:05:5D,165.13275146484375,-0.34951019287109375,-112.43359375,-4.522914886474609,4.931955337524414,-8.895406723022461,1574.3963015079498
D4:22:CD:00:05:6B,-62.169742584228516,-38.539615631103516,-12.991209030151367,-1.703934669494629,-3.1372756958007812,-3.484137535095215,1574.3963015079498
D4:22:CD:00:49:AA,-150.22589111328125,-76.26979064941406,102.55400848388672,1.9591071605682373,1.4780418872833252,4.781696319580078,1574.3963015079498
D4:22:CD:00:05:6E,64.39156341552734,13.041258811950684,123.2730484008789,-11.787324905395508,-9.62202262878418,2.212430953979492,1574.3963015079498
D4:22:CD:00:05:5E,168.37486267089844,-81.71881103515625,0.9165261387825012,6.755396842956543,-4.474552154541016,5.86422061920166,1574.3963015079498
D4:22:CD:00:05:5D,163.51419067382812,-5.0020060539245605,-114.01420593261719,-4.711930274963379,5.5024309158325195,-13.143569946289062,1574.4268352985382
D4:22:CD:00:05:6B,-67.39988708496094,-47.3209228515625,-20.54427719116211,-4.85832405090332,0.446535587310791,1.6564397811889648,1574.4268352985382
D4:22:CD:00:49:AA,-153.57131958007812,-76.81456756591797,104.11092376708984,0.20829439163208008,-0.15305361151695251,0.9468088150024414,1574.4268352985382
D4:22:CD:00:05:6E,61.74368667602539,15.732712745666504,125.94349670410156,-11.282171249389648,-2.7989578247070312,-6.533221244812012,1574.4268352985382
D4:22:CD:00:05:5E,127.19141387939453,-88.06791687011719,46.30019760131836,0.37867122888565063,0.11688448488712311,-6.127118110656738,1574.4268352985382
D4:22:CD:00:05:5D,159.14434814453125,-13.13627815246582,-114.95645904541016,-5.111786842346191,2.8319883346557617,-17.137569427490234,1574.455896139145
D4:22:CD:00:05:6B,-68.52039337158203,-57.04579544067383,-26.644025802612305,-1.5889291763305664,6.684412002563477,1.047515869140625,1574.455896139145
D4:22:CD:00:49:AA,-156.88751220703125,-78.0205307006836,106.43101501464844,-0.8742107152938843,-0.8756726980209351,-5.073386192321777,1574.455896139145
D4:22:CD:00:05:6E,57.0730094909668,18.559635162353516,132.39923095703125,-9.591634750366211,2.111539363861084,-10.410449981689453,1574.455896139145
D4:22:CD:00:05:5E,34.57771682739258,-87.783447265625,142.12147521972656,-6.594959259033203,-5.525123596191406,-8.67348861694336,1574.455896139145
D4:22:CD:00:05:5D,155.31227111816406,-23.65532875061035,-114.8774185180664,-5.551318168640137,-1.9253861904144287,-18.881500244140625,1574.486305475235
D4:22:CD:00:05:6B,-59.34920883178711,-65.62931823730469,-34.78123474121094,-1.2662606239318848,3.340484619140625,-3.829589366912842,1574.486305475235
D4:22:CD:00:49:AA,-157.99658203125,-79.02687072753906,107.32131958007812,-1.4694275856018066,0.40966910123825073,-10.698192596435547,1574.486305475235
D4:22:CD:00:05:6E,53.81135177612305,22.495296478271484,142.5791015625,-8.977117538452148,4.499014854431152,-12.897876739501953,1574.486305475235
D4:22:CD:00:05:5E,26.933837890625,-86.19929504394531,146.11529541015625,2.1473450660705566,-8.569633483886719,-9.232378005981445,1574.486305475235
D4:22:CD:00:05:5D,153.80923461914062,-36.348358154296875,-113.60855102539062,-5.179990768432617,-4.638216972351074,-13.463348388671875,1574.516312122345
D4:22:CD:00:05:6B,-46.545753479003906,-71.29167175292969,-45.65923309326172,-2.332754611968994,2.1380152702331543,-6.404767990112305,1574.516312122345
D4:22:CD:00:49:AA,-161.37704467773438,-79.84303283691406,109.66678619384766,0.5101715326309204,2.786569118499756,-10.625699996948242,1574.516312122345
D4:22:CD:00:05:6E,54.67300796508789,26.498071670532227,155.87344360351562,-15.572715759277344,-0.19696900248527527,-17.33643341064453,1574.516312122345
D4:22:CD:00:05:5E,16.57779884338379,-84.78131866455078,151.8024444580078,-2.519141674041748,1.8580741882324219,-8.300605773925781,1574.516312122345
D4:22:CD:00:05:5D,152.03012084960938,-51.541053771972656,-110.69126892089844,-3.922858715057373,-4.744762420654297,-4.250606536865234,1574.5460431575775
D4:22:CD:00:05:6B,-33.46527099609375,-74.03876495361328,-58.97772216796875,-1.8438243865966797,1.6524689197540283,-6.870608329772949,1574.5460431575775
D4:22:CD:00:49:AA,-165.8583526611328,-81.28195190429688,111.90616607666016,0.8578795194625854,0.6806771755218506,-9.594594955444336,1574.5460431575775
D4:22:CD:00:05:6E,57.36290740966797,29.17548179626465,167.79135131835938,-11.933006286621094,-4.846133232116699,-17.459552764892578,1574.5460431575775
D4:22:CD:00:05:5E,9.575155258178711,-84.4261703491211,154.81451416015625,-12.259368896484375,5.125021934509277,-11.082870483398438,1574.5460431575775
D4:22:CD:00:05:5D,147.10366821289062,-68.22817993164062,-103.8702621459961,0.699629545211792,-3.9892072677612305,6.336814880371094,1574.5762813091278
D4:22:CD:00:05:6B,-23.20044708251953,-74.49900817871094,-72.15526580810547,-1.6188545227050781,0.9804131984710693,-6.993964195251465,1574.5762813091278
D4:22:CD:00:49:AA,-170.4435577392578,-81.42084503173828,114.72692108154297,0.16977271437644958,0.0019102892838418484,-9.643331527709961,1574.5762813091278
D4:22:CD:00:05:6E,58.486576080322266,33.995269775390625,166.299560546875,-5.38112735748291,9.886993408203125,-15.029380798339844,1574.5762813091278
D4:22:CD:00:05:5E,0.9836983680725098,-88.04646301269531,161.17868041992188,-11.435567855834961,11.311481475830078,0.2546882629394531,1574.5762813091278
D4:22:CD:00:05:5D,105.56382751464844,-83.22361755371094,-56.448524475097656,10.191017150878906,-0.8421006202697754,21.65499496459961,1574.6361043453217
D4:22:CD:00:05:6B,-19.31171989440918,-73.4393081665039,-81.26620483398438,-1.2864305973052979,0.9553054571151733,-6.633706092834473,1574.6361043453217
D4:22:CD:00:49:AA,-172.4430389404297,-81.28978729248047,114.10871887207031,2.172968864440918,2.6653923988342285,-8.493513107299805,1574.6361043453217
D4:22:CD:00:05:6E,49.86524963378906,39.406455993652344,157.52455139160156,-8.517492294311523,-8.122734069824219,-8.046258926391602,1574.6361043453217
D4:22:CD:00:05:5E,-162.1435089111328,-87.10105895996094,-38.62198257446289,2.8143086433410645,-11.591972351074219,-5.620466232299805,1574.6361043453217
D4:22:CD:00:05:5D,34.396541595458984,-77.45368194580078,24.049455642700195,12.921815872192383,25.631546020507812,-3.7664361000061035,1574.6661701202393
D4:22:CD:00:05:6B,-19.586523056030273,-72.12923431396484,-86.95700073242188,-1.7760002613067627,1.431729793548584,-3.6284236907958984,1574.6661701202393
D4:22:CD:00:49:AA,-168.8206329345703,-82.2019271850586,107.21293640136719,2.5830564498901367,2.4309043884277344,-4.512141227722168,1574.6661701202393
D4:22:CD:00:05:6E,32.93622589111328,42.77463150024414,142.676513671875,-7.633603096008301,0.7277685403823853,-22.136455535888672,1574.6661701202393
D4:22:CD:00:05:5E,-164.9376220703125,-82.64659881591797,-38.935794830322266,2.7127914428710938,-1.8586249351501465,3.037748336791992,1574.6661701202393
D4:22:CD:00:05:5D,31.967205047607422,-75.90998840332031,22.23346710205078,18.52444076538086,26.626506805419922,-10.94790267944336,1574.6963102817535
D4:22:CD:00:05:6B,-18.792926788330078,-71.41863250732422,-92.46701049804688,-2.087258815765381,0.5666749477386475,0.6919136047363281,1574.6963102817535
D4:22:CD:00:49:AA,-156.8623504638672,-82.21772766113281,94.91887664794922,1.7364072799682617,-3.4040074348449707,0.01004791259765625,1574.6963102817535
D4:22:CD:00:05:6E,18.074785232543945,43.56966781616211,121.58798217773438,0.759040355682373,8.50391960144043,-14.067987442016602,1574.6963102817535
D4:22:CD:00:05:5E,-162.05450439453125,-79.16033935546875,-42.70534896850586,-2.1451969146728516,-5.376360893249512,10.112964630126953,1574.6963102817535
D4:22:CD:00:05:5D,71.2952880859375,-78.60980224609375,-17.931161880493164,22.729618072509766,6.680562973022461,-0.9745645523071289,1574.7261145114899
D4:22:CD:00:05:6B,-15.83450984954834,-72.20035552978516,-98.19452667236328,-2.494297504425049,-0.3282663822174072,2.7529525756835938,1574.7261145114899
D4:22:CD:00:49:AA,-152.09706115722656,-78.88095092773438,91.03364562988281,6.560798645019531,0.29634755849838257,9.80465316772461,1574.7261145114899
D4:22:CD:00:05:6E,8.022035598754883,39.390602111816406,97.30377197265625,0.6481471061706543,3.8241472244262695,-8.750328063964844,1574.7261145114899
D4:22:CD:00:05:5E,-155.197998046875,-78.19762420654297,-50.662742614746094,-2.6019506454467773,-0.028503935784101486,9.745847702026367,1574.7261145114899
D4:22:CD:00:05:5D,122.31299591064453,-75.0248794555664,-61.41466522216797,-6.536705017089844,-15.80868148803711,11.072750091552734,1574.7561111450195
D4:22:CD:00:05:6B,-9.725619316101074,-74.98242950439453,-104.02240753173828,-3.5853590965270996,-0.5275681018829346,9.503252029418945,1574.7561111450195
D4:22:CD:00:49:AA,-146.73367309570312,-79.12413787841797,85.71846771240234,7.365388870239258,4.160755157470703,11.175687789916992,1574.7561111450195
D4:22:CD:00:05:6E,9.663525581359863,31.486953735351562,77.73501586914062,1.034285068511963,-2.882375717163086,-3.2659387588500977,1574.7561111450195
D4:22:CD:00:05:5E,-138.53968811035156,-80.14274597167969,-66.00562286376953,-0.11439509689807892,-2.3098011016845703,10.724130630493164,1574.7561111450195
D4:22:CD:00:05:5D,130.00460815429688,-75.72432708740234,-74.43792724609375,-1.7361390590667725,-17.768829345703125,0.05336952209472656,1574.7862861156464
D4:22:CD:00:05:6B,7.604796886444092,-78.58169555664062,-115.7874984741211,-4.254422187805176,-1.959139108657837,12.30023193359375,1574.7862861156464
D4:22:CD:00:49:AA,-141.6078338623047,-78.88762664794922,82.63040924072266,5.347498893737793,3.7010068893432617,8.286436080932617,1574.7862861156464
D4:22:CD:00:05:6E,16.19640350341797,22.459697723388672,62.66032791137695,-1.4239599704742432,-4.150320053100586,-7.592334747314453,1574.7862861156464
D4:22:CD:00:05:5E,-79.78429412841797,-82.6242904663086,-115.79985046386719,4.374794960021973,1.4478163719177246,-0.18327808380126953,1574.7862861156464
D4:22:CD:00:05:5D,143.37864685058594,-79.1220703125,-93.2620849609375,-18.334888458251953,5.558849334716797,10.797069549560547,1574.8163621425629
D4:22:CD:00:05:6B,32.20260238647461,-81.4774169921875,-131.05133056640625,-2.4453158378601074,-2.250685214996338,7.1613616943359375,1574.8163621425629
D4:22:CD:00:49:AA,-139.708740234375,-77.62947845458984,84.76567840576172,-0.7340046167373657,-1.8574934005737305,-1.5097217559814453,1574.8163621425629
D4:22:CD:00:05:6E,28.246246337890625,14.386536598205566,51.714637756347656,15.318450927734375,-13.217853546142578,-9.522256851196289,1574.8163621425629
D4:22:CD:00:05:5E,-56.157447814941406,-79.91688537597656,-127.60843658447266,-9.87761116027832,2.1207523345947266,1.4765396118164062,1574.8163621425629
D4:22:CD:00:05:5D,158.7435302734375,-79.04196166992188,-105.2890853881836,0.3567194938659668,-3.2962656021118164,-2.1460824012756348,1574.8460342884064
D4:22:CD:00:05:6B,48.37703323364258,-84.57025146484375,-138.2254638671875,1.2224154472351074,0.09992757439613342,1.5223493576049805,1574.8460342884064
D4:22:CD:00:49:AA,-141.84817504882812,-75.4598388671875,93.93473815917969,-2.438809871673584,-3.3855185508728027,-3.6083731651306152,1574.8460342884064
D4:22:CD:00:05:6E,53.1858024597168,8.76095199584961,48.051788330078125,9.403663635253906,-9.796907424926758,-18.72071075439453,1574.8460342884064
D4:22:CD:00:05:5E,-72.94912719726562,-79.841796875,-98.99984741210938,-36.75464630126953,-21.182544708251953,0.4030876159667969,1574.8460342884064
D4:22:CD:00:05:5D,175.18563842773438,-77.64060974121094,-115.66395568847656,1.5654246807098389,-1.0147831439971924,0.7795209884643555,1574.8764560222626
D4:22:CD:00:05:6B,13.748109817504883,-87.9951400756836,-97.33565521240234,-0.07531993091106415,0.1737551987171173,-2.994112491607666,1574.8764560222626
D4:22:CD:00:49:AA,-147.56326293945312,-73.70829772949219,104.497314453125,-1.583446979522705,2.639538288116455,-6.54780387878418,1574.8764560222626
D4:22:CD:00:05:6E,77.42540740966797,2.927441120147705,49.451839447021484,-13.889089584350586,13.279253005981445,0.7360677719116211,1574.8764560222626
D4:22:CD:00:05:5E,-126.080322265625,-74.43690490722656,-44.08833312988281,-13.029035568237305,-10.355691909790039,5.873674392700195,1574.8764560222626
D4:22:CD:00:05:5D,-178.53451538085938,-75.0972900390625,-120.78366088867188,-2.3771047592163086,0.9049254655838013,1.1874570846557617,1574.9365208148956
D4:22:CD:00:05:6B,-68.6650619506836,-85.68352508544922,-10.4244384765625,-0.9630637168884277,-1.9212045669555664,-3.294520854949951,1574.9365208148956
D4:22:CD:00:49:AA,-155.5979766845703,-72.85684967041016,112.19517517089844,6.15498161315918,1.2323052883148193,-4.604780197143555,1574.9365208148956
D4:22:CD:00:05:6E,82.87535858154297,-2.108738660812378,48.426300048828125,2.7034201622009277,-4.193669319152832,9.592599868774414,1574.9365208148956
D4:22:CD:00:05:5E,-144.42787170410156,-64.41780853271484,-23.10610580444336,-0.4963534474372864,-7.4051513671875,-7.216699600219727,1574.9365208148956
D4:22:CD:00:05:5D,-175.27664184570312,-71.99431610107422,-122.38849639892578,1.2054784297943115,-2.5843725204467773,-0.9469976425170898,1574.9660818576813
D4:22:CD:00:05:6B,-69.12164306640625,-82.58272552490234,-6.887362003326416,0.6156361103057861,-1.205451488494873,-4.472066879272461,1574.9660818576813
D4:22:CD:00:49:AA,-159.31690979003906,-71.29048919677734,115.83763122558594,-2.1063666343688965,-0.1847701072692871,-1.3549137115478516,1574.9660818576813
D4:22:CD:00:05:6E,92.79994201660156,-5.198119163513184,47.64658737182617,0.06795352697372437,-6.626471519470215,-2.7289786338806152,1574.9660818576813
D4:22:CD:00:05:5E,-152.4025421142578,-54.2232780456543,-13.24136734008789,-0.977584719657898,-3.905745506286621,-17.26296615600586,1574.9660818576813
D4:22:CD:00:05:5D,-172.4019775390625,-69.15410614013672,-123.15958404541016,-0.7555053234100342,0.3206608295440674,0.37213706970214844,1574.9960844516754
D4:22:CD:00:05:6B,-63.566871643066406,-80.60548400878906,-14.102917671203613,0.4156029224395752,-4.613264083862305,-3.3444724082946777,1574.9960844516754
D4:22:CD:00:49:AA,-161.25167846679688,-69.43961334228516,118.86772155761719,-6.086621284484863,-1.337820291519165,3.2827510833740234,1574.9960844516754
D4:22:CD:00:05:6E,104.83299255371094,-10.749825477600098,46.50233459472656,-0.5719231367111206,-5.074741363525391,4.822547912597656,1574.9960844516754
D4:22:CD:00:05:5E,-157.23390197753906,-44.80684280395508,-6.214348316192627,-3.832895278930664,-0.33907461166381836,-18.378334045410156,1574.9960844516754
D4:22:CD:00:05:5D,-170.5817108154297,-66.73664093017578,-124.65413665771484,-2.937706470489502,1.1940193176269531,0.8929042816162109,1575.0258033275604
D4:22:CD:00:05:6B,-65.4169921875,-78.99239349365234,-19.407194137573242,-1.927748203277588,-6.328300476074219,-1.3558626174926758,1575.0258033275604
D4:22:CD:00:49:AA,-161.8863525390625,-68.6368408203125,120.76190948486328,-0.768623948097229,1.5133578777313232,2.297257423400879,1575.0258033275604
D4:22:CD:00:05:6E,110.1571044921875,-20.434253692626953,44.944793701171875,5.146544456481934,-5.454841613769531,5.824211120605469,1575.0258033275604
D4:22:CD:00:05:5E,-160.9363250732422,-37.3446159362793,-0.041220009326934814,-5.838346481323242,-1.4350640773773193,-14.338335037231445,1575.0258033275604
D4:22:CD:00:05:5D,-168.0026092529297,-64.86394500732422,-127.217041015625,-0.9065475463867188,0.37738150358200073,1.0855398178100586,1575.056792974472
D4:22:CD:00:05:6B,-71.28926086425781,-78.32649230957031,-21.687450408935547,-5.002047538757324,-1.930311918258667,2.85457706451416,1575.056792974472
D4:22:CD:00:49:AA,-163.1787872314453,-69.26243591308594,122.79530334472656,-0.6677918434143066,3.11867618560791,2.274296760559082,1575.056792974472
D4:22:CD:00:05:6E,109.45272064208984,-35.39407730102539,42.82460021972656,7.894905090332031,-0.01052120141685009,8.647172927856445,1575.056792974472
D4:22:CD:00:05:5E,-165.2527618408203,-32.73289489746094,5.218805313110352,-3.087411403656006,-0.34029924869537354,-10.392539978027344,1575.056792974472
D4:22:CD:00:05:5D,-164.72946166992188,-64.01056671142578,-129.3020477294922,2.153273582458496,1.4442198276519775,2.1378650665283203,1575.0867919921875
D4:22:CD:00:05:6B,-73.03366088867188,-78.75938415527344,-22.854305267333984,-5.85402774810791,-4.135942459106445,2.6804113388061523,1575.0867919921875
D4:22:CD:00:49:AA,-168.264404296875,-69.74951171875,126.66244506835938,-0.3649595379829407,1.9194977283477783,3.393336296081543,1575.0867919921875
D4:22:CD:00:05:6E,106.66673278808594,-55.62144088745117,38.90779113769531,15.35345458984375,8.233861923217773,22.658863067626953,1575.0867919921875
D4:22:CD:00:05:5E,-171.65689086914062,-31.7443904876709,9.101096153259277,-1.9478967189788818,-5.684304237365723,-2.3247108459472656,1575.0867919921875
D4:22:CD:00:05:5D,-161.6421661376953,-65.0322036743164,-130.63388061523438,0.3495127558708191,0.35439789295196533,2.1045074462890625,1575.1158108711243
D4:22:CD:00:05:6B,-74.84169006347656,-79.05664825439453,-22.982454299926758,-3.7240004539489746,-0.8806507587432861,3.2114295959472656,1575.1158108711243
D4:22:CD:00:49:AA,-174.2115020751953,-69.4081802368164,130.080322265625,0.9037894010543823,0.04283793270587921,2.172844886779785,1575.1158108711243
D4:22:CD:00:05:6E,110.08063507080078,-71.5497055053711,30.091596603393555,11.544649124145508,-3.263761043548584,26.031085968017578,1575.1158108711243
D4:22:CD:00:05:5E,178.5895233154297,-33.56634521484375,11.915034294128418,4.903504371643066,1.1241958141326904,7.63224983215332,1575.1158108711243
D4:22:CD:00:05:5D,-157.7839813232422,-68.09742736816406,-134.4805145263672,-3.1394758224487305,1.1931943893432617,-0.39899253845214844,1575.1463108062744
D4:22:CD:00:05:6B,-75.12098693847656,-78.04239654541016,-27.88756561279297,-0.4822041988372803,2.8834962844848633,0.5918636322021484,1575.1463108062744
D4:22:CD:00:49:AA,-178.60765075683594,-68.1163558959961,131.88363647460938,2.0838093757629395,0.51883864402771,-1.8988432884216309,1575.1463108062744
D4:22:CD:00:05:6E,123.55025482177734,-69.84429931640625,16.357555389404297,9.481666564941406,-3.00099515914917,-8.163167953491211,1575.1463108062744
D4:22:CD:00:05:5E,174.75379943847656,-39.7479362487793,13.820528984069824,15.960668563842773,4.457636833190918,-2.0361580848693848,1575.1463108062744
D4:22:CD:00:05:5D,-153.80987548828125,-69.15835571289062,-138.43429565429688,-6.121792793273926,0.6018803119659424,-1.0298242568969727,1575.176059961319
D4:22:CD:00:05:6B,-67.81259155273438,-75.29246520996094,-44.5050163269043,-0.800257682800293,5.727927207946777,-2.0767927169799805,1575.176059961319
D4:22:CD:00:49:AA,176.94374084472656,-66.56602478027344,133.54164123535156,-1.5847694873809814,-0.9391794204711914,-3.611839771270752,1575.176059961319
D4:22:CD:00:05:6E,135.1995391845703,-66.15074920654297,13.088042259216309,8.564947128295898,0.8798558712005615,-2.1308040618896484,1575.176059961319
D4:22:CD:00:05:5E,175.50057983398438,-49.691532135009766,16.623624801635742,13.142107009887695,9.237695693969727,2.765054702758789,1575.176059961319
D4:22:CD:00:05:5D,-153.16415405273438,-68.71867370605469,-138.84376525878906,-3.5921106338500977,-0.8125607967376709,-1.5359859466552734,1575.2369270324707
D4:22:CD:00:05:6B,-55.85124969482422,-71.46929931640625,-62.0297966003418,-2.700565814971924,1.8994708061218262,-5.456061363220215,1575.2369270324707
D4:22:CD:00:49:AA,172.09133911132812,-64.26875305175781,134.98272705078125,-1.2764415740966797,-0.5657109022140503,-3.947859287261963,1575.2369270324707
D4:22:CD:00:05:6E,139.6486053466797,-67.09302520751953,12.101357460021973,-3.025261878967285,-6.058778762817383,-5.31326961517334,1575.2369270324707
D4:22:CD:00:05:5E,173.6298065185547,-54.033145904541016,21.32212257385254,-18.201446533203125,-5.00311279296875,27.268203735351562,1575.2369270324707
