Device,EulerX,EulerY,EulerZ,FreeAccX,FreeAccY,FreeAccZ,Timestamp
D4:22:CD:00:05:5D,177.09031677246094,-58.77088928222656,157.1116485595703,0.4200139045715332,-0.20547965168952942,0.6510257720947266,599.8392901420593
D4:22:CD:00:05:6B,-9.868280410766602,31.48486328125,-177.29864501953125,-7.359580039978027,4.396917343139648,10.325443267822266,599.8392901420593
D4:22:CD:00:49:AA,146.04244995117188,-67.39933776855469,143.6710662841797,-4.062078475952148,0.11229714751243591,3.8382625579833984,599.8392901420593
D4:22:CD:00:05:6E,-69.40091705322266,-70.6966552734375,-23.8010196685791,8.422988891601562,-5.548871994018555,4.832806587219238,599.8392901420593
D4:22:CD:00:05:5E,-179.13548278808594,-43.65357971191406,30.966156005859375,-5.9109344482421875,7.5929975509643555,0.31989097595214844,599.8392901420593
D4:22:CD:00:05:5D,177.60476684570312,-59.771080017089844,159.240234375,0.7458537817001343,0.19783315062522888,1.3932132720947266,599.8506898880005
D4:22:CD:00:05:6B,6.995795726776123,38.48912811279297,-167.4454803466797,-8.197574615478516,9.553409576416016,5.407687187194824,599.8506898880005
D4:22:CD:00:49:AA,147.05174255371094,-69.45355987548828,145.64100646972656,-4.155876159667969,-0.2462075650691986,4.302000045776367,599.8506898880005
D4:22:CD:00:05:6E,-49.26812744140625,-66.64173889160156,-30.387781143188477,10.397663116455078,-8.40007209777832,-0.1988201141357422,599.8506898880005
D4:22:CD:00:05:5E,-175.413330078125,-46.473567962646484,31.391860961914062,-8.499021530151367,7.573591232299805,-6.502819061279297,599.8506898880005
D4:22:CD:00:05:6B,22.235380172729492,42.422088623046875,-159.5843048095703,-4.703636169433594,9.553312301635742,-0.9583091735839844,599.8611147403717
D4:22:CD:00:49:AA,150.73606872558594,-71.74048614501953,146.16819763183594,-2.7697229385375977,-0.001194229582324624,4.799930572509766,599.8611147403717
D4:22:CD:00:05:6E,-24.450284957885742,-62.910858154296875,-37.011863708496094,14.47410774230957,-5.984255790710449,-6.642566680908203,599.8611147403717
D4:22:CD:00:05:5E,-173.17506408691406,-50.95972442626953,30.918880462646484,-5.3133039474487305,5.404073715209961,-12.258033752441406,599.8611147403717
D4:22:CD:00:05:5D,-151.9552001953125,-64.96931457519531,-115.47687530517578,-2.7621102333068848,0.2834356427192688,-0.896759033203125,599.8703291416168
D4:22:CD:00:49:AA,156.71873474121094,-74.40403747558594,144.57952880859375,-1.7219974994659424,1.033595085144043,1.1780242919921875,599.8703291416168
D4:22:CD:00:05:6E,-4.144160747528076,-59.66733932495117,-42.24703598022461,12.081069946289062,-0.658618688583374,-9.159809112548828,599.8703291416168
D4:22:CD:00:05:5E,-173.50440979003906,-57.880130767822266,30.142581939697266,-3.3521876335144043,7.548933982849121,-12.23097038269043,599.8703291416168
D4:22:CD:00:05:5D,170.22825622558594,-52.644412994384766,-77.2243423461914,1.1246209144592285,2.4019603729248047,-0.1698465347290039,599.8783252239227
D4:22:CD:00:05:6B,-65.3714370727539,8.469071388244629,-57.450626373291016,4.611108779907227,-4.843390464782715,17.53624725341797,599.8783252239227
D4:22:CD:00:49:AA,133.3555145263672,-73.02645111083984,146.1853790283203,-0.8717679977416992,-1.3859670162200928,7.98695182800293,599.8783252239227
D4:22:CD:00:05:5D,172.03709411621094,-51.082550048828125,-78.83021545410156,0.4722422957420349,1.223369836807251,0.2370777130126953,599.9036235809326
D4:22:CD:00:05:6B,-60.75803756713867,19.766796112060547,-52.145782470703125,6.103588104248047,-11.301450729370117,16.058902740478516,599.9036235809326
D4:22:CD:00:49:AA,149.02191162109375,-70.7049560546875,129.8321075439453,-1.092067003250122,0.523483157157898,5.273441314697266,599.9036235809326
D4:22:CD:00:05:6E,-95.76930236816406,-68.79444122314453,-117.44538116455078,-7.102241516113281,-4.871837615966797,14.522878646850586,599.9036235809326
D4:22:CD:00:05:5E,-155.30076599121094,-67.54856872558594,-9.236117362976074,0.5689345598220825,-3.9743261337280273,7.93507194519043,599.9036235809326
D4:22:CD:00:05:5D,174.54981994628906,-50.7174186706543,-79.41828155517578,1.7661452293395996,1.4534776210784912,0.7602252960205078,599.9336178302765
D4:22:CD:00:05:6B,-51.41408920288086,31.05695343017578,-42.84479904174805,15.898147583007812,-15.177127838134766,9.11876106262207,599.9336178302765
D4:22:CD:00:49:AA,157.9787139892578,-69.24270629882812,120.33655548095703,1.0877432823181152,1.0152716636657715,2.8308916091918945,599.9336178302765
D4:22:CD:00:05:6E,-101.28778839111328,-74.00203704833984,-109.32194519042969,-10.343860626220703,-3.9150686264038086,11.49140739440918,599.9336178302765
D4:22:CD:00:05:5E,-153.92445373535156,-58.97891616821289,-12.38193130493164,2.071284770965576,10.014530181884766,5.8104248046875,599.9336178302765
D4:22:CD:00:05:5D,176.1658477783203,-51.21473693847656,-79.17314147949219,0.07224251329898834,-0.8486286401748657,1.5514745712280273,599.9937701225281
D4:22:CD:00:05:6B,-35.443870544433594,39.8301887512207,-31.1643123626709,17.293502807617188,-14.127132415771484,6.863445281982422,599.9937701225281
D4:22:CD:00:49:AA,160.67156982421875,-68.80297088623047,118.32247161865234,-3.888209342956543,1.069267988204956,4.700567245483398,599.9937701225281
D4:22:CD:00:05:6E,-134.81422424316406,-76.49781799316406,-69.65406799316406,-6.291818618774414,-6.677670478820801,12.454601287841797,599.9937701225281
D4:22:CD:00:05:5E,-127.30009460449219,-54.54421615600586,-35.96504592895508,-2.2999210357666016,2.331221103668213,-0.8142061233520508,599.9937701225281
D4:22:CD:00:05:5D,176.707275390625,-51.96208572387695,-78.46580505371094,0.18303072452545166,-0.3545454144477844,0.5312089920043945,600.0234496593475
D4:22:CD:00:05:6B,-15.011754035949707,44.781375885009766,-19.585325241088867,14.866472244262695,-9.02629280090332,4.345247268676758,600.0234496593475
D4:22:CD:00:49:AA,166.93382263183594,-70.86296844482422,114.8869400024414,-6.853206634521484,0.8551900386810303,3.459916114807129,600.0234496593475
D4:22:CD:00:05:6E,-136.8386688232422,-77.3167953491211,-52.052024841308594,-7.010786056518555,-9.620141983032227,10.972200393676758,600.0234496593475
D4:22:CD:00:05:5E,-110.13861083984375,-49.620540618896484,-52.07848358154297,-2.1650466918945312,-0.44623643159866333,-5.937262535095215,600.0234496593475
D4:22:CD:00:05:5D,176.5692901611328,-52.95656204223633,-77.57986450195312,0.1300830841064453,0.2887194752693176,0.4758338928222656,600.05437707901
D4:22:CD:00:05:6B,3.428557872772217,47.26994705200195,-8.322145462036133,10.116964340209961,-10.591331481933594,2.8041810989379883,600.05437707901
D4:22:CD:00:49:AA,177.5801544189453,-73.01774597167969,108.22061157226562,-1.9743850231170654,1.7084839344024658,4.247175216674805,600.05437707901
D4:22:CD:00:05:6E,-136.55992126464844,-80.2881088256836,-35.065101623535156,-5.577524185180664,-13.924341201782227,6.8895721435546875,600.05437707901
D4:22:CD:00:05:5E,-95.3111801147461,-46.68537139892578,-67.91468811035156,-1.643038272857666,-4.80206298828125,-9.674985885620117,600.05437707901
D4:22:CD:00:05:5D,176.34857177734375,-54.46540451049805,-76.69151306152344,-1.7389800548553467,-0.3445512652397156,1.3529863357543945,600.0833775997162
D4:22:CD:00:05:6B,20.249652862548828,48.1778564453125,-0.8352974057197571,2.4062790870666504,-10.73751449584961,1.421163558959961,600.0833775997162
D4:22:CD:00:49:AA,-174.9970703125,-74.84536743164062,105.26409912109375,-0.27395397424697876,1.105747938156128,3.269110679626465,600.0833775997162
D4:22:CD:00:05:6E,-153.283447265625,-82.97940063476562,-4.333287715911865,-1.702310562133789,-11.843582153320312,3.1792125701904297,600.0833775997162
D4:22:CD:00:05:5E,-79.23493194580078,-46.2462158203125,-85.81532287597656,-7.698677062988281,-9.535629272460938,-11.529386520385742,600.0833775997162
D4:22:CD:00:05:5D,176.3416290283203,-56.53368377685547,-75.47185516357422,-2.1851024627685547,-2.1745171546936035,3.092988967895508,600.1139030456543
D4:22:CD:00:05:6B,31.78714370727539,48.347782135009766,3.0341999530792236,-2.030384063720703,-11.83537483215332,-2.5497193336486816,600.1139030456543
D4:22:CD:00:49:AA,-172.6491241455078,-76.82405090332031,106.54817962646484,-0.9794741868972778,-0.09757457673549652,2.9091033935546875,600.1139030456543
D4:22:CD:00:05:6E,179.03353881835938,-83.31883239746094,35.17845916748047,1.112234115600586,-10.05967903137207,0.31909751892089844,600.1139030456543
D4:22:CD:00:05:5E,-69.54850769042969,-47.554988861083984,-101.21044158935547,-18.943649291992188,-11.89311408996582,-12.478906631469727,600.1139030456543
D4:22:CD:00:05:5D,176.04733276367188,-58.83551025390625,-74.38764190673828,-1.5805463790893555,-4.856247901916504,7.791084289550781,600.1439027786255
D4:22:CD:00:05:6B,36.56146240234375,48.92002868652344,1.3626208305358887,-6.882101058959961,-1.9385640621185303,-5.223243713378906,600.1439027786255
D4:22:CD:00:49:AA,-170.36270141601562,-78.89634704589844,106.45956420898438,1.2189881801605225,-0.3293215036392212,1.2339420318603516,600.1439027786255
D4:22:CD:00:05:6E,163.57562255859375,-81.53910064697266,59.45822525024414,2.7758378982543945,-8.190540313720703,-1.9391212463378906,600.1439027786255
D4:22:CD:00:05:5E,-70.2896499633789,-50.74277877807617,-110.36671447753906,-24.977455139160156,-11.054750442504883,-13.590085983276367,600.1439027786255
D4:22:CD:00:05:5D,174.37269592285156,-61.27280044555664,-74.9658432006836,-1.3567838668823242,-6.513570785522461,4.812716484069824,600.1733207702637
D4:22:CD:00:05:6B,34.17488098144531,50.094993591308594,-7.302504539489746,-3.0054569244384766,5.885761260986328,-6.517726898193359,600.1733207702637
D4:22:CD:00:49:AA,-169.09051513671875,-80.31620788574219,105.82058715820312,2.2688560485839844,0.20543622970581055,-2.6692633628845215,600.1733207702637
D4:22:CD:00:05:6E,162.21336364746094,-79.24927520751953,67.13630676269531,4.672750473022461,-7.0276641845703125,-4.109004020690918,600.1733207702637
D4:22:CD:00:05:5E,-82.3438491821289,-55.493797302246094,-109.62003326416016,-16.829387664794922,-2.134065628051758,-13.684511184692383,600.1733207702637
D4:22:CD:00:05:5D,169.2633819580078,-65.46553039550781,-75.32670593261719,-0.8331722021102905,-7.207745552062988,-1.763331413269043,600.2038540840149
D4:22:CD:00:05:6B,25.429044723510742,50.783897399902344,-21.56696128845215,1.0263409614562988,5.705582618713379,-8.898740768432617,600.2038540840149
D4:22:CD:00:49:AA,-165.14137268066406,-80.99507141113281,100.9284896850586,-0.15301764011383057,0.4037054181098938,-6.406322479248047,600.2038540840149
D4:22:CD:00:05:6E,165.45327758789062,-76.81761169433594,67.22533416748047,5.379946708679199,-5.506296157836914,-7.799159049987793,600.2038540840149
D4:22:CD:00:05:5E,-93.11675262451172,-59.754661560058594,-104.45513916015625,-6.155845642089844,-4.765162467956543,-16.611072540283203,600.2038540840149
D4:22:CD:00:05:5D,158.44432067871094,-71.41922760009766,-67.35547637939453,3.482713222503662,1.1685371398925781,-9.340251922607422,600.2338588237762
D4:22:CD:00:05:6B,12.081090927124023,48.99934768676758,-43.10211944580078,2.8760366439819336,8.282474517822266,-10.031312942504883,600.2338588237762
D4:22:CD:00:49:AA,-161.28797912597656,-81.20381927490234,95.1965560913086,1.3131217956542969,-1.1343660354614258,-7.466991424560547,600.2338588237762
D4:22:CD:00:05:6E,169.0932159423828,-74.0630874633789,64.51173400878906,4.862604141235352,-4.399280548095703,-10.373462677001953,600.2338588237762
D4:22:CD:00:05:5E,-105.47978210449219,-64.00252532958984,-98.21062469482422,-28.2105712890625,8.332006454467773,-10.45296859741211,600.2338588237762
D4:22:CD:00:05:5D,138.14463806152344,-78.0977783203125,-42.314517974853516,5.938445091247559,7.950270652770996,-0.3903055191040039,600.2941474914551
D4:22:CD:00:05:6B,-0.8592509031295776,41.28668212890625,-67.99716186523438,3.0064563751220703,-6.738703727722168,-16.257892608642578,600.2941474914551
D4:22:CD:00:49:AA,-162.6942901611328,-82.16072845458984,94.1844253540039,-0.10832904279232025,-0.39423149824142456,-8.033231735229492,600.2941474914551
D4:22:CD:00:05:6E,172.95709228515625,-70.94962310791016,59.31863784790039,5.325202941894531,-4.344080924987793,-10.566682815551758,600.2941474914551
D4:22:CD:00:05:5E,-125.73318481445312,-65.69127655029297,-82.7116928100586,1.8150734901428223,-15.049116134643555,-3.8659262657165527,600.2941474914551
D4:22:CD:00:05:5D,107.39334869384766,-80.07621765136719,-9.150052070617676,0.7434163093566895,14.533161163330078,-4.241473197937012,600.3232400417328
D4:22:CD:00:05:6B,-7.5916948318481445,29.79466438293457,-88.39369201660156,-8.669479370117188,-26.238052368164062,-25.393566131591797,600.3232400417328
D4:22:CD:00:49:AA,-160.10293579101562,-83.14505767822266,88.70203399658203,0.475303053855896,-0.8998408317565918,-7.670293807983398,600.3232400417328
D4:22:CD:00:05:6E,174.01657104492188,-67.55438232421875,53.26505661010742,7.246728897094727,-4.761752128601074,-8.972879409790039,600.3232400417328
D4:22:CD:00:05:5E,-140.07699584960938,-67.8184814453125,-69.06420135498047,7.216799736022949,-2.7024412155151367,7.314115524291992,600.3232400417328
D4:22:CD:00:05:5D,91.40100860595703,-79.69767761230469,5.512259483337402,-2.8721346855163574,0.017462842166423798,-2.4513349533081055,600.3534679412842
D4:22:CD:00:05:6B,8.350497245788574,28.754850387573242,-101.88885498046875,7.276396751403809,6.439621925354004,-25.883346557617188,600.3534679412842
D4:22:CD:00:49:AA,-162.11590576171875,-82.67774963378906,85.82447814941406,4.739228248596191,-2.6247377395629883,-4.007806777954102,600.3534679412842
D4:22:CD:00:05:6E,168.72308349609375,-64.70597839355469,49.01443099975586,7.7668352127075195,-3.1079325675964355,-4.642854690551758,600.3534679412842
D4:22:CD:00:05:5E,-153.0204620361328,-67.6148681640625,-56.554054260253906,3.315363883972168,-4.968505859375,0.5396184921264648,600.3534679412842
D4:22:CD:00:05:5D,77.99359130859375,-79.26263427734375,12.979171752929688,1.9322049617767334,-2.0275449752807617,-0.8189945220947266,600.3835256099701
D4:22:CD:00:05:6B,-4.04237174987793,30.2291259765625,-93.39373016357422,1.9626004695892334,2.7923903465270996,-4.845917701721191,600.3835256099701
D4:22:CD:00:49:AA,-166.9744873046875,-80.55964660644531,87.9150619506836,3.3271474838256836,-4.39409065246582,-1.7685794830322266,600.3835256099701
D4:22:CD:00:05:6E,158.891357421875,-63.1684455871582,48.24073791503906,2.296170711517334,1.2671091556549072,-2.979793071746826,600.3835256099701
D4:22:CD:00:05:5E,-163.25979614257812,-64.77243041992188,-47.72377014160156,-2.8606185913085938,-9.484256744384766,-2.435488700866699,600.3835256099701
D4:22:CD:00:05:5D,83.66082000732422,-78.17252349853516,3.3118104934692383,5.157833099365234,10.432807922363281,-2.586397171020508,600.4131031036377
D4:22:CD:00:05:6B,-14.331357955932617,34.69502258300781,-77.82638549804688,-12.562803268432617,-7.023759841918945,-6.901299476623535,600.4131031036377
D4:22:CD:00:49:AA,-165.24063110351562,-78.99855041503906,84.7946548461914,0.5218639373779297,-4.642411231994629,-0.4121131896972656,600.4131031036377
D4:22:CD:00:05:6E,153.81826782226562,-62.223140716552734,47.3358154296875,1.7181684970855713,4.7473297119140625,-2.6489996910095215,600.4131031036377
D4:22:CD:00:05:5E,-167.00596618652344,-61.89412307739258,-43.51070785522461,0.19912511110305786,-2.000633716583252,2.780010223388672,600.4131031036377
D4:22:CD:00:05:5D,108.68108367919922,-74.53730773925781,-26.346981048583984,6.267019271850586,20.122886657714844,5.30933952331543,600.443825006485
D4:22:CD:00:05:6B,-5.013277053833008,38.23567199707031,-58.72637176513672,1.3728742599487305,-7.680943489074707,-15.996923446655273,600.443825006485
D4:22:CD:00:49:AA,-161.2069854736328,-78.80042266845703,80.15214538574219,1.5573396682739258,2.5399909019470215,-1.6631851196289062,600.443825006485
D4:22:CD:00:05:6E,148.6072235107422,-61.542449951171875,48.144657135009766,4.489524841308594,4.978885650634766,-1.1360101699829102,600.443825006485
D4:22:CD:00:05:5E,-167.8919677734375,-58.33942794799805,-42.20306396484375,0.14170250296592712,-5.2081193923950195,1.9284162521362305,600.443825006485
D4:22:CD:00:05:5D,128.9409942626953,-65.58824157714844,-53.22309494018555,8.92947006225586,9.951156616210938,11.078067779541016,600.4738352298737
D4:22:CD:00:05:6B,9.63029956817627,37.924373626708984,-38.21171951293945,-7.248403549194336,-9.522375106811523,-13.02961540222168,600.4738352298737
D4:22:CD:00:49:AA,-157.99163818359375,-79.25446319580078,75.49834442138672,4.775979995727539,3.962925910949707,-0.24366092681884766,600.4738352298737
D4:22:CD:00:05:6E,141.48646545410156,-61.34282302856445,52.066619873046875,0.06289196014404297,9.872220993041992,-0.11969757080078125,600.4738352298737
D4:22:CD:00:05:5E,-169.2574920654297,-55.118717193603516,-40.65059280395508,-0.8013427257537842,-2.7132372856140137,0.3804655075073242,600.4738352298737
D4:22:CD:00:05:5D,137.4314727783203,-53.7142219543457,-68.91663360595703,7.019069671630859,1.6542563438415527,4.5195770263671875,600.5059039592743
D4:22:CD:00:05:6B,29.25497817993164,31.871793746948242,-20.45350456237793,1.477424144744873,3.1504430770874023,-14.521833419799805,600.5059039592743
D4:22:CD:00:49:AA,-157.67413330078125,-79.15483856201172,74.04975891113281,5.502480506896973,0.6656023263931274,3.342137336730957,600.5059039592743
D4:22:CD:00:05:6E,138.13946533203125,-61.05681610107422,57.217403411865234,-1.5066030025482178,11.903114318847656,0.1971750259399414,600.5059039592743
D4:22:CD:00:05:5E,-170.21923828125,-53.04661560058594,-39.54460525512695,-1.4496614933013916,-3.382819175720215,1.4730463027954102,600.5059039592743
D4:22:CD:00:05:5D,142.13845825195312,-41.40266799926758,-78.98344421386719,2.463623523712158,-3.859854221343994,-1.963550090789795,600.5339028835297
D4:22:CD:00:05:6B,37.69569778442383,20.643022537231445,-5.506895542144775,2.1965909004211426,11.116092681884766,0.3265848159790039,600.5339028835297
D4:22:CD:00:49:AA,-158.4398651123047,-79.84198760986328,74.34724426269531,2.01259708404541,1.6089394092559814,2.256511688232422,600.5339028835297
D4:22:CD:00:05:6E,139.2666778564453,-60.35890197753906,62.05271911621094,0.1119391918182373,8.201850891113281,1.8339471817016602,600.5339028835297
D4:22:CD:00:05:5E,-171.08058166503906,-51.74696731567383,-39.03007507324219,-1.370814561843872,-3.194363594055176,-0.28628063201904297,600.5339028835297
D4:22:CD:00:05:5D,146.63980102539062,-29.90883445739746,-85.61556243896484,-1.4810330867767334,-4.089583396911621,-7.424446105957031,600.593222618103
D4:22:CD:00:05:6B,25.28361701965332,6.961519718170166,6.736877918243408,-7.846090316772461,23.90829086303711,4.539661407470703,600.593222618103
D4:22:CD:00:49:AA,-154.8772735595703,-80.09227752685547,70.33746337890625,1.4602787494659424,0.6645209789276123,3.7289276123046875,600.593222618103
D4:22:CD:00:05:6E,140.0941925048828,-59.49272537231445,65.0530776977539,1.1830735206604004,4.29454231262207,3.543701171875,600.593222618103
D4:22:CD:00:05:5E,-172.09115600585938,-51.29357147216797,-38.17687225341797,-1.055657148361206,-2.4450888633728027,1.0320873260498047,600.593222618103
D4:22:CD:00:05:5D,151.286376953125,-20.59421157836914,-90.20771789550781,-1.0272963047027588,-1.342893362045288,-8.013229370117188,600.6237399578094
D4:22:CD:00:05:6B,-3.801314115524292,-6.625606536865234,17.048770904541016,-7.541811943054199,6.204343795776367,-6.776304244995117,600.6237399578094
D4:22:CD:00:49:AA,-152.84934997558594,-80.43195343017578,68.37277221679688,5.792769432067871,0.3154849410057068,3.4182472229003906,600.6237399578094
D4:22:CD:00:05:6E,138.9628448486328,-58.421852111816406,66.08125305175781,1.964801549911499,5.252398490905762,6.028552055358887,600.6237399578094
D4:22:CD:00:05:5E,-173.12721252441406,-51.88729476928711,-37.233036041259766,-1.1152465343475342,-2.5113401412963867,1.1099786758422852,600.6237399578094
D4:22:CD:00:05:5D,155.92164611816406,-14.472441673278809,-93.88630676269531,-4.803272247314453,-2.9987926483154297,-5.263888359069824,600.6538434028625
D4:22:CD:00:05:6B,-21.817495346069336,-17.832290649414062,25.910831451416016,6.627253532409668,-13.196125030517578,15.890945434570312,600.6538434028625
D4:22:CD:00:49:AA,-154.9188995361328,-80.78260040283203,69.46791076660156,6.346500396728516,0.20003536343574524,4.0209503173828125,600.6538434028625
D4:22:CD:00:05:6E,137.3646240234375,-57.0163688659668,66.4720458984375,3.732065200805664,5.208984375,2.7334232330322266,600.6538434028625
D4:22:CD:00:05:5E,-174.1667022705078,-53.194034576416016,-36.48804473876953,-0.2670082449913025,-3.0478100776672363,1.4206819534301758,600.6538434028625
D4:22:CD:00:05:5D,158.69180297851562,-12.498838424682617,-96.78279876708984,-0.4344557523727417,-4.193471908569336,-8.577913284301758,600.6838436126709
D4:22:CD:00:05:6B,-27.761676788330078,-25.074615478515625,32.48293685913086,-7.395857810974121,11.652143478393555,4.71003532409668,600.6838436126709
D4:22:CD:00:49:AA,-157.36102294921875,-80.88566589355469,70.7576675415039,2.3709092140197754,1.1204638481140137,4.656542778015137,600.6838436126709
D4:22:CD:00:05:6E,135.95118713378906,-55.29451370239258,67.51307678222656,3.4971508979797363,4.5204572677612305,1.3076839447021484,600.6838436126709
D4:22:CD:00:05:5E,-174.68519592285156,-54.896766662597656,-35.995113372802734,1.2928407192230225,-3.46405029296875,3.5143518447875977,600.6838436126709
D4:22:CD:00:05:5D,163.17283630371094,-14.053399085998535,-99.46753692626953,-2.120731830596924,-5.342194557189941,-6.341493606567383,600.7143087387085
D4:22:CD:00:05:6B,-39.90951919555664,-31.932950973510742,35.90272521972656,-3.2310867309570312,4.486011505126953,-0.7474803924560547,600.7143087387085
D4:22:CD:00:49:AA,-161.96041870117188,-81.15158081054688,74.57488250732422,2.242664337158203,0.16723796725273132,0.7957420349121094,600.7143087387085
D4:22:CD:00:05:6E,135.1847381591797,-53.54779052734375,69.18199920654297,3.1255269050598145,4.5945539474487305,0.5828971862792969,600.7143087387085
D4:22:CD:00:05:5E,-169.08987426757812,-60.54607009887695,-34.85890579223633,1.289729356765747,2.9733076095581055,-3.832282543182373,600.7143087387085
D4:22:CD:00:05:5D,165.78038024902344,-20.90407371520996,-102.08290100097656,-2.8255796432495117,-9.514181137084961,-12.763896942138672,600.743762254715
D4:22:CD:00:05:6B,-50.43093490600586,-41.83613204956055,38.005577087402344,1.8367338180541992,-0.9948502779006958,0.30552005767822266,600.743762254715
D4:22:CD:00:49:AA,-166.27906799316406,-80.92967987060547,78.15863800048828,2.1377720832824707,-0.4866390824317932,-2.7959041595458984,600.743762254715
D4:22:CD:00:05:6E,135.81187438964844,-52.10498809814453,71.23928833007812,3.326355457305908,3.521401882171631,-1.5084829330444336,600.743762254715
D4:22:CD:00:05:5E,-166.63490295410156,-60.50734329223633,-37.31999588012695,-0.36298930644989014,-2.585482120513916,-2.6071949005126953,600.743762254715
D4:22:CD:00:05:5D,165.5200653076172,-28.56216812133789,-104.3333511352539,-9.85753059387207,19.49234390258789,53.640113830566406,600.7739362716675
D4:22:CD:00:05:6B,-56.2498893737793,-56.71833419799805,40.46662521362305,6.295496940612793,4.028803825378418,8.656667709350586,600.7739362716675
D4:22:CD:00:49:AA,-169.32904052734375,-80.09300994873047,80.8749008178711,0.38966459035873413,-2.0728883743286133,-6.646808624267578,600.7739362716675
D4:22:CD:00:05:6E,136.924072265625,-50.80842590332031,73.80892944335938,4.508181571960449,1.6608519554138184,-4.25454044342041,600.7739362716675
D4:22:CD:00:05:5E,-162.3983154296875,-59.0707893371582,-40.58692932128906,-1.5365736484527588,0.22451362013816833,-5.017801284790039,600.7739362716675
D4:22:CD:00:05:5D,164.9321746826172,-31.084136962890625,-103.2808609008789,4.052330017089844,-12.82748794555664,-17.121540069580078,600.8039164543152
D4:22:CD:00:05:6B,-59.73881530761719,-72.5899658203125,41.164424896240234,-0.03508567810058594,13.141899108886719,28.91604232788086,600.8039164543152
D4:22:CD:00:49:AA,-171.1424102783203,-79.18053436279297,82.86341857910156,-2.5281763076782227,-0.4855198860168457,-8.11434555053711,600.8039164543152
D4:22:CD:00:05:6E,136.70265197753906,-49.24350357055664,77.1223373413086,5.004549026489258,-0.32488131523132324,-4.904962539672852,600.8039164543152
D4:22:CD:00:05:5E,-160.13487243652344,-57.833316802978516,-43.4852409362793,-13.847177505493164,-0.3483433723449707,-10.123773574829102,600.8039164543152
D4:22:CD:00:05:5D,171.37156677246094,-33.827301025390625,-103.28351593017578,2.0590453147888184,-11.068538665771484,-4.969895362854004,600.8334300518036
D4:22:CD:00:05:6B,-65.0768051147461,-78.6364974975586,38.554542541503906,1.7976791858673096,9.119924545288086,8.327028274536133,600.8334300518036
D4:22:CD:00:49:AA,-173.625,-78.00697326660156,85.35660552978516,-0.7418965101242065,1.154578685760498,-4.045384407043457,600.8334300518036
D4:22:CD:00:05:6E,133.8209991455078,-46.335750579833984,81.49922180175781,6.125723838806152,-1.0306413173675537,-3.32181978225708,600.8334300518036
D4:22:CD:00:05:5E,-163.91580200195312,-56.20698165893555,-44.61060333251953,-3.3083248138427734,-6.542104721069336,-3.871847152709961,600.8334300518036
D4:22:CD:00:05:5D,177.0387420654297,-36.415771484375,-103.83480834960938,-11.584455490112305,-7.222058296203613,-2.213459014892578,600.893711566925
D4:22:CD:00:05:6B,-71.281005859375,-72.47770690917969,38.497337341308594,6.442507743835449,5.451674461364746,4.625638961791992,600.893711566925
D4:22:CD:00:49:AA,-172.83660888671875,-77.77632904052734,84.21887969970703,-0.6386955976486206,1.4996607303619385,-5.2256975173950195,600.893711566925
D4:22:CD:00:05:6E,127.65161895751953,-40.646270751953125,87.67640686035156,7.23240852355957,0.940862774848938,1.3121051788330078,600.893711566925
D4:22:CD:00:05:5E,-165.8358154296875,-55.21567916870117,-44.64842987060547,4.7209625244140625,-9.968133926391602,4.762194633483887,600.893711566925
D4:22:CD:00:05:5D,173.96055603027344,-36.91746139526367,-104.00988006591797,-0.3238818645477295,-11.631301879882812,2.5019912719726562,600.9234323501587
D4:22:CD:00:05:6B,-67.30160522460938,-63.2728157043457,35.79894256591797,16.434764862060547,-0.7258739471435547,4.635199546813965,600.9234323501587
D4:22:CD:00:49:AA,-174.3587646484375,-75.53166961669922,85.1115951538086,0.018802355974912643,-2.8602328300476074,2.27626895904541,600.9234323501587
D4:22:CD:00:05:6E,122.2862319946289,-31.428247451782227,95.98995208740234,13.277223587036133,9.742908477783203,5.018439292907715,600.9234323501587
D4:22:CD:00:05:5E,-166.5179443359375,-53.447505950927734,-44.54029083251953,0.22173044085502625,-3.61287260055542,0.965764045715332,600.9234323501587
D4:22:CD:00:05:5D,171.87879943847656,-33.87525177001953,-103.60987854003906,-6.997738838195801,-16.503433227539062,8.919069290161133,600.9535939693451
D4:22:CD:00:05:6B,-69.72359466552734,-54.68325424194336,32.488548278808594,12.791034698486328,-2.795973300933838,0.2961158752441406,600.9535939693451
D4:22:CD:00:49:AA,-178.9426727294922,-73.62125396728516,88.73092651367188,4.527081489562988,-1.0106618404388428,7.036561965942383,600.9535939693451
D4:22:CD:00:05:6E,122.61603546142578,-19.022207260131836,106.14797973632812,14.558218002319336,5.710475921630859,13.778831481933594,600.9535939693451
D4:22:CD:00:05:5E,-167.1947479248047,-52.556270599365234,-43.60421371459961,-2.2949485778808594,-2.150196075439453,-1.2770118713378906,600.9535939693451
D4:22:CD:00:05:5D,166.79147338867188,-29.3680419921875,-102.59693145751953,-1.6593708992004395,-18.955738067626953,7.313121795654297,600.983565568924
D4:22:CD:00:05:6B,-77.58465576171875,-49.747886657714844,26.066761016845703,5.529736518859863,-5.603915214538574,2.3257627487182617,600.983565568924
D4:22:CD:00:49:AA,178.18959045410156,-73.64484405517578,90.16887664794922,1.4162044525146484,2.91292142868042,4.007820129394531,600.983565568924
D4:22:CD:00:05:6E,122.50548553466797,-3.2128868103027344,114.5187759399414,13.316734313964844,10.047210693359375,14.535722732543945,600.983565568924
D4:22:CD:00:05:5E,-167.49241638183594,-52.58550262451172,-43.502803802490234,-0.008885310962796211,-3.8812246322631836,2.1262941360473633,600.983565568924
D4:22:CD:00:05:5D,163.1311492919922,-23.201187133789062,-102.15650177001953,2.210935115814209,-13.338754653930664,3.6957082748413086,601.0139429569244
D4:22:CD:00:05:6B,-84.60118865966797,-50.08254623413086,17.483091354370117,-1.89278244972229,-3.872528553009033,5.647507667541504,601.0139429569244
D4:22:CD:00:49:AA,175.4167938232422,-74.34960174560547,91.86335754394531,0.1579597294330597,4.714949607849121,2.8125762939453125,601.0139429569244
D4:22:CD:00:05:6E,121.3797607421875,16.201457977294922,120.87189483642578,8.183542251586914,13.993629455566406,4.410622596740723,601.0139429569244
D4:22:CD:00:05:5E,-167.8483428955078,-53.41732406616211,-43.62742614746094,0.23673602938652039,-2.3536505699157715,1.5966157913208008,601.0139429569244
D4:22:CD:00:05:5D,162.66571044921875,-19.334707260131836,-102.9020767211914,-2.4716615676879883,-9.191864013671875,-1.3970203399658203,601.0439431667328
D4:22:CD:00:05:6B,-85.0135498046875,-55.55472183227539,8.134318351745605,-1.1419634819030762,-0.22193968296051025,4.93310546875,601.0439431667328
D4:22:CD:00:49:AA,175.29058837890625,-74.26408386230469,91.66542053222656,2.559575080871582,2.4868879318237305,5.188783645629883,601.0439431667328
D4:22:CD:00:05:6E,119.87120056152344,35.70926284790039,125.9720458984375,4.618405342102051,12.15376091003418,-1.9566850662231445,601.0439431667328
D4:22:CD:00:05:5E,-169.38009643554688,-55.10362243652344,-42.76072692871094,-1.0869104862213135,-1.7547712326049805,1.6713504791259766,601.0439431667328
D4:22:CD:00:05:5D,162.17103576660156,-19.543811798095703,-104.4144287109375,-2.9290871620178223,-2.276601791381836,-4.19578742980957,601.0739448070526
D4:22:CD:00:05:6B,-83.60447692871094,-64.43795013427734,-1.4248454570770264,-2.036444664001465,-3.34171724319458,4.023113250732422,601.0739448070526
D4:22:CD:00:49:AA,174.52613830566406,-73.50521087646484,92.38143920898438,5.095720291137695,1.9779672622680664,6.415035247802734,601.0739448070526
D4:22:CD:00:05:6E,117.90000915527344,51.58937454223633,130.5408477783203,-0.35486501455307007,11.65013313293457,3.7165489196777344,601.0739448070526
D4:22:CD:00:05:5E,-172.15342712402344,-56.84150314331055,-41.77136993408203,-0.8500261306762695,-3.4600157737731934,1.0036239624023438,601.0739448070526
D4:22:CD:00:05:5D,161.78567504882812,-24.04056167602539,-106.10286712646484,-3.024965763092041,0.7974355220794678,-7.510223388671875,601.1039659976959
D4:22:CD:00:05:6B,-85.65166473388672,-74.46611785888672,-8.76325511932373,-8.396120071411133,1.3151872158050537,9.762954711914062,601.1039659976959
D4:22:CD:00:49:AA,172.72027587890625,-73.43038940429688,93.60073852539062,2.461246967315674,2.1942381858825684,3.68048095703125,601.1039659976959
D4:22:CD:00:05:6E,113.47398376464844,62.93025588989258,136.20046997070312,-6.099336624145508,8.915529251098633,2.1765966415405273,601.1039659976959
D4:22:CD:00:05:5E,-174.2938995361328,-59.25010299682617,-40.9148063659668,0.15757527947425842,-4.6729583740234375,2.151578903198242,601.1039659976959
D4:22:CD:00:05:5D,161.66270446777344,-32.36888885498047,-107.81600189208984,-3.2876644134521484,-0.3868616819381714,-9.022089004516602,601.1336693763733
D4:22:CD:00:05:6B,-87.3523178100586,-83.07134246826172,-16.22709083557129,-13.094766616821289,6.818891525268555,5.474839210510254,601.1336693763733
D4:22:CD:00:49:AA,170.67247009277344,-73.14292907714844,95.16545867919922,0.33530741930007935,1.2032270431518555,2.846865653991699,601.1336693763733
D4:22:CD:00:05:6E,108.01998138427734,70.00118255615234,144.8088836669922,-7.153364181518555,1.5366923809051514,0.10758781433105469,601.1336693763733
D4:22:CD:00:05:5E,-175.04769897460938,-62.75221252441406,-39.95757293701172,1.0853991508483887,-5.057711601257324,2.081197738647461,601.1336693763733
D4:22:CD:00:05:5D,160.8487091064453,-43.92778778076172,-109.486083984375,-4.962940216064453,-1.9713778495788574,-7.3910064697265625,601.1937029361725
D4:22:CD:00:05:6B,34.54762649536133,-88.89217376708984,-142.98291015625,-10.342456817626953,6.921149253845215,-0.4521331787109375,601.1937029361725
D4:22:CD:00:49:AA,169.21678161621094,-72.93397521972656,96.56583404541016,1.8777291774749756,0.08585959672927856,0.4589357376098633,601.1937029361725
D4:22:CD:00:05:6E,102.02558135986328,71.99430847167969,152.3660888671875,9.01616096496582,-4.603354454040527,-5.0430908203125,601.1937029361725
D4:22:CD:00:05:5E,-175.154052734375,-66.2567138671875,-39.15694046020508,-0.002380301244556904,-3.9092602729797363,-1.1031627655029297,601.1937029361725
D4:22:CD:00:05:5D,159.04994201660156,-58.285213470458984,-111.19525909423828,-5.182122230529785,-3.3484420776367188,-3.3444743156433105,601.2233531475067
D4:22:CD:00:05:6B,73.31358337402344,-83.27471923828125,174.1325225830078,-6.635756492614746,6.056093215942383,-5.395256996154785,601.2233531475067
D4:22:CD:00:49:AA,168.40768432617188,-73.34658813476562,97.334228515625,2.386719226837158,0.042104028165340424,-2.62831974029541,601.2233531475067
D4:22:CD:00:05:6E,106.72029876708984,68.39983367919922,159.6028594970703,17.362239837646484,-1.039642333984375,-8.748201370239258,601.2233531475067
D4:22:CD:00:05:5E,-173.9432373046875,-69.27256774902344,-39.29069137573242,-1.2479944229125977,-2.325605869293213,-3.7482786178588867,601.2233531475067
D4:22:CD:00:05:5D,162.01345825195312,-75.06766510009766,-114.96678161621094,-0.7648470401763916,-2.6210579872131348,5.512824058532715,601.2533655166626
D4:22:CD:00:05:6B,72.85252380371094,-79.09246826171875,169.76292419433594,-3.9246439933776855,6.441424369812012,-8.488584518432617,601.2533655166626
D4:22:CD:00:49:AA,166.7867431640625,-74.0795669555664,98.62510681152344,1.7730684280395508,0.5448914766311646,-4.866457939147949,601.2533655166626
D4:22:CD:00:05:6E,119.25346374511719,59.11996078491211,166.8511199951172,0.5920425653457642,2.904114246368408,-7.761419296264648,601.2533655166626
D4:22:CD:00:05:5E,-172.6669921875,-71.27116394042969,-40.815223693847656,-2.14375638961792,-2.580031394958496,-4.214507102966309,601.2533655166626
D4:22:CD:00:05:5D,-51.76531219482422,-85.004638671875,103.11307525634766,8.193017959594727,3.262660026550293,21.844295501708984,601.2833619117737
D4:22:CD:00:05:6B,71.00515747070312,-76.25849151611328,167.56661987304688,-1.6044950485229492,6.307741165161133,-10.234176635742188,601.2833619117737
D4:22:CD:00:49:AA,164.15213012695312,-75.37504577636719,101.09542846679688,-0.21384912729263306,1.0695080757141113,-6.468844413757324,601.2833619117737
D4:22:CD:00:05:6E,119.1866226196289,44.2303581237793,171.51170349121094,-15.891199111938477,2.6506457328796387,-6.3785247802734375,601.2833619117737
D4:22:CD:00:05:5E,-171.95179748535156,-71.90982055664062,-42.385292053222656,-1.1362545490264893,-2.1059556007385254,-4.731149673461914,601.2833619117737
D4:22:CD:00:05:5D,-21.73476219177246,-69.36531066894531,83.84303283691406,13.452611923217773,23.58985137939453,4.424307823181152,601.3131196498871
D4:22:CD:00:05:6B,70.28260803222656,-74.35106658935547,166.2383575439453,-0.55466628074646,6.032027244567871,-10.79722785949707,601.3131196498871
D4:22:CD:00:49:AA,162.47425842285156,-77.29652404785156,103.77935028076172,-3.154649257659912,-0.8929601907730103,-6.947353363037109,601.3131196498871
D4:22:CD:00:05:6E,105.12125396728516,25.833341598510742,174.09487915039062,-32.344261169433594,8.207832336425781,-18.81244659423828,601.3131196498871
D4:22:CD:00:05:5E,-171.3022003173828,-70.73247528076172,-44.46477508544922,-0.5815662145614624,-0.7466970682144165,-5.72049617767334,601.3131196498871
D4:22:CD:00:05:5D,-15.178983688354492,-67.16325378417969,82.09525299072266,-6.225759506225586,9.8917236328125,-17.851703643798828,601.3460879325867
D4:22:CD:00:05:6B,70.69099426269531,-72.85285186767578,166.38973999023438,-0.03954029083251953,5.329463958740234,-10.468061447143555,601.3460879325867
D4:22:CD:00:49:AA,165.48635864257812,-78.24885559082031,101.83901977539062,3.583679676055908,-2.741069793701172,-8.15456771850586,601.3460879325867
D4:22:CD:00:05:6E,103.20397186279297,20.69785499572754,176.87693786621094,-0.5975099802017212,0.01577206328511238,-15.668638229370117,601.3460879325867
D4:22:CD:00:05:5E,-171.3164520263672,-67.87228393554688,-47.52569580078125,-1.329348087310791,-5.2376556396484375,0.4588327407836914,601.3460879325867
D4:22:CD:00:05:5D,-12.518396377563477,-71.41849517822266,78.87513732910156,6.847965240478516,6.622698783874512,-15.025104522705078,601.3733406066895
D4:22:CD:00:05:6B,68.97337341308594,-71.43595123291016,169.63427734375,-0.636935830116272,3.473569869995117,-8.277883529663086,601.3733406066895
D4:22:CD:00:49:AA,169.0959014892578,-77.45299530029297,96.63383483886719,3.675625801086426,-0.2222018837928772,-1.8905019760131836,601.3733406066895
D4:22:CD:00:05:6E,118.10760498046875,30.79711151123047,177.32852172851562,0.39603614807128906,0.13482025265693665,-3.045750617980957,601.3733406066895
D4:22:CD:00:05:5E,-170.0177001953125,-65.61470031738281,-49.76780700683594,-1.3250412940979004,-2.9063820838928223,-0.8286495208740234,601.3733406066895
D4:22:CD:00:05:5D,11.924812316894531,-79.48258972167969,59.86375427246094,1.3166606426239014,10.395805358886719,2.8255224227905273,601.4033589363098
D4:22:CD:00:05:6B,65.5336685180664,-70.139404296875,172.17478942871094,-2.2876925468444824,2.0180459022521973,-7.039815902709961,601.4033589363098
D4:22:CD:00:49:AA,171.17752075195312,-78.81414031982422,93.61027526855469,-1.0227453708648682,2.698089599609375,1.0155401229858398,601.4033589363098
D4:22:CD:00:05:6E,128.43711853027344,43.92451858520508,179.3874969482422,-13.989086151123047,2.646483898162842,1.2875328063964844,601.4033589363098
D4:22:CD:00:05:5E,-168.28396606445312,-64.574462890625,-51.91446304321289,-1.526010274887085,-3.392573833465576,2.5863819122314453,601.4033589363098
D4:22:CD:00:05:5D,76.03681182861328,-83.2596206665039,0.7890352010726929,1.9016849994659424,2.5781760215759277,0.47241783142089844,601.4339935779572
D4:22:CD:00:05:6B,63.89971923828125,-69.55255126953125,169.49154663085938,-5.2005510330200195,5.215439796447754,-3.908108711242676,601.4339935779572
D4:22:CD:00:49:AA,-179.9085693359375,-78.6603012084961,86.1779556274414,2.6261372566223145,-1.6259379386901855,0.6726264953613281,601.4339935779572
D4:22:CD:00:05:6E,132.26870727539062,60.31217575073242,-179.4855194091797,-2.1166787147521973,1.196263313293457,-21.85997772216797,601.4339935779572
D4:22:CD:00:05:5E,-165.77146911621094,-64.89717102050781,-54.70449447631836,1.7031898498535156,-5.2718095779418945,3.720768928527832,601.4339935779572
D4:22:CD:00:05:5D,128.5445556640625,-78.76463317871094,-46.97445297241211,2.557450771331787,-4.516260147094727,1.651041030883789,601.493264913559
D4:22:CD:00:05:6B,69.24217224121094,-68.69557189941406,161.73001098632812,-6.170743942260742,7.326760292053223,4.529721260070801,601.493264913559
D4:22:CD:00:49:AA,-175.0480499267578,-78.59566497802734,83.10350036621094,5.222198486328125,0.9802060127258301,4.4127349853515625,601.493264913559
D4:22:CD:00:05:6E,147.2703399658203,76.11038208007812,-175.92709350585938,-4.612715721130371,2.6858363151550293,-9.81108283996582,601.493264913559
D4:22:CD:00:05:5E,-158.40380859375,-67.57251739501953,-57.935455322265625,0.9657214879989624,-3.063910484313965,1.1063175201416016,601.493264913559
D4:22:CD:00:05:5D,141.94793701171875,-75.28248596191406,-61.01287078857422,4.442026138305664,-11.774831771850586,-1.6443967819213867,601.5238349437714
D4:22:CD:00:05:6B,78.71831512451172,-67.29875946044922,153.5102996826172,-7.520743370056152,4.985764503479004,7.536754608154297,601.5238349437714
D4:22:CD:00:49:AA,-173.16844177246094,-78.18122100830078,82.93647766113281,0.9258967638015747,-0.18570104241371155,2.6199560165405273,601.5238349437714
D4:22:CD:00:05:6E,-101.15765380859375,88.90890502929688,-74.03495025634766,0.44498008489608765,1.9289753437042236,-6.6753387451171875,601.5238349437714
D4:22:CD:00:05:5E,-149.05636596679688,-66.8277816772461,-64.06179809570312,0.5311763286590576,-7.093254089355469,-3.0612411499023438,601.5238349437714
D4:22:CD:00:05:5D,153.1869354248047,-74.71774291992188,-72.6208267211914,6.93492317199707,-3.2845892906188965,5.649588584899902,601.5542314052582
D4:22:CD:00:05:6B,90.11260986328125,-67.17928314208984,145.8083953857422,-5.462115287780762,5.608527183532715,6.787080764770508,601.5542314052582
D4:22:CD:00:49:AA,-171.5759735107422,-77.18740844726562,83.67566680908203,-1.0883731842041016,-5.098763465881348,-0.11103534698486328,601.5542314052582
D4:22:CD:00:05:6E,-21.142383575439453,77.48965454101562,-6.248706340789795,-0.955519437789917,1.1758801937103271,-2.0437440872192383,601.5542314052582
D4:22:CD:00:05:5E,-142.0552520751953,-63.3404426574707,-69.0833511352539,1.2486865520477295,-12.746967315673828,1.6282672882080078,601.5542314052582
D4:22:CD:00:05:5D,159.11656188964844,-72.36387634277344,-74.40247344970703,-6.057154655456543,-5.457557678222656,5.149635314941406,601.5834982395172
D4:22:CD:00:05:6B,104.10252380371094,-69.57112121582031,138.1566619873047,-1.5969650745391846,8.158349990844727,3.913912773132324,601.5834982395172
D4:22:CD:00:49:AA,-173.7393798828125,-76.30030059814453,88.8556900024414,-1.8063549995422363,-3.848639488220215,-0.9361019134521484,601.5834982395172
D4:22:CD:00:05:6E,-9.508465766906738,66.60713958740234,-5.356192588806152,3.7003307342529297,5.216917991638184,-0.1936168670654297,601.5834982395172
D4:22:CD:00:05:5E,-134.2618865966797,-58.58807373046875,-71.57572174072266,-20.780109405517578,-4.310290336608887,2.0020132064819336,601.5834982395172
D4:22:CD:00:05:5D,166.54005432128906,-70.15396118164062,-73.231689453125,-2.7353363037109375,4.181845664978027,1.0153799057006836,601.6139488220215
D4:22:CD:00:05:6B,123.68914031982422,-73.3458251953125,129.26205444335938,3.8528690338134766,-0.5056995153427124,-1.8143463134765625,601.6139488220215
D4:22:CD:00:49:AA,-177.8297576904297,-76.20223236083984,97.10485076904297,-5.016745567321777,1.6661877632141113,-3.673031806945801,601.6139488220215
D4:22:CD:00:05:6E,-6.764512062072754,58.21352005004883,-8.460711479187012,16.857086181640625,3.5195107460021973,4.9017791748046875,601.6139488220215
D4:22:CD:00:05:5E,-132.6178741455078,-51.89773178100586,-67.2511978149414,-22.686283111572266,-4.797760963439941,1.718214988708496,601.6139488220215
D4:22:CD:00:05:5D,170.85812377929688,-68.66422271728516,-75.48189544677734,-6.692373275756836,-1.6172137260437012,1.2752132415771484,601.6440365314484
D4:22:CD:00:05:6B,145.08294677734375,-76.71215057373047,115.97235107421875,4.033863067626953,-3.8514952659606934,-2.042631149291992,601.6440365314484
D4:22:CD:00:49:AA,177.27584838867188,-76.10875701904297,104.38876342773438,-0.4666737914085388,3.310507297515869,-1.6162385940551758,601.6440365314484
D4:22:CD:00:05:6E,-2.5758283138275146,56.69499588012695,-10.780182838439941,26.306350708007812,-21.06372833251953,10.269683837890625,601.6440365314484
D4:22:CD:00:05:5E,-133.47637939453125,-45.173492431640625,-59.5303840637207,-15.36380386352539,-6.300901412963867,-5.360462188720703,601.6440365314484
D4:22:CD:00:05:5D,175.09690856933594,-66.76697540283203,-80.43283081054688,-0.7246929407119751,-0.7266957759857178,0.1182088851928711,601.6730420589447
D4:22:CD:00:05:6B,154.1953125,-79.67869567871094,106.76652526855469,1.7321419715881348,-4.216183662414551,0.11658668518066406,601.6730420589447
D4:22:CD:00:49:AA,174.59010314941406,-76.04078674316406,106.9068374633789,3.990711212158203,2.7880911827087402,3.352083206176758,601.6730420589447
D4:22:CD:00:05:6E,14.092156410217285,61.95481491088867,-6.241966247558594,2.387021064758301,3.0953636169433594,1.3877849578857422,601.6730420589447
D4:22:CD:00:05:5E,-138.05873107910156,-39.24983215332031,-50.262657165527344,-7.312104225158691,-7.09427547454834,-8.318784713745117,601.6730420589447
D4:22:CD:00:05:5D,179.31088256835938,-65.01519775390625,-84.4619140625,2.6019787788391113,1.9001140594482422,1.0976800918579102,601.7337560653687
D4:22:CD:00:05:6B,145.5980987548828,-82.52611541748047,112.71083068847656,-4.519321441650391,-7.061491966247559,4.828412055969238,601.7337560653687
D4:22:CD:00:49:AA,169.4266357421875,-75.7914810180664,110.6564712524414,-1.6028058528900146,2.1168904304504395,4.195206642150879,601.7337560653687
D4:22:CD:00:05:6E,26.099632263183594,64.91130828857422,4.307728290557861,-1.3495430946350098,16.349929809570312,5.779465675354004,601.7337560653687
D4:22:CD:00:05:5E,-145.94947814941406,-34.7525749206543,-40.403602600097656,-1.3569731712341309,-5.225811958312988,-7.720900535583496,601.7337560653687
D4:22:CD:00:05:5D,-178.68997192382812,-64.32830047607422,-86.02784729003906,0.8376374244689941,1.1805763244628906,1.327911376953125,601.7398345470428
D4:22:CD:00:05:6B,122.41555786132812,-84.4921646118164,132.5544891357422,-5.129663467407227,-5.5592546463012695,4.2329559326171875,601.7398345470428
D4:22:CD:00:49:AA,162.90037536621094,-74.73477935791016,116.19622039794922,-5.907746315002441,2.3269782066345215,3.4290666580200195,601.7398345470428
D4:22:CD:00:05:6E,26.900531768798828,64.09135437011719,15.032869338989258,0.6992392539978027,-0.5679018497467041,2.4656877517700195,601.7398345470428
D4:22:CD:00:05:5E,-156.085205078125,-32.0628547668457,-30.989330291748047,0.960884690284729,-4.134897232055664,-5.707562446594238,601.7398345470428
D4:22:CD:00:05:5D,-177.53431701660156,-64.55406188964844,-86.8337631225586,-0.6842221021652222,0.5445955991744995,0.8578596115112305,601.7938239574432
D4:22:CD:00:05:6B,95.64710235595703,-84.9272689819336,156.36959838867188,-4.766413688659668,-3.152818202972412,3.207768440246582,601.7938239574432
D4:22:CD:00:49:AA,159.21470642089844,-74.26040649414062,120.09070587158203,-6.993952751159668,-0.21542534232139587,3.182583808898926,601.7938239574432
D4:22:CD:00:05:6E,41.742252349853516,60.49740219116211,27.22606086730957,-0.03453945368528366,-8.452966690063477,-5.510923385620117,601.7938239574432
D4:22:CD:00:05:5E,-167.17897033691406,-32.1713981628418,-22.048280715942383,4.920762062072754,-5.603569030761719,-3.090329170227051,601.7938239574432
D4:22:CD:00:05:5D,-176.0061798095703,-65.21459197998047,-88.35161590576172,-1.7106313705444336,-0.18041583895683289,0.47434425354003906,601.8236901760101
D4:22:CD:00:05:6B,74.65398406982422,-85.00173950195312,174.39666748046875,-5.118975639343262,0.0440371036529541,0.6171274185180664,601.8236901760101
D4:22:CD:00:49:AA,154.2398223876953,-74.73829650878906,126.2578125,-2.455395221710205,0.062094129621982574,-0.01746654510498047,601.8236901760101
D4:22:CD:00:05:6E,65.00370025634766,52.34925079345703,38.190189361572266,-1.4016456604003906,5.136758804321289,-9.494974136352539,601.8236901760101
D4:22:CD:00:05:5E,-176.22911071777344,-34.359413146972656,-13.422205924987793,12.653341293334961,-2.7641453742980957,-3.030733585357666,601.8236901760101
D4:22:CD:00:05:5D,-173.96498107910156,-65.80792999267578,-90.85301971435547,-0.5199058055877686,-0.6234766244888306,0.10931396484375,601.8536911010742
D4:22:CD:00:05:6B,50.832130432128906,-85.16908264160156,-164.21054077148438,-4.912256240844727,2.1900734901428223,-2.6347737312316895,601.8536911010742
D4:22:CD:00:49:AA,148.5712127685547,-74.83767700195312,132.70413208007812,1.9988808631896973,0.5385172367095947,-3.6157689094543457,601.8536911010742
D4:22:CD:00:05:6E,80.6846694946289,39.376800537109375,46.05067443847656,2.327970027923584,12.301773071289062,-9.50039291381836,601.8536911010742
D4:22:CD:00:05:5E,-178.17091369628906,-40.14854049682617,-5.467151641845703,15.008644104003906,9.943405151367188,-8.195308685302734,601.8536911010742
D4:22:CD:00:05:5D,-172.30458068847656,-66.4022445678711,-94.1343002319336,0.3378700017929077,-0.9792283773422241,-0.1926259994506836,601.8836913108826
D4:22:CD:00:05:6B,14.47042179107666,-84.98804473876953,-130.61526489257812,-4.1342878341674805,3.5287985801696777,-4.322155952453613,601.8836913108826
D4:22:CD:00:49:AA,143.13720703125,-74.43230438232422,138.24671936035156,1.747046709060669,0.066099151968956,-5.645215034484863,601.8836913108826
D4:22:CD:00:05:6E,84.2937240600586,21.980241775512695,51.095401763916016,4.478219985961914,15.958854675292969,-7.652385711669922,601.8836913108826
D4:22:CD:00:05:5E,-170.00302124023438,-44.73956298828125,0.18570902943611145,-10.243215560913086,4.8404693603515625,27.264320373535156,601.8836913108826
D4:22:CD:00:05:5D,-172.46478271484375,-66.2201156616211,-95.3888168334961,0.5446563959121704,-1.5544312000274658,0.10525131225585938,601.9134213924408
D4:22:CD:00:05:6B,-24.679851531982422,-82.73688507080078,-95.21892547607422,-4.449986457824707,5.13517951965332,-5.113127708435059,601.9134213924408
D4:22:CD:00:49:AA,138.5838623046875,-73.35162353515625,143.3794708251953,-0.17560186982154846,-1.2156996726989746,-6.6904191970825195,601.9134213924408
D4:22:CD:00:05:6E,76.7229232788086,1.7165825366973877,54.872955322265625,11.860937118530273,23.001571655273438,-4.100831985473633,601.9134213924408
D4:22:CD:00:05:5E,-170.98980712890625,-44.96088790893555,2.6280155181884766,-2.6114277839660645,-2.9597954750061035,-7.091375350952148,601.9134213924408
