Device,EulerX,EulerY,EulerZ,FreeAccX,FreeAccY,FreeAccZ,Timestamp
D4:22:CD:00:05:5D,176.90158081054688,-57.68020248413086,-115.61408233642578,-1.1289982795715332,1.023789405822754,1.2619600296020508,2228.2819063663483
D4:22:CD:00:05:6B,-48.277767181396484,-32.466304779052734,-49.42515182495117,-0.1274089813232422,9.671976089477539,18.4849853515625,2228.2819063663483
D4:22:CD:00:49:AA,123.62477111816406,-72.08302307128906,159.5792694091797,-1.5059962272644043,0.8651870489120483,4.676072120666504,2228.2819063663483
D4:22:CD:00:05:6E,63.557029724121094,-33.70156478881836,-56.15599822998047,12.883731842041016,-0.42889684438705444,-2.5474729537963867,2228.2819063663483
D4:22:CD:00:05:5E,-164.68853759765625,-55.079254150390625,-17.500125885009766,4.368812561035156,-4.099510192871094,9.561153411865234,2228.2819063663483
D4:22:CD:00:05:6B,-41.31462478637695,-19.775432586669922,-41.486446380615234,2.685915470123291,2.6994566917419434,22.438507080078125,2228.2859060764313
D4:22:CD:00:49:AA,123.13492584228516,-72.61927032470703,158.73248291015625,-1.4303596019744873,1.9261696338653564,4.061890602111816,2228.2859060764313
D4:22:CD:00:05:6E,62.88277816772461,-35.38103485107422,-49.71371841430664,8.35451889038086,-3.267465114593506,-7.2450761795043945,2228.2859060764313
D4:22:CD:00:05:5E,-157.41880798339844,-52.526458740234375,-19.10792350769043,3.7081685066223145,0.6929664611816406,7.10633659362793,2228.2859060764313
D4:22:CD:00:05:5D,-100.19099426269531,-75.33330535888672,-165.18434143066406,0.03992544859647751,1.8809685707092285,-1.620199203491211,2228.287897825241
D4:22:CD:00:05:6B,-28.061681747436523,-5.85317850112915,-35.69795227050781,9.892864227294922,0.597257137298584,12.169675827026367,2228.287897825241
D4:22:CD:00:49:AA,123.09324645996094,-73.16650390625,157.56675720214844,-3.151585102081299,1.148545265197754,1.7972373962402344,2228.287897825241
D4:22:CD:00:05:6E,62.667354583740234,-40.69585037231445,-40.872528076171875,8.074617385864258,-1.8088467121124268,-3.3608665466308594,2228.287897825241
D4:22:CD:00:05:5E,-154.6431884765625,-50.45002365112305,-22.052021026611328,2.2566566467285156,3.3953857421875,1.535360336303711,2228.287897825241
D4:22:CD:00:05:5D,-126.11431884765625,-72.68315124511719,-137.94737243652344,-1.0737075805664062,3.1230616569519043,-0.17801952362060547,2228.2909059524536
D4:22:CD:00:49:AA,125.10957336425781,-73.56544494628906,155.08290100097656,-3.4510293006896973,0.75406813621521,1.0827064514160156,2228.2909059524536
D4:22:CD:00:05:6E,65.54338836669922,-48.467769622802734,-29.38199234008789,8.209814071655273,0.417230486869812,0.8905706405639648,2228.2909059524536
D4:22:CD:00:05:5E,-152.02642822265625,-50.335960388183594,-27.21592903137207,1.6176013946533203,5.372511863708496,-2.9102883338928223,2228.2909059524536
D4:22:CD:00:05:5D,-146.29931640625,-67.9125747680664,-117.15760803222656,-1.0999155044555664,3.0240182876586914,-0.33402347564697266,2228.296909093857
D4:22:CD:00:05:6B,-60.07130432128906,-25.48866844177246,-56.49624252319336,2.401693344116211,-1.8615803718566895,6.467536926269531,2228.296909093857
D4:22:CD:00:49:AA,166.52207946777344,-63.130706787109375,118.23736572265625,-2.138364791870117,2.5914506912231445,2.784878730773926,2228.296909093857
D4:22:CD:00:05:5D,-157.30599975585938,-62.925479888916016,-105.59386444091797,-2.004450798034668,2.147566795349121,0.6288547515869141,2228.3669199943542
D4:22:CD:00:05:6B,-57.60666275024414,-19.448875427246094,-57.88092803955078,-2.5916905403137207,-2.4677329063415527,6.332681655883789,2228.3669199943542
D4:22:CD:00:49:AA,173.5736541748047,-69.58642578125,113.69639587402344,3.3970837593078613,-1.0776090621948242,4.844786643981934,2228.3669199943542
D4:22:CD:00:05:6E,133.55221557617188,-81.97618103027344,-6.910036563873291,3.1816506385803223,3.4068918228149414,10.177581787109375,2228.3669199943542
D4:22:CD:00:05:5E,156.62098693847656,-68.89055633544922,51.02309799194336,-3.2504968643188477,-1.4447553157806396,17.393016815185547,2228.3669199943542
D4:22:CD:00:05:5D,-163.49986267089844,-59.070255279541016,-98.82706451416016,-2.768521308898926,2.3406338691711426,0.9654970169067383,2228.397446870804
D4:22:CD:00:05:6B,-61.816680908203125,-8.383064270019531,-56.27884292602539,0.0357128381729126,4.12513542175293,13.021413803100586,2228.397446870804
D4:22:CD:00:49:AA,168.97348022460938,-68.80200958251953,119.02948760986328,3.572023868560791,-0.5978349447250366,3.17183780670166,2228.397446870804
D4:22:CD:00:05:6E,-165.9381561279297,-84.48040771484375,-63.976524353027344,1.2259528636932373,1.5729222297668457,14.52597427368164,2228.397446870804
D4:22:CD:00:05:5E,173.39454650878906,-53.667076110839844,40.151695251464844,0.9532860517501831,6.604347229003906,11.028064727783203,2228.397446870804
D4:22:CD:00:05:5D,-167.4852294921875,-56.61968231201172,-94.47483825683594,-3.1350226402282715,2.1766281127929688,1.3897485733032227,2228.4564447402954
D4:22:CD:00:05:6B,-56.87123107910156,7.630911827087402,-51.91374206542969,11.58547592163086,0.7710504531860352,22.620132446289062,2228.4564447402954
D4:22:CD:00:49:AA,166.64698791503906,-67.1558837890625,122.08366394042969,-0.9616568088531494,2.4636921882629395,6.935419082641602,2228.4564447402954
D4:22:CD:00:05:6E,-118.10879516601562,-84.20623779296875,-100.42015075683594,-6.885647773742676,1.5015125274658203,11.167900085449219,2228.4564447402954
D4:22:CD:00:05:5E,-173.43997192382812,-52.39630126953125,28.867252349853516,-0.12007349729537964,4.384383201599121,0.5356578826904297,2228.4564447402954
D4:22:CD:00:05:5D,-169.90472412109375,-55.66117858886719,-91.78509521484375,-3.518155574798584,1.6838974952697754,1.7152719497680664,2228.486993074417
D4:22:CD:00:05:6B,-37.53044891357422,21.095977783203125,-41.32300567626953,11.885513305664062,-12.121728897094727,17.64052963256836,2228.486993074417
D4:22:CD:00:49:AA,169.12498474121094,-67.95673370361328,121.61206817626953,-3.151367664337158,0.5550649166107178,9.578678131103516,2228.486993074417
D4:22:CD:00:05:6E,-128.15188598632812,-85.80982971191406,-83.42688751220703,-11.113069534301758,-3.8891959190368652,5.43625545501709,2228.486993074417
D4:22:CD:00:05:5E,-164.87936401367188,-55.77820587158203,18.916154861450195,-3.172079563140869,3.788471221923828,-5.428919792175293,2228.486993074417
D4:22:CD:00:05:5D,-171.1360626220703,-56.219295501708984,-90.89910888671875,-3.988373279571533,1.6852149963378906,2.5215282440185547,2228.516984462738
D4:22:CD:00:05:6B,-16.522029876708984,26.820449829101562,-25.890079498291016,7.136899948120117,-13.667915344238281,9.332592010498047,2228.516984462738
D4:22:CD:00:49:AA,174.74732971191406,-70.1159439086914,118.08197784423828,-2.9356460571289062,3.295384407043457,11.08112907409668,2228.516984462738
D4:22:CD:00:05:6E,-92.63330078125,-87.3915786743164,-113.42823791503906,-5.275053024291992,-5.701959609985352,5.279140472412109,2228.516984462738
D4:22:CD:00:05:5E,-149.2111053466797,-63.403350830078125,4.305062770843506,-5.147465705871582,6.154626846313477,-5.39155387878418,2228.516984462738
D4:22:CD:00:05:5D,-171.0236053466797,-58.889564514160156,-91.6532974243164,-1.8918969631195068,3.148489475250244,4.462835311889648,2228.5469930171967
D4:22:CD:00:05:6B,2.6419837474823,26.57121467590332,-14.206698417663574,1.1434345245361328,-16.83025360107422,7.645708084106445,2228.5469930171967
D4:22:CD:00:49:AA,-176.5183563232422,-73.05499267578125,112.70742797851562,-1.0620217323303223,2.8348937034606934,10.519479751586914,2228.5469930171967
D4:22:CD:00:05:6E,-25.291135787963867,-82.931396484375,-166.95266723632812,-13.899639129638672,-13.671119689941406,2.1818313598632812,2228.5469930171967
D4:22:CD:00:05:5E,-112.14909362792969,-70.97483825683594,-29.328384399414062,-2.0390877723693848,3.3676719665527344,-3.0290703773498535,2228.5469930171967
D4:22:CD:00:05:5D,-169.81849670410156,-64.3585205078125,-92.68231964111328,-3.645118236541748,-0.5177878141403198,9.728721618652344,2228.5760078430176
D4:22:CD:00:05:6B,22.259321212768555,26.689523696899414,-10.288267135620117,-4.200068473815918,-12.363840103149414,-1.0626039505004883,2228.5760078430176
D4:22:CD:00:49:AA,-166.86195373535156,-75.59088134765625,107.56876373291016,-0.16357749700546265,3.1292505264282227,2.0964698791503906,2228.5760078430176
D4:22:CD:00:05:6E,-7.157040596008301,-78.31959533691406,-170.2675323486328,-10.248895645141602,-16.717628479003906,-2.9285058975219727,2228.5760078430176
D4:22:CD:00:05:5E,-65.12887573242188,-69.51512908935547,-78.20050048828125,-3.2816085815429688,-5.113565444946289,0.9816780090332031,2228.5760078430176
D4:22:CD:00:05:5D,-168.26123046875,-72.25869750976562,-98.60918426513672,-3.2757229804992676,-13.656503677368164,9.152587890625,2228.6065900325775
D4:22:CD:00:05:6B,38.38461685180664,29.792510986328125,-11.545479774475098,-4.563630104064941,-0.6677392721176147,-6.483150482177734,2228.6065900325775
D4:22:CD:00:49:AA,-159.51828002929688,-75.8211669921875,105.06423950195312,-0.8283032178878784,0.6842985153198242,-3.6720643043518066,2228.6065900325775
D4:22:CD:00:05:6E,5.717394828796387,-75.70944213867188,-166.58633422851562,-7.821859359741211,-10.128702163696289,-9.33265495300293,2228.6065900325775
D4:22:CD:00:05:5E,-38.995582580566406,-60.855430603027344,-109.80704498291016,-5.753656387329102,-13.015819549560547,-4.290552139282227,2228.6065900325775
D4:22:CD:00:05:5D,-170.25094604492188,-77.59800720214844,-103.50919342041016,2.4571967124938965,-0.41749370098114014,-8.834388732910156,2228.6365897655487
D4:22:CD:00:05:6B,44.92759704589844,34.311920166015625,-15.692256927490234,0.18962788581848145,4.788850784301758,-7.076647758483887,2228.6365897655487
D4:22:CD:00:49:AA,-154.53643798828125,-74.8710708618164,104.15821838378906,0.47032076120376587,0.009339377284049988,-5.775679588317871,2228.6365897655487
D4:22:CD:00:05:6E,12.848438262939453,-75.30877685546875,-157.1435546875,-1.8974902629852295,-10.570232391357422,-11.453495025634766,2228.6365897655487
D4:22:CD:00:05:5E,-32.359901428222656,-53.07101821899414,-127.20155334472656,-19.076358795166016,-16.79637908935547,-5.368173599243164,2228.6365897655487
D4:22:CD:00:05:5D,-171.3121337890625,-80.984375,-102.2568359375,1.3233590126037598,3.355766773223877,-7.138294219970703,2228.6666054725647
D4:22:CD:00:05:6B,43.15918731689453,39.400081634521484,-23.082990646362305,3.6729917526245117,3.3450889587402344,-8.915426254272461,2228.6666054725647
D4:22:CD:00:49:AA,-150.72390747070312,-74.86507415771484,100.8663330078125,2.8397955894470215,2.86746883392334,-10.713565826416016,2228.6666054725647
D4:22:CD:00:05:6E,8.70134162902832,-75.88517761230469,-144.37808227539062,1.4883933067321777,-7.620976448059082,-12.218587875366211,2228.6666054725647
D4:22:CD:00:05:5E,-31.926807403564453,-48.533565521240234,-136.5388641357422,-27.67980194091797,-2.0341105461120605,-15.692493438720703,2228.6666054725647
D4:22:CD:00:05:5D,-174.04220581054688,-84.51985168457031,-102.0969467163086,8.516576766967773,-0.37284934520721436,-8.62051010131836,2228.6961419582367
D4:22:CD:00:05:6B,34.5067138671875,44.899253845214844,-34.06074142456055,2.042142391204834,3.635408401489258,-15.238361358642578,2228.6961419582367
D4:22:CD:00:49:AA,-145.45680236816406,-75.6562271118164,96.09512329101562,2.9101271629333496,0.9714292287826538,-11.877918243408203,2228.6961419582367
D4:22:CD:00:05:6E,-5.8699774742126465,-77.21408081054688,-130.92922973632812,2.6281418800354004,-6.134122848510742,-11.881793975830078,2228.6961419582367
D4:22:CD:00:05:5E,-28.833637237548828,-48.62846374511719,-136.16439819335938,-18.798213958740234,-2.9791598320007324,-27.254253387451172,2228.6961419582367
D4:22:CD:00:05:5D,-162.93270874023438,-86.8458251953125,-112.7137222290039,8.067180633544922,8.668556213378906,-12.104253768920898,2228.756597518921
D4:22:CD:00:05:6B,18.190921783447266,49.06941223144531,-47.22042465209961,-0.49574577808380127,0.27955543994903564,-16.050262451171875,2228.756597518921
D4:22:CD:00:49:AA,-143.20899963378906,-76.79270935058594,92.93352508544922,2.9908556938171387,-0.2376340627670288,-11.393674850463867,2228.756597518921
D4:22:CD:00:05:6E,-24.919696807861328,-78.38809204101562,-118.05026245117188,1.328810691833496,-3.693942070007324,-7.456670761108398,2228.756597518921
D4:22:CD:00:05:5E,-41.37505340576172,-53.88714599609375,-124.27342224121094,-3.479801654815674,-7.314605712890625,-14.765666961669922,2228.756597518921
D4:22:CD:00:05:5D,-159.1420440673828,-86.29102325439453,-118.86776733398438,-2.877498149871826,12.885723114013672,-7.890942573547363,2228.7863161563873
D4:22:CD:00:05:6B,-4.888224124908447,51.412025451660156,-65.25172424316406,0.6229939460754395,-3.5071468353271484,-18.44164276123047,2228.7863161563873
D4:22:CD:00:49:AA,-145.51947021484375,-77.55146789550781,92.07538604736328,1.7120497226715088,-0.9831867218017578,-6.951780319213867,2228.7863161563873
D4:22:CD:00:05:6E,-38.59130859375,-78.7557373046875,-109.80548095703125,1.6214616298675537,-1.2787904739379883,-5.704687118530273,2228.7863161563873
D4:22:CD:00:05:5E,-63.9134635925293,-58.36418533325195,-107.67115783691406,-2.0499649047851562,-9.229074478149414,-8.038801193237305,2228.7863161563873
D4:22:CD:00:05:5D,-171.50775146484375,-84.4853744506836,-110.18804168701172,-6.310802459716797,-8.475833892822266,-2.4139137268066406,2228.8164110183716
D4:22:CD:00:05:6B,-30.450756072998047,46.82925796508789,-85.27006530761719,-5.771726608276367,-4.411725997924805,-25.37615966796875,2228.8164110183716
D4:22:CD:00:49:AA,-143.55703735351562,-78.68050384521484,87.83780670166016,-4.322450637817383,-0.26443594694137573,-3.6626853942871094,2228.8164110183716
D4:22:CD:00:05:6E,-42.730125427246094,-78.15799713134766,-107.86083984375,3.9003891944885254,-0.7874777317047119,-4.010115623474121,2228.8164110183716
D4:22:CD:00:05:5E,-84.7537612915039,-60.883644104003906,-91.02031707763672,0.9499586820602417,-9.251096725463867,-6.43889045715332,2228.8164110183716
D4:22:CD:00:05:5D,173.09988403320312,-82.84390258789062,-92.65736389160156,-0.6845861673355103,-8.903072357177734,1.9938411712646484,2228.8464097976685
D4:22:CD:00:05:6B,-51.58922576904297,36.20405960083008,-94.0797119140625,-6.067745208740234,-14.194372177124023,-16.10934829711914,2228.8464097976685
D4:22:CD:00:49:AA,-142.38314819335938,-79.13648223876953,85.2383041381836,-4.283807754516602,-3.1141490936279297,-1.314499855041504,2228.8464097976685
D4:22:CD:00:05:6E,-41.9544563293457,-77.43307495117188,-108.92949676513672,3.399332046508789,-2.2876453399658203,-4.296640396118164,2228.8464097976685
D4:22:CD:00:05:5E,-100.63273620605469,-61.9838981628418,-76.75328826904297,0.45761024951934814,-6.831439971923828,2.4609079360961914,2228.8464097976685
D4:22:CD:00:05:5D,159.36268615722656,-80.08872985839844,-72.7757339477539,5.141155242919922,-4.364697456359863,3.030691146850586,2228.8764238357544
D4:22:CD:00:05:6B,-61.7623291015625,29.85000991821289,-95.39981842041016,-5.165753364562988,-4.269854545593262,-1.7353582382202148,2228.8764238357544
D4:22:CD:00:49:AA,-147.6693115234375,-78.81255340576172,89.43892669677734,-0.710870623588562,-3.362222194671631,2.173783302307129,2228.8764238357544
D4:22:CD:00:05:6E,-45.086727142333984,-76.91027069091797,-107.21121215820312,2.4573373794555664,-4.396864891052246,-1.0418787002563477,2228.8764238357544
D4:22:CD:00:05:5E,-101.63806915283203,-63.373291015625,-71.11578369140625,14.203792572021484,-10.182937622070312,1.8618841171264648,2228.8764238357544
D4:22:CD:00:05:5D,150.18299865722656,-78.23938751220703,-60.21246337890625,2.395598888397217,-1.1196763515472412,12.511543273925781,2228.9069628715515
D4:22:CD:00:05:6B,-60.466209411621094,31.17435646057129,-88.70354461669922,-4.316102027893066,-9.778839111328125,14.155607223510742,2228.9069628715515
D4:22:CD:00:49:AA,-152.0712432861328,-79.18850708007812,92.33544921875,-1.239964485168457,-1.5737571716308594,5.292193412780762,2228.9069628715515
D4:22:CD:00:05:6E,-56.11039733886719,-76.56175994873047,-100.79460906982422,3.693613052368164,-7.602917671203613,3.8017845153808594,2228.9069628715515
D4:22:CD:00:05:5E,-100.29511260986328,-66.40071868896484,-68.1366195678711,10.825815200805664,-10.319107055664062,8.453315734863281,2228.9069628715515
D4:22:CD:00:05:5D,139.0271453857422,-76.97738647460938,-48.72310256958008,-2.8689231872558594,1.2332062721252441,3.1103410720825195,2228.9369509220123
D4:22:CD:00:05:6B,-40.83623123168945,33.828468322753906,-73.32077026367188,-7.42138671875,-12.870468139648438,-11.882333755493164,2228.9369509220123
D4:22:CD:00:49:AA,-157.1277313232422,-79.3765869140625,95.74617004394531,-3.153891086578369,-4.201020240783691,12.082952499389648,2228.9369509220123
D4:22:CD:00:05:6E,-72.94612121582031,-76.71082305908203,-92.52718353271484,0.7747362852096558,-7.5329437255859375,8.150678634643555,2228.9369509220123
D4:22:CD:00:05:5E,-103.54554748535156,-69.05036926269531,-62.90475845336914,2.7181553840637207,1.2695963382720947,7.333646774291992,2228.9369509220123
D4:22:CD:00:05:5D,124.54843139648438,-76.74949645996094,-36.33552932739258,0.3576488494873047,-2.0599541664123535,10.08359146118164,2228.9670593738556
D4:22:CD:00:05:6B,-28.310239791870117,31.801733016967773,-52.00978088378906,-1.2252535820007324,-9.160629272460938,-9.442375183105469,2228.9670593738556
D4:22:CD:00:49:AA,-160.13357543945312,-78.23694610595703,98.35362243652344,1.4046049118041992,-2.185459613800049,0.8474302291870117,2228.9670593738556
D4:22:CD:00:05:6E,-96.56819915771484,-78.2923355102539,-81.32225799560547,0.2738224267959595,-4.499549865722656,8.78598403930664,2228.9670593738556
D4:22:CD:00:05:5E,-114.05487060546875,-70.33638000488281,-54.56475830078125,0.4845960736274719,-7.053583145141602,0.020303726196289062,2228.9670593738556
D4:22:CD:00:05:5D,103.24063873291016,-76.5106430053711,-22.164796829223633,9.680915832519531,5.943302154541016,0.0035686492919921875,2228.9965999126434
D4:22:CD:00:05:6B,-19.535436630249023,24.16893196105957,-37.21736526489258,-4.041383743286133,3.294316291809082,-1.5538520812988281,2228.9965999126434
D4:22:CD:00:49:AA,-158.18983459472656,-76.54548645019531,96.33634185791016,5.820631980895996,3.2032532691955566,-4.184268951416016,2228.9965999126434
D4:22:CD:00:05:6E,-125.18917083740234,-79.75701904296875,-65.4920654296875,2.8539233207702637,6.554289817810059,0.6088743209838867,2228.9965999126434
D4:22:CD:00:05:5E,-118.47100067138672,-73.26388549804688,-51.2542724609375,1.9184625148773193,-10.500398635864258,-1.6676826477050781,2228.9965999126434
D4:22:CD:00:05:5D,110.53781127929688,-73.50669860839844,-33.20848083496094,7.434540748596191,33.29222869873047,3.2000017166137695,2229.0565967559814
D4:22:CD:00:05:6B,-19.48413848876953,14.13564395904541,-25.28228759765625,-7.359689712524414,9.824029922485352,-1.843851089477539,2229.0565967559814
D4:22:CD:00:49:AA,-157.79934692382812,-74.98849487304688,96.1346206665039,7.426590919494629,3.9624876976013184,2.7487497329711914,2229.0565967559814
D4:22:CD:00:05:6E,-143.47024536132812,-80.09237670898438,-57.89099884033203,2.2986412048339844,7.9836320877075195,-4.015128135681152,2229.0565967559814
D4:22:CD:00:05:5E,-115.01985168457031,-75.54299926757812,-52.60407638549805,-1.6745774745941162,-3.4135379791259766,2.0802392959594727,2229.0565967559814
D4:22:CD:00:05:5D,128.81895446777344,-66.15941619873047,-55.58438491821289,9.934598922729492,19.292987823486328,6.1033935546875,2229.086142539978
D4:22:CD:00:05:6B,-22.35374641418457,2.7535030841827393,-12.86380672454834,-3.762575149536133,2.839933395385742,-3.900056838989258,2229.086142539978
D4:22:CD:00:49:AA,-157.90447998046875,-74.9100570678711,96.0207748413086,3.1763906478881836,4.017172813415527,2.974058151245117,2229.086142539978
D4:22:CD:00:05:6E,-147.51356506347656,-80.62109375,-60.06163787841797,-2.7472848892211914,3.057382583618164,1.6208782196044922,2229.086142539978
D4:22:CD:00:05:5E,-113.9959487915039,-77.39118957519531,-52.4605598449707,-3.464679718017578,-2.872842311859131,1.3932647705078125,2229.086142539978
D4:22:CD:00:05:5D,140.1774444580078,-55.1450309753418,-72.45576477050781,6.857489585876465,6.732878684997559,0.4639921188354492,2229.117135286331
D4:22:CD:00:05:6B,-21.47309684753418,-7.849665641784668,0.9511145353317261,3.3065762519836426,7.107273101806641,-1.2600688934326172,2229.117135286331
D4:22:CD:00:49:AA,-158.95054626464844,-74.19149017333984,96.84196472167969,4.601930618286133,4.881186485290527,3.2185516357421875,2229.117135286331
D4:22:CD:00:05:6E,-141.16322326660156,-81.99756622314453,-66.19110107421875,-3.5036582946777344,1.8683271408081055,7.541402816772461,2229.117135286331
D4:22:CD:00:05:5E,-109.54130554199219,-79.8656997680664,-56.15553665161133,-1.962876319885254,-2.7269577980041504,0.41387176513671875,2229.117135286331
D4:22:CD:00:05:5D,148.1079559326172,-43.15143585205078,-84.69143676757812,-0.6830940246582031,-2.1797375679016113,-5.248823165893555,2229.146143913269
D4:22:CD:00:05:6B,-29.63042640686035,-15.30466079711914,14.859769821166992,-3.5201406478881836,17.29745864868164,-10.494613647460938,2229.146143913269
D4:22:CD:00:49:AA,-159.54327392578125,-74.57835388183594,97.87217712402344,3.404674530029297,3.2010622024536133,1.7272872924804688,2229.146143913269
D4:22:CD:00:05:6E,-131.27102661132812,-83.38871002197266,-70.3636703491211,-1.4459335803985596,2.933899402618408,0.541961669921875,2229.146143913269
D4:22:CD:00:05:5E,-96.86666870117188,-81.83812713623047,-66.7143325805664,0.927425742149353,-3.5452828407287598,-1.3245325088500977,2229.146143913269
D4:22:CD:00:05:5D,154.86209106445312,-32.29758071899414,-92.0501480102539,-3.4337058067321777,-5.172609329223633,-15.240232467651367,2229.1765756607056
D4:22:CD:00:05:6B,-45.47709655761719,-19.385894775390625,26.28032875061035,2.3712387084960938,2.491215229034424,11.167387008666992,2229.1765756607056
D4:22:CD:00:49:AA,-159.9442596435547,-75.07872772216797,99.01167297363281,-0.12347167730331421,1.557126760482788,-0.8661985397338867,2229.1765756607056
D4:22:CD:00:05:6E,-114.57270050048828,-83.73887634277344,-78.48612213134766,-1.6880252361297607,-0.8614275455474854,-0.9679059982299805,2229.1765756607056
D4:22:CD:00:05:5E,-89.20024108886719,-82.78914642333984,-72.32962799072266,1.557673454284668,-5.322195053100586,-3.8658361434936523,2229.1765756607056
D4:22:CD:00:05:5D,161.43228149414062,-25.441722869873047,-97.04361724853516,-4.78978157043457,1.455260992050171,-5.231361389160156,2229.20610499382
D4:22:CD:00:05:6B,-49.281524658203125,-21.724201202392578,31.208866119384766,-2.901533603668213,6.0572919845581055,1.9975719451904297,2229.20610499382
D4:22:CD:00:49:AA,-160.11170959472656,-76.21348571777344,100.05667114257812,0.7450895309448242,1.0410358905792236,-5.346242904663086,2229.20610499382
D4:22:CD:00:05:6E,-102.51539611816406,-83.91523742675781,-83.62358093261719,-4.240261077880859,-5.74281120300293,-4.013713836669922,2229.20610499382
D4:22:CD:00:05:5E,-99.08905029296875,-82.43924713134766,-61.2701530456543,2.4360504150390625,-4.786198616027832,-3.5213279724121094,2229.20610499382
D4:22:CD:00:05:5D,163.57054138183594,-24.24299430847168,-100.80409240722656,-9.15989875793457,-8.125337600708008,-13.557456970214844,2229.2371044158936
D4:22:CD:00:05:6B,-52.99836349487305,-23.647581100463867,32.02726364135742,-4.362661361694336,0.27374351024627686,0.5066986083984375,2229.2371044158936
D4:22:CD:00:49:AA,-160.9723663330078,-76.94523620605469,102.68421936035156,1.4712729454040527,1.7878496646881104,-7.459170341491699,2229.2371044158936
D4:22:CD:00:05:6E,-102.1310806274414,-84.50360107421875,-83.19115447998047,-0.8282070159912109,-1.961784839630127,-4.919404983520508,2229.2371044158936
D4:22:CD:00:05:5E,-121.18585968017578,-79.47821044921875,-40.18044662475586,-0.19119533896446228,-3.008880138397217,-1.4462318420410156,2229.2371044158936
D4:22:CD:00:05:5D,161.5183563232422,-28.55843734741211,-102.17683410644531,-10.304243087768555,-14.529043197631836,-16.328369140625,2229.267111301422
D4:22:CD:00:05:6B,-55.31950759887695,-27.44698143005371,31.688016891479492,-1.015974998474121,-4.857671737670898,-2.7497124671936035,2229.267111301422
D4:22:CD:00:49:AA,-161.49671936035156,-76.81021118164062,104.95252990722656,2.170039176940918,2.2062926292419434,-7.254151344299316,2229.267111301422
D4:22:CD:00:05:6E,-107.94137573242188,-86.44103240966797,-81.33771514892578,-0.8832463026046753,-4.3865814208984375,-5.974991798400879,2229.267111301422
D4:22:CD:00:05:5E,-136.28472900390625,-72.52446746826172,-29.664884567260742,1.5131964683532715,-3.029726028442383,-2.7236523628234863,2229.267111301422
D4:22:CD:00:05:5D,163.80299377441406,-34.91474914550781,-100.53218841552734,-0.6524655818939209,-4.367097854614258,15.85474967956543,2229.2966532707214
D4:22:CD:00:05:6B,-53.366905212402344,-35.37197494506836,32.195613861083984,3.1865310668945312,-2.355922222137451,-6.030244827270508,2229.2966532707214
D4:22:CD:00:49:AA,-161.68411254882812,-76.10755920410156,105.52198028564453,5.207855224609375,2.0863633155822754,-3.849724292755127,2229.2966532707214
D4:22:CD:00:05:6E,145.92453002929688,-89.7545166015625,19.2202091217041,1.240539789199829,-2.79807186126709,-4.771081924438477,2229.2966532707214
D4:22:CD:00:05:5E,-144.96563720703125,-65.39813232421875,-26.802631378173828,-0.37227731943130493,-9.748340606689453,-3.6828250885009766,2229.2966532707214
D4:22:CD:00:05:5D,172.36056518554688,-36.90205383300781,-98.69297790527344,-5.067734718322754,-18.75156021118164,-0.7628135681152344,2229.3566551208496
D4:22:CD:00:05:6B,-49.18995666503906,-47.68891143798828,32.963478088378906,8.009941101074219,7.459270477294922,3.4852237701416016,2229.3566551208496
D4:22:CD:00:49:AA,-158.62171936035156,-76.94229888916016,100.78282165527344,-1.3089454174041748,-0.4307677745819092,-2.9550681114196777,2229.3566551208496
D4:22:CD:00:05:6E,61.81694030761719,-84.41710662841797,101.73111724853516,3.361401081085205,-2.223844051361084,-2.0692977905273438,2229.3566551208496
D4:22:CD:00:05:5E,-148.0079345703125,-61.827186584472656,-23.9780216217041,-0.9601471424102783,-0.9740734100341797,2.8212156295776367,2229.3566551208496
D4:22:CD:00:05:5D,175.00135803222656,-36.489891052246094,-96.2635498046875,-14.049814224243164,-15.59957504272461,10.886425018310547,2229.3862025737762
D4:22:CD:00:05:6B,-38.16386032104492,-58.745262145996094,27.353784561157227,11.351921081542969,18.11495590209961,25.058589935302734,2229.3862025737762
D4:22:CD:00:49:AA,-157.74388122558594,-76.46554565429688,99.63695526123047,-6.762363433837891,-4.29177188873291,1.783590316772461,2229.3862025737762
D4:22:CD:00:05:6E,55.76798629760742,-76.82166290283203,108.77079772949219,4.425172805786133,-7.76896858215332,6.990564346313477,2229.3862025737762
D4:22:CD:00:05:5E,-150.65481567382812,-59.46506881713867,-21.680368423461914,-0.11335767805576324,-4.896551132202148,0.8076963424682617,2229.3862025737762
D4:22:CD:00:05:5D,169.30197143554688,-30.79580307006836,-94.17575073242188,-3.4540467262268066,-20.672096252441406,14.883659362792969,2229.4162011146545
D4:22:CD:00:05:6B,-33.91088104248047,-60.68044662475586,21.646427154541016,24.343746185302734,14.006050109863281,5.0621538162231445,2229.4162011146545
D4:22:CD:00:49:AA,-162.3402099609375,-74.32147979736328,104.59556579589844,4.71229362487793,-0.5083937644958496,9.926054000854492,2229.4162011146545
D4:22:CD:00:05:6E,54.57883834838867,-66.70700073242188,114.46588134765625,2.4484996795654297,-3.616128444671631,18.451557159423828,2229.4162011146545
D4:22:CD:00:05:5E,-152.50729370117188,-58.22346496582031,-20.118141174316406,-1.3223774433135986,-3.3332691192626953,1.0377197265625,2229.4162011146545
D4:22:CD:00:05:5D,163.95443725585938,-22.078805923461914,-92.34886932373047,2.888864517211914,-16.224693298339844,13.788253784179688,2229.4462015628815
D4:22:CD:00:05:6B,-52.869720458984375,-53.19171905517578,27.770984649658203,21.984859466552734,3.2939863204956055,11.349319458007812,2229.4462015628815
D4:22:CD:00:49:AA,-164.09780883789062,-72.93502044677734,106.66181945800781,2.5273613929748535,2.7759127616882324,2.660954475402832,2229.4462015628815
D4:22:CD:00:05:6E,60.28340148925781,-53.224159240722656,114.85624694824219,1.1416418552398682,-9.19256591796875,24.567733764648438,2229.4462015628815
D4:22:CD:00:05:5E,-153.68701171875,-58.07771301269531,-19.340425491333008,-1.3822522163391113,-3.799001693725586,0.6745433807373047,2229.4462015628815
D4:22:CD:00:05:5D,161.58523559570312,-13.575559616088867,-91.74256134033203,-4.562077522277832,-12.349210739135742,12.740137100219727,2229.476227045059
D4:22:CD:00:05:6B,-61.330284118652344,-43.081661224365234,27.922019958496094,12.677122116088867,-0.01191854476928711,10.33169937133789,2229.476227045059
D4:22:CD:00:49:AA,-166.59194946289062,-72.30949401855469,109.1190414428711,2.2187137603759766,4.936151504516602,6.791202545166016,2229.476227045059
D4:22:CD:00:05:6E,61.487030029296875,-36.35001754760742,113.15994262695312,6.352792739868164,-2.381133556365967,13.735603332519531,2229.476227045059
D4:22:CD:00:05:5E,-154.27114868164062,-59.17180633544922,-19.400476455688477,-1.461164951324463,-4.198207855224609,0.7518415451049805,2229.476227045059
D4:22:CD:00:05:5D,160.68185424804688,-6.575652122497559,-92.22935485839844,-3.7926321029663086,-2.083749294281006,3.44027042388916,2229.506762981415
D4:22:CD:00:05:6B,-65.02165222167969,-37.223915100097656,23.766876220703125,10.122066497802734,-0.18258428573608398,-0.15056991577148438,2229.506762981415
D4:22:CD:00:49:AA,-170.85299682617188,-71.36634826660156,112.08324432373047,6.712588310241699,3.5157313346862793,9.714485168457031,2229.506762981415
D4:22:CD:00:05:6E,57.737693786621094,-17.407737731933594,111.0506820678711,11.64512825012207,2.1165266036987305,10.385982513427734,2229.506762981415
D4:22:CD:00:05:5E,-154.62017822265625,-61.72063446044922,-20.218873977661133,-1.4125652313232422,-3.725602149963379,2.471482276916504,2229.506762981415
D4:22:CD:00:05:5D,161.02528381347656,-2.7821784019470215,-93.22332763671875,-4.15077018737793,4.353275299072266,-4.742697715759277,2229.5367612838745
D4:22:CD:00:05:6B,-71.79884338378906,-36.122215270996094,18.127180099487305,4.512247085571289,-3.1801867485046387,3.11551570892334,2229.5367612838745
D4:22:CD:00:49:AA,-174.07366943359375,-71.5192642211914,113.34877014160156,5.409014701843262,4.639621734619141,7.365461349487305,2229.5367612838745
D4:22:CD:00:05:6E,49.69102478027344,2.4765987396240234,110.83346557617188,5.245370864868164,4.613687515258789,10.519964218139648,2229.5367612838745
D4:22:CD:00:05:5E,-153.52220153808594,-66.34930419921875,-22.719524383544922,-1.6758344173431396,-5.507386207580566,3.686415672302246,2229.5367612838745
D4:22:CD:00:05:5D,161.02964782714844,-3.04915714263916,-94.3115234375,-3.5946412086486816,5.540702819824219,-11.399734497070312,2229.5667777061462
D4:22:CD:00:05:6B,-77.6906967163086,-41.204689025878906,11.320968627929688,-1.5469892024993896,0.32927727699279785,5.429557800292969,2229.5667777061462
D4:22:CD:00:49:AA,-177.88284301757812,-71.63169860839844,114.93730163574219,1.7311255931854248,3.0770630836486816,8.521757125854492,2229.5667777061462
D4:22:CD:00:05:6E,38.58408737182617,20.217615127563477,110.73798370361328,-0.15909919142723083,6.350099563598633,5.658780097961426,2229.5667777061462
D4:22:CD:00:05:5E,-145.11221313476562,-73.76693725585938,-30.85580062866211,8.101375579833984,-6.11953067779541,11.090694427490234,2229.5667777061462
D4:22:CD:00:05:5D,158.682373046875,-7.645873546600342,-95.40522766113281,-4.233027458190918,3.665313243865967,-16.061519622802734,2229.596319437027
D4:22:CD:00:05:6B,-85.2708740234375,-50.89710998535156,5.680671691894531,-3.3925046920776367,3.038306713104248,6.121131896972656,2229.596319437027
D4:22:CD:00:49:AA,178.36520385742188,-72.60372161865234,116.64156341552734,0.5051732063293457,-0.03815455734729767,1.905156135559082,2229.596319437027
D4:22:CD:00:05:6E,28.2970027923584,34.20503616333008,110.33309173583984,-2.068481922149658,4.0562591552734375,1.1327238082885742,2229.596319437027
D4:22:CD:00:05:5E,-118.35626220703125,-79.1619873046875,-51.23486328125,-3.8080010414123535,-5.102321624755859,-0.12689971923828125,2229.596319437027
D4:22:CD:00:05:5D,155.55528259277344,-16.295499801635742,-95.8538818359375,-4.846562385559082,-2.9323673248291016,-21.133724212646484,2229.6563744544983
D4:22:CD:00:05:6B,-93.5157699584961,-62.07855987548828,1.743384838104248,-5.274815559387207,2.2562365531921387,3.0334253311157227,2229.6563744544983
D4:22:CD:00:49:AA,174.78225708007812,-73.42240905761719,119.25174713134766,1.9093549251556396,0.6040210723876953,-5.850247383117676,2229.6563744544983
D4:22:CD:00:05:6E,21.976163864135742,44.63554763793945,108.57596588134766,-4.032961845397949,-0.9815459251403809,-2.604635715484619,2229.6563744544983
D4:22:CD:00:05:5E,-110.72636413574219,-78.62814331054688,-57.77585220336914,-9.095788955688477,-1.2862234115600586,-6.021092414855957,2229.6563744544983
D4:22:CD:00:05:5D,153.0987091064453,-27.887226104736328,-94.92155456542969,-6.01008415222168,-7.131561279296875,-17.39431381225586,2229.6859526634216
D4:22:CD:00:05:6B,-102.47592163085938,-72.7330093383789,0.8348841667175293,-5.050886154174805,2.074765205383301,-3.182677745819092,2229.6859526634216
D4:22:CD:00:49:AA,171.3293914794922,-73.3366470336914,121.63911437988281,0.6314632892608643,-0.5652683973312378,-8.274459838867188,2229.6859526634216
D4:22:CD:00:05:6E,17.451644897460938,52.074337005615234,105.3474349975586,-3.0414066314697266,-2.5424094200134277,-4.972897529602051,2229.6859526634216
D4:22:CD:00:05:5E,-120.64395141601562,-76.03858947753906,-53.91484069824219,3.519597053527832,-2.847510814666748,-9.606300354003906,2229.6859526634216
D4:22:CD:00:05:5D,150.9319610595703,-41.11134338378906,-92.22828674316406,-3.652453899383545,-6.5849809646606445,-10.121667861938477,2229.716944217682
D4:22:CD:00:05:6B,-122.90521240234375,-81.22250366210938,11.425153732299805,-4.92364501953125,1.7926416397094727,-6.856549263000488,2229.716944217682
D4:22:CD:00:49:AA,167.85403442382812,-74.08263397216797,123.56965637207031,-0.5362343788146973,1.4927749633789062,-8.467206954956055,2229.716944217682
D4:22:CD:00:05:6E,16.970354080200195,57.05409240722656,102.07744598388672,-0.7030028104782104,-3.900635242462158,-7.05817985534668,2229.716944217682
D4:22:CD:00:05:5E,-125.46376037597656,-74.8888931274414,-56.78411865234375,-8.586313247680664,-3.778487205505371,-6.187312126159668,2229.716944217682
D4:22:CD:00:05:5D,148.74546813964844,-55.5219612121582,-87.60257720947266,-0.33347195386886597,-4.189517974853516,-1.7110481262207031,2229.7460396289825
D4:22:CD:00:05:6B,170.0113067626953,-85.1124038696289,71.09319305419922,-5.346962928771973,4.499671936035156,-9.186214447021484,2229.7460396289825
D4:22:CD:00:49:AA,161.44007873535156,-75.93230438232422,127.02468872070312,1.2662928104400635,2.6073546409606934,-8.890199661254883,2229.7460396289825
D4:22:CD:00:05:6E,22.93440055847168,59.502410888671875,101.5306167602539,-1.6039388179779053,-3.169625759124756,-8.345268249511719,2229.7460396289825
D4:22:CD:00:05:5E,-128.94000244140625,-74.05949401855469,-56.69904327392578,-3.5720510482788086,-4.3761491775512695,-6.535517692565918,2229.7460396289825
D4:22:CD:00:05:5D,141.10067749023438,-70.7730484008789,-76.43405151367188,3.4253740310668945,-2.1824584007263184,8.242973327636719,2229.7770717144012
D4:22:CD:00:05:6B,119.78643798828125,-79.89321899414062,120.84857177734375,-3.687938690185547,3.0631494522094727,-9.416801452636719,2229.7770717144012
D4:22:CD:00:49:AA,154.05819702148438,-77.445556640625,130.8528289794922,0.38704270124435425,1.0778353214263916,-8.708009719848633,2229.7770717144012
D4:22:CD:00:05:6E,33.93610763549805,59.53520202636719,106.57313537597656,-3.241699695587158,-0.14314872026443481,-9.727579116821289,2229.7770717144012
D4:22:CD:00:05:5E,-129.6681671142578,-73.80721282958984,-55.66486358642578,-1.1656029224395752,-4.027265548706055,-5.355191230773926,2229.7770717144012
D4:22:CD:00:05:5D,93.38021850585938,-81.34078979492188,-21.188125610351562,11.158714294433594,12.934398651123047,15.41523551940918,2229.806941986084
D4:22:CD:00:05:6B,112.41187286376953,-72.3788070678711,129.52854919433594,-2.8596982955932617,4.020280838012695,-5.913298606872559,2229.806941986084
D4:22:CD:00:49:AA,153.3300323486328,-77.71086883544922,129.79623413085938,-0.8903685808181763,-0.8347195386886597,-3.984586238861084,2229.806941986084
D4:22:CD:00:05:6E,48.612117767333984,56.71044921875,117.76798248291016,-3.877257823944092,2.3669886589050293,-12.529485702514648,2229.806941986084
D4:22:CD:00:05:5E,-132.84420776367188,-72.12505340576172,-53.165733337402344,2.662907123565674,-3.1800732612609863,-2.734381675720215,2229.806941986084
D4:22:CD:00:05:5D,49.27756118774414,-76.01506042480469,30.211877822875977,-3.160818576812744,28.12906265258789,-4.577947616577148,2229.836941242218
D4:22:CD:00:05:6B,110.01605987548828,-65.57084655761719,131.8523406982422,-3.104537010192871,4.7344560623168945,-4.281211853027344,2229.836941242218
D4:22:CD:00:49:AA,156.51437377929688,-78.64535522460938,126.94635009765625,-0.36374717950820923,-1.398524284362793,-2.0238423347473145,2229.836941242218
D4:22:CD:00:05:6E,68.04780578613281,49.93077850341797,131.42507934570312,-6.375371932983398,3.252894401550293,-23.633628845214844,2229.836941242218
D4:22:CD:00:05:5E,-137.75254821777344,-68.68052673339844,-50.19270324707031,4.266707420349121,-5.290268898010254,1.3796453475952148,2229.836941242218
D4:22:CD:00:05:5D,44.625267028808594,-75.20197296142578,29.289112091064453,9.639907836914062,18.395034790039062,-8.310365676879883,2229.866956949234
D4:22:CD:00:05:6B,106.98515319824219,-60.399696350097656,133.47286987304688,-3.6950154304504395,4.522671699523926,-3.22721004486084,2229.866956949234
D4:22:CD:00:49:AA,161.06861877441406,-79.520751953125,124.81668090820312,2.4666643142700195,-4.012472152709961,-2.4632816314697266,2229.866956949234
D4:22:CD:00:05:6E,81.50898742675781,40.47960662841797,141.12559509277344,-29.385292053222656,10.555130004882812,-14.582170486450195,2229.866956949234
D4:22:CD:00:05:5E,-140.6392822265625,-64.96867370605469,-49.172664642333984,2.4494681358337402,-6.052516937255859,6.183140754699707,2229.866956949234
D4:22:CD:00:05:5D,76.71894073486328,-76.49744415283203,-0.2499503195285797,18.781780242919922,1.4131827354431152,4.5162553787231445,2229.8964879512787
D4:22:CD:00:05:6B,102.46429443359375,-58.199920654296875,133.7021026611328,-4.188291549682617,5.999351501464844,-2.9196906089782715,2229.8964879512787
D4:22:CD:00:49:AA,165.51278686523438,-79.65616607666016,121.89803314208984,5.854485511779785,2.2678747177124023,6.709981918334961,2229.8964879512787
D4:22:CD:00:05:6E,98.15235900878906,43.07013702392578,141.7640380859375,8.93891716003418,-9.718088150024414,-7.601336479187012,2229.8964879512787
D4:22:CD:00:05:5E,-138.23155212402344,-62.277076721191406,-51.280513763427734,2.3851141929626465,-5.044946670532227,4.841240882873535,2229.8964879512787
D4:22:CD:00:05:5D,105.37444305419922,-75.41555786132812,-23.719465255737305,0.4720808267593384,-11.870050430297852,8.693456649780273,2229.956488132477
D4:22:CD:00:05:6B,99.11824035644531,-58.588897705078125,132.05316162109375,-4.391106605529785,8.497480392456055,-1.0408391952514648,2229.956488132477
D4:22:CD:00:49:AA,168.3120880126953,-79.78227233886719,119.52881622314453,8.015279769897461,0.11613374948501587,7.581172943115234,2229.956488132477
D4:22:CD:00:05:6E,102.63551330566406,55.04045867919922,126.91536712646484,-23.52690887451172,10.911897659301758,4.308450698852539,2229.956488132477
D4:22:CD:00:05:5E,-133.98350524902344,-60.430179595947266,-55.931583404541016,-0.3634588122367859,-3.960587978363037,5.410503387451172,2229.956488132477
D4:22:CD:00:05:5D,116.15986633300781,-75.68644714355469,-36.293975830078125,14.983404159545898,-10.833427429199219,0.7951879501342773,2229.9870340824127
D4:22:CD:00:05:6B,106.44649505615234,-58.08607482910156,129.06124877929688,-4.597066879272461,14.492494583129883,0.698333740234375,2229.9870340824127
D4:22:CD:00:49:AA,170.1290740966797,-79.68647003173828,118.55830383300781,3.4916930198669434,0.690324068069458,2.1339826583862305,2229.9870340824127
D4:22:CD:00:05:6E,73.76992797851562,64.66437530517578,87.28140258789062,-12.197872161865234,13.602319717407227,-20.58629608154297,2229.9870340824127
D4:22:CD:00:05:5E,-125.02593231201172,-60.805030822753906,-64.08296966552734,5.279014587402344,-13.802013397216797,-0.5777149200439453,2229.9870340824127
D4:22:CD:00:05:5D,131.6920928955078,-74.44622802734375,-49.99359893798828,-18.11255645751953,-0.8423532247543335,12.313800811767578,2230.017038822174
D4:22:CD:00:05:6B,121.67058563232422,-57.25445556640625,127.74064636230469,-4.826743125915527,8.521411895751953,6.721824645996094,2230.017038822174
D4:22:CD:00:49:AA,170.25807189941406,-78.75373840332031,119.61461639404297,1.8435182571411133,-0.09311738610267639,-0.5484085083007812,2230.017038822174
D4:22:CD:00:05:6E,40.7066535949707,59.75541305541992,45.518978118896484,-3.8065285682678223,2.425630569458008,-8.576814651489258,2230.017038822174
D4:22:CD:00:05:5E,-109.45048522949219,-61.141578674316406,-70.89356994628906,-8.13493537902832,-14.144168853759766,-5.466152191162109,2230.017038822174
D4:22:CD:00:05:5D,144.8442840576172,-73.52005004882812,-59.83348846435547,-3.719818115234375,3.2610206604003906,-0.24451065063476562,2230.0460381507874
D4:22:CD:00:05:6B,132.78883361816406,-58.51766586303711,125.93618774414062,4.836272239685059,-0.6370220184326172,10.86570930480957,2230.0460381507874
D4:22:CD:00:49:AA,172.81689453125,-76.31854248046875,119.52188110351562,-4.843536376953125,-2.40675687789917,-0.5171451568603516,2230.0460381507874
D4:22:CD:00:05:6E,29.50318717956543,47.27859878540039,25.511024475097656,3.251206874847412,-1.2972614765167236,-1.6247577667236328,2230.0460381507874
D4:22:CD:00:05:5E,-97.7978515625,-60.32471466064453,-68.86724090576172,-34.29486846923828,-22.350933074951172,-2.0483851432800293,2230.0460381507874
D4:22:CD:00:05:5D,155.7864990234375,-73.26520538330078,-68.89356994628906,1.758251428604126,0.8805068731307983,1.6516571044921875,2230.0771474838257
D4:22:CD:00:05:6B,140.65289306640625,-60.92470169067383,121.40369415283203,3.7007832527160645,2.259972095489502,-2.3132686614990234,2230.0771474838257
D4:22:CD:00:49:AA,178.26734924316406,-74.7026138305664,119.9416732788086,-9.715591430664062,-2.4633078575134277,-1.1984891891479492,2230.0771474838257
D4:22:CD:00:05:6E,27.141948699951172,36.26816177368164,15.581950187683105,12.772302627563477,-13.390008926391602,2.616156578063965,2230.0771474838257
D4:22:CD:00:05:5E,-103.59459686279297,-57.647117614746094,-51.03108215332031,-15.634233474731445,-25.150188446044922,-1.054703712463379,2230.0771474838257
D4:22:CD:00:05:5D,162.34864807128906,-72.94796752929688,-76.09260559082031,2.944599151611328,0.20716196298599243,0.38057708740234375,2230.106682538986
D4:22:CD:00:05:6B,153.49891662597656,-63.92324447631836,116.24315643310547,3.825063705444336,-1.492016077041626,-2.154417037963867,2230.106682538986
D4:22:CD:00:49:AA,-179.2336883544922,-73.69546508789062,121.09691619873047,0.9053839445114136,2.0246973037719727,2.8380260467529297,2230.106682538986
D4:22:CD:00:05:6E,34.92594528198242,30.674455642700195,11.499794960021973,18.051048278808594,-22.62438201904297,8.204063415527344,2230.106682538986
D4:22:CD:00:05:5E,-117.83211517333984,-53.01301956176758,-29.056421279907227,-0.23590368032455444,-10.328170776367188,-5.72714900970459,2230.106682538986
D4:22:CD:00:05:5D,167.6627197265625,-72.90775299072266,-80.96353149414062,-0.7806673049926758,0.948013186454773,1.2923364639282227,2230.136682033539
D4:22:CD:00:05:6B,164.02101135253906,-66.46485137939453,109.66948699951172,2.9248385429382324,-2.510345935821533,4.0483903884887695,2230.136682033539
D4:22:CD:00:49:AA,179.87474060058594,-73.10964965820312,121.92311096191406,1.025735855102539,2.4818015098571777,4.238677024841309,2230.136682033539
D4:22:CD:00:05:6E,54.178932189941406,29.53701400756836,13.771952629089355,-1.4136829376220703,-5.8072052001953125,1.1259660720825195,2230.136682033539
D4:22:CD:00:05:5E,-130.49549865722656,-48.03739547729492,-10.82656192779541,5.286287307739258,-2.8059229850769043,-10.789201736450195,2230.136682033539
D4:22:CD:00:05:5D,172.29022216796875,-73.63044738769531,-85.81832122802734,-1.381347417831421,0.7592871189117432,1.0279169082641602,2230.166696548462
D4:22:CD:00:05:6B,167.8832550048828,-69.14220428466797,103.30734252929688,-4.694183349609375,1.7937557697296143,6.574916839599609,2230.166696548462
D4:22:CD:00:49:AA,177.6416473388672,-72.74968719482422,124.70343780517578,-6.560305595397949,-0.10181908309459686,3.054666519165039,2230.166696548462
D4:22:CD:00:05:6E,68.2460708618164,28.554353713989258,17.192432403564453,-5.832337379455566,7.360373497009277,4.994915962219238,2230.166696548462
D4:22:CD:00:05:5E,-141.7053680419922,-44.28645706176758,2.597482681274414,4.327691078186035,4.304006576538086,-11.169591903686523,2230.166696548462
D4:22:CD:00:05:5D,177.08901977539062,-74.76508331298828,-91.96683502197266,-2.351884365081787,0.13098886609077454,0.7438230514526367,2230.196231842041
D4:22:CD:00:05:6B,175.02587890625,-73.3498764038086,92.33516693115234,-5.035367965698242,0.37469911575317383,4.725245475769043,2230.196231842041
D4:22:CD:00:49:AA,174.7969512939453,-72.68827819824219,127.18567657470703,-4.948963165283203,0.8118371963500977,0.01906299591064453,2230.196231842041
D4:22:CD:00:05:6E,79.86300659179688,26.49655532836914,19.507583618164062,-3.8709373474121094,-0.19375374913215637,-2.3530173301696777,2230.196231842041
D4:22:CD:00:05:5E,-151.251953125,-42.65470886230469,11.931675910949707,3.4986138343811035,7.157713890075684,-9.539623260498047,2230.196231842041
D4:22:CD:00:05:5D,-177.58938598632812,-75.51373291015625,-98.70890045166016,0.04148288816213608,-0.6798691749572754,-0.4558429718017578,2230.256232738495
D4:22:CD:00:05:6B,-165.8865966796875,-77.21495819091797,68.67137908935547,-3.532498836517334,1.7326173782348633,1.3457202911376953,2230.256232738495
D4:22:CD:00:49:AA,173.2615966796875,-72.9474105834961,129.13084411621094,0.07844343781471252,1.429572582244873,-3.994112491607666,2230.256232738495
D4:22:CD:00:05:6E,92.67912292480469,20.955650329589844,20.61004066467285,-1.2028014659881592,4.230197906494141,-1.8965249061584473,2230.256232738495
D4:22:CD:00:05:5E,-159.58607482910156,-43.608055114746094,18.730234146118164,5.93766975402832,6.262484550476074,-3.056868076324463,2230.256232738495
D4:22:CD:00:05:5D,-174.42208862304688,-75.43904876708984,-102.71456146240234,0.6912670135498047,-1.4688823223114014,-1.1447505950927734,2230.2867846488953
D4:22:CD:00:05:6B,-134.1520538330078,-78.24535369873047,31.833541870117188,-3.405003547668457,4.423704147338867,-2.343705654144287,2230.2867846488953
D4:22:CD:00:49:AA,168.79588317871094,-73.10010528564453,132.93798828125,0.9172155857086182,1.7192909717559814,-5.3643388748168945,2230.2867846488953
D4:22:CD:00:05:6E,100.64034271240234,10.455904960632324,19.5573787689209,4.072084426879883,4.8839921951293945,-2.922199249267578,2230.2867846488953
D4:22:CD:00:05:5E,-162.859375,-47.42875289916992,22.634855270385742,8.509479522705078,12.055315017700195,-2.799698829650879,2230.2867846488953
D4:22:CD:00:05:5D,-176.8436737060547,-73.6368408203125,-100.830078125,0.9500645399093628,-5.239570617675781,-1.7440118789672852,2230.3167781829834
D4:22:CD:00:05:6B,-106.66941833496094,-75.39884185791016,-0.11749444901943207,-1.6389718055725098,1.320239782333374,-6.07437801361084,2230.3167781829834
D4:22:CD:00:49:AA,161.30885314941406,-72.70423889160156,138.73085021972656,1.071991205215454,-0.8019460439682007,-6.1606597900390625,2230.3167781829834
D4:22:CD:00:05:6E,102.4881362915039,-4.395482063293457,15.990342140197754,10.084714889526367,3.265172004699707,-0.027953147888183594,2230.3167781829834
D4:22:CD:00:05:5E,-162.52638244628906,-53.33859634399414,22.95980453491211,0.645850658416748,8.858366012573242,-1.1509370803833008,2230.3167781829834
D4:22:CD:00:05:5D,177.5958251953125,-69.95006561279297,-92.70673370361328,0.7124863862991333,-3.725233554840088,-0.9403314590454102,2230.3467779159546
D4:22:CD:00:05:6B,-92.83346557617188,-70.26734161376953,-17.807567596435547,-1.9600260257720947,0.699588418006897,-8.331777572631836,2230.3467779159546
D4:22:CD:00:49:AA,153.19842529296875,-71.75454711914062,145.092529296875,-0.8407907485961914,-1.3864943981170654,-7.579343795776367,2230.3467779159546
D4:22:CD:00:05:6E,95.04412078857422,-22.406269073486328,12.241530418395996,11.148134231567383,3.965665340423584,5.337167739868164,2230.3467779159546
D4:22:CD:00:05:5E,-161.55996704101562,-53.10011672973633,22.612459182739258,-3.6681275367736816,-8.976358413696289,11.938360214233398,2230.3467779159546
D4:22:CD:00:05:5D,172.7480010986328,-65.1310043334961,-82.75402069091797,1.7549455165863037,-2.3468856811523438,-4.415963172912598,2230.3767926692963
D4:22:CD:00:05:6B,-85.58252716064453,-64.20953369140625,-27.13031005859375,-1.275463342666626,0.8209822177886963,-8.795507431030273,2230.3767926692963
D4:22:CD:00:49:AA,146.7974395751953,-70.45320892333984,150.81405639648438,-1.4502546787261963,0.5305681228637695,-5.634647369384766,2230.3767926692963
D4:22:CD:00:05:6E,74.66085815429688,-39.63238525390625,11.109146118164062,14.798845291137695,2.5275301933288574,9.178306579589844,2230.3767926692963
D4:22:CD:00:05:5E,-170.20669555664062,-52.054542541503906,21.72031593322754,8.552459716796875,6.439762115478516,1.9792709350585938,2230.3767926692963
D4:22:CD:00:05:5D,172.94708251953125,-59.899959564208984,-76.39373016357422,1.1765246391296387,4.839845657348633,-1.5173835754394531,2230.4069674015045
D4:22:CD:00:05:6B,-84.0318832397461,-56.88453674316406,-32.406002044677734,-1.8705463409423828,1.8797218799591064,-5.580080032348633,2230.4069674015045
D4:22:CD:00:49:AA,141.68360900878906,-69.70835876464844,156.58863830566406,-1.6870720386505127,1.4892873764038086,-0.05589008331298828,2230.4069674015045
D4:22:CD:00:05:6E,52.35600662231445,-47.681640625,14.380157470703125,20.312286376953125,-6.361895561218262,-4.125716209411621,2230.4069674015045
D4:22:CD:00:05:5E,-169.58802795410156,-54.04923629760742,18.81048583984375,17.47793197631836,3.7153639793395996,6.887563705444336,2230.4069674015045
D4:22:CD:00:05:5D,173.4068145751953,-55.14531707763672,-73.51779174804688,8.10776138305664,-0.8893823623657227,3.5795516967773438,2230.43696141243
D4:22:CD:00:05:6B,-82.49658203125,-48.119667053222656,-36.165061950683594,-5.8999128341674805,2.140259265899658,1.4772262573242188,2230.43696141243
D4:22:CD:00:49:AA,137.95606994628906,-69.76029968261719,161.05966186523438,0.5464926958084106,-0.3079896569252014,4.891631126403809,2230.43696141243
D4:22:CD:00:05:6E,51.90400314331055,-47.74506378173828,15.593673706054688,19.54556655883789,-6.274240493774414,1.1942567825317383,2230.43696141243
D4:22:CD:00:05:5E,-167.8815460205078,-52.58891296386719,16.955486297607422,11.386688232421875,2.1170387268066406,11.494421005249023,2230.43696141243
D4:22:CD:00:05:5D,173.86129760742188,-51.951698303222656,-72.52743530273438,-3.0459933280944824,3.0479788780212402,0.22603321075439453,2230.4659819602966
D4:22:CD:00:05:6B,-80.27948760986328,-37.46758270263672,-38.06966781616211,-5.497846603393555,6.231269836425781,3.9959821701049805,2230.4659819602966
D4:22:CD:00:49:AA,137.96652221679688,-68.83177947998047,161.47120666503906,0.10509489476680756,0.962602972984314,8.047952651977539,2230.4659819602966
D4:22:CD:00:05:6E,66.10865020751953,-43.20761489868164,16.637392044067383,18.26272964477539,9.523202896118164,5.769014358520508,2230.4659819602966
D4:22:CD:00:05:5E,-163.95230102539062,-47.34243392944336,15.598479270935059,20.222915649414062,-3.952232837677002,19.357101440429688,2230.4659819602966
