Device,EulerX,EulerY,EulerZ,FreeAccX,FreeAccY,FreeAccZ,Timestamp
D4:22:CD:00:05:5D,177.97207641601562,-59.69049072265625,-125.6267318725586,-0.36314862966537476,1.8998723030090332,3.5789852142333984,1368.5039699077606
D4:22:CD:00:05:6B,26.12220573425293,27.84808921813965,-19.542530059814453,-11.131105422973633,-7.603649139404297,0.8356113433837891,1368.5039699077606
D4:22:CD:00:49:AA,141.28273010253906,-73.87326049804688,154.8438262939453,-4.753884315490723,-0.7831788063049316,4.064408302307129,1368.5039699077606
D4:22:CD:00:05:6E,135.97911071777344,-66.84877014160156,25.213743209838867,-8.011693954467773,-9.45060920715332,-3.4179420471191406,1368.5039699077606
D4:22:CD:00:05:5E,-166.80352783203125,-22.09096908569336,34.16352844238281,1.0089831352233887,6.084223747253418,-4.514065742492676,1368.5039699077606
D4:22:CD:00:05:5D,179.7578887939453,-65.27265167236328,-129.2520294189453,-0.4221917986869812,1.4826807975769043,6.198272705078125,1368.5119862556458
D4:22:CD:00:05:6B,33.580753326416016,30.601682662963867,-11.3841552734375,-8.334766387939453,0.7571918964385986,-5.497714042663574,1368.5119862556458
D4:22:CD:00:49:AA,148.34278869628906,-75.10244750976562,150.7741241455078,-2.440640449523926,-0.7329717874526978,1.5694026947021484,1368.5119862556458
D4:22:CD:00:05:6E,131.8251953125,-72.9730453491211,35.3291130065918,-5.062443733215332,-7.520295143127441,-8.46739387512207,1368.5119862556458
D4:22:CD:00:05:5E,-164.26622009277344,-32.34050750732422,31.492393493652344,1.0640997886657715,4.691561698913574,-5.251051902770996,1368.5119862556458
D4:22:CD:00:05:6B,36.17279815673828,32.91704177856445,-12.052815437316895,-1.5607788562774658,-3.7130298614501953,-10.370075225830078,1368.5169820785522
D4:22:CD:00:49:AA,161.48565673828125,-74.98430633544922,141.21495056152344,-0.26034611463546753,1.9809200763702393,-2.0620570182800293,1368.5169820785522
D4:22:CD:00:05:6E,121.39146423339844,-76.00733947753906,51.589759826660156,-3.824166774749756,-6.056726455688477,-9.626043319702148,1368.5169820785522
D4:22:CD:00:05:5E,-163.72628784179688,-42.94237518310547,28.441978454589844,-0.3583836555480957,2.2568697929382324,-2.4733471870422363,1368.5169820785522
D4:22:CD:00:05:5D,168.53150939941406,-75.2998046875,-101.8096694946289,-0.7105921506881714,2.2282543182373047,-1.6896982192993164,1368.5212273597717
D4:22:CD:00:49:AA,172.95297241210938,-74.51704406738281,131.06507873535156,0.5070250034332275,1.085313081741333,-5.326704025268555,1368.5212273597717
D4:22:CD:00:05:6E,113.04107666015625,-75.86990356445312,65.06439971923828,-2.637817859649658,-5.542209625244141,-13.230445861816406,1368.5212273597717
D4:22:CD:00:05:5E,-162.6612091064453,-53.34856414794922,24.126705169677734,-4.426322937011719,-0.8765380382537842,2.7397823333740234,1368.5212273597717
D4:22:CD:00:05:5D,178.21371459960938,-50.44123458862305,-98.34820556640625,-0.6365724802017212,3.8973007202148438,2.2731218338012695,1368.525227546692
D4:22:CD:00:05:6B,-53.29029846191406,17.91769027709961,-56.14344024658203,16.49559783935547,-1.3709635734558105,29.182327270507812,1368.525227546692
D4:22:CD:00:49:AA,140.2925262451172,-78.58751678466797,148.44264221191406,-0.33740127086639404,-0.283282995223999,13.91558837890625,1368.525227546692
D4:22:CD:00:05:6E,103.67240142822266,-82.86507415771484,43.62413024902344,-5.777310371398926,5.231816291809082,16.17774200439453,1368.525227546692
D4:22:CD:00:05:5D,-178.389892578125,-48.94646453857422,-100.22917175292969,-2.0282130241394043,1.2855806350708008,2.939175605773926,1368.5373530387878
D4:22:CD:00:05:6B,-24.03268051147461,21.365001678466797,-43.87624740600586,3.750782012939453,-16.88648223876953,29.024333953857422,1368.5373530387878
D4:22:CD:00:49:AA,160.7711639404297,-79.4126205444336,127.94497680664062,4.3355302810668945,-0.9549382925033569,11.669363021850586,1368.5373530387878
D4:22:CD:00:05:6E,172.99720764160156,-73.20581817626953,-14.96026611328125,-1.5265004634857178,-2.710113048553467,12.134086608886719,1368.5373530387878
D4:22:CD:00:05:5E,176.11428833007812,-69.07466888427734,-19.769859313964844,8.214746475219727,-6.220746994018555,24.07968521118164,1368.5373530387878
D4:22:CD:00:05:5D,-176.699462890625,-50.21134567260742,-100.40290832519531,-1.5982239246368408,-0.38793933391571045,3.481222152709961,1368.592598438263
D4:22:CD:00:05:6B,-2.4797849655151367,19.09626579284668,-32.984710693359375,-8.293853759765625,-4.766138076782227,10.190481185913086,1368.592598438263
D4:22:CD:00:49:AA,159.43218994140625,-76.68518829345703,129.08749389648438,-2.5671629905700684,-3.3507909774780273,8.868305206298828,1368.592598438263
D4:22:CD:00:05:6E,-165.90126037597656,-71.78575897216797,-24.64755630493164,-4.148947715759277,-9.596492767333984,3.944782257080078,1368.592598438263
D4:22:CD:00:05:5E,-168.91285705566406,-84.57707977294922,-32.11955261230469,-4.824227333068848,-4.795380592346191,9.878866195678711,1368.592598438263
D4:22:CD:00:05:5D,-175.39488220214844,-53.38834762573242,-100.74395751953125,-0.8704863786697388,0.6256614923477173,1.9808311462402344,1368.622200012207
D4:22:CD:00:05:6B,11.356343269348145,19.059677124023438,-25.7022705078125,-19.272979736328125,-8.271625518798828,1.5008211135864258,1368.622200012207
D4:22:CD:00:49:AA,169.0775604248047,-75.60702514648438,121.32455444335938,-2.3130297660827637,0.8348188400268555,6.027196884155273,1368.622200012207
D4:22:CD:00:05:6E,-147.96484375,-72.34635162353516,-34.39934539794922,-6.088788032531738,-11.405820846557617,-0.31664466857910156,1368.622200012207
D4:22:CD:00:05:5E,125.7432632446289,-85.36629486083984,29.07442855834961,4.93768310546875,0.06463603675365448,6.0061798095703125,1368.622200012207
D4:22:CD:00:05:5D,-173.5963592529297,-58.45649719238281,-102.0989990234375,-3.673771381378174,-1.0650205612182617,4.635822296142578,1368.6613383293152
D4:22:CD:00:05:6B,23.479328155517578,22.97049903869629,-23.552284240722656,-11.381893157958984,-5.717528343200684,-3.282606601715088,1368.6613383293152
D4:22:CD:00:49:AA,-174.52442932128906,-75.68897247314453,109.2428970336914,-1.9431326389312744,1.9050912857055664,4.721287727355957,1368.6613383293152
D4:22:CD:00:05:6E,-122.4727783203125,-71.50153350830078,-50.59919357299805,-4.594463348388672,-16.63726806640625,-2.6180648803710938,1368.6613383293152
D4:22:CD:00:05:5E,46.927608489990234,-83.28765106201172,110.2380142211914,-1.0624232292175293,6.518671035766602,1.1824016571044922,1368.6613383293152
D4:22:CD:00:05:5D,-171.8970184326172,-66.37435913085938,-102.97692108154297,-7.0505571365356445,-1.7375409603118896,8.445070266723633,1368.6878108978271
D4:22:CD:00:05:6B,32.331485748291016,30.32184600830078,-25.573823928833008,-5.780240058898926,0.13564682006835938,-10.685354232788086,1368.6878108978271
D4:22:CD:00:49:AA,-154.83799743652344,-74.50978088378906,95.84101104736328,1.3786935806274414,1.3041043281555176,3.302922248840332,1368.6878108978271
D4:22:CD:00:05:6E,-98.85769653320312,-68.15715789794922,-63.432884216308594,-3.254584789276123,-12.574495315551758,-2.702605724334717,1368.6878108978271
D4:22:CD:00:05:5E,18.143802642822266,-76.13232421875,141.38807678222656,-2.205383777618408,5.347980499267578,-3.3487343788146973,1368.6878108978271
D4:22:CD:00:05:5D,-168.7146453857422,-76.2188720703125,-110.88954162597656,-1.0809216499328613,-10.67167854309082,5.747001647949219,1368.7168147563934
D4:22:CD:00:05:6B,35.86927032470703,37.898773193359375,-31.791866302490234,0.3557121753692627,3.5635838508605957,-9.479410171508789,1368.7168147563934
D4:22:CD:00:49:AA,-141.03521728515625,-73.02210235595703,87.090087890625,1.2711589336395264,-0.27656126022338867,-2.5659255981445312,1368.7168147563934
D4:22:CD:00:05:6E,-81.2004165649414,-63.76410675048828,-67.12702178955078,0.18193086981773376,-11.626779556274414,-5.015700340270996,1368.7168147563934
D4:22:CD:00:05:5E,8.981633186340332,-67.53413391113281,150.5037841796875,-3.2403950691223145,4.156559944152832,-7.255191802978516,1368.7168147563934
D4:22:CD:00:05:5D,-169.22193908691406,-81.6671142578125,-113.02184295654297,5.536466598510742,10.762983322143555,-8.441598892211914,1368.7474808692932
D4:22:CD:00:05:6B,34.429012298583984,45.07242965698242,-42.503700256347656,0.8906089067459106,-4.063431739807129,-11.60932731628418,1368.7474808692932
D4:22:CD:00:49:AA,-135.012451171875,-71.47101593017578,83.87033081054688,2.729975700378418,1.2926805019378662,-10.568601608276367,1368.7474808692932
D4:22:CD:00:05:6E,-68.38245391845703,-61.59675216674805,-66.64739990234375,1.2677323818206787,-8.551782608032227,-9.614116668701172,1368.7474808692932
D4:22:CD:00:05:5E,0.12196900695562363,-59.1989860534668,154.53257751464844,-3.9660511016845703,8.940534591674805,-10.710290908813477,1368.7474808692932
D4:22:CD:00:05:5D,177.8451385498047,-80.38517761230469,-97.02448272705078,10.520326614379883,4.972119331359863,-7.060813903808594,1368.7774813175201
D4:22:CD:00:05:6B,29.47665786743164,51.61529541015625,-60.66313171386719,4.089882850646973,2.2882208824157715,-11.294139862060547,1368.7774813175201
D4:22:CD:00:49:AA,-134.7197265625,-70.55652618408203,84.22335815429688,2.4413986206054688,0.10277427732944489,-12.119804382324219,1368.7774813175201
D4:22:CD:00:05:6E,-59.685020446777344,-62.78068161010742,-65.34735870361328,2.5501961708068848,-6.9443769454956055,-11.94375991821289,1368.7774813175201
D4:22:CD:00:05:5E,-8.515446662902832,-50.40317153930664,157.13555908203125,-9.07204818725586,5.972850799560547,-10.292118072509766,1368.7774813175201
D4:22:CD:00:05:5D,173.9221954345703,-76.3267822265625,-89.98711395263672,1.6362755298614502,-1.2809512615203857,-9.234027862548828,1368.8072354793549
D4:22:CD:00:05:6B,7.641645431518555,51.81642532348633,-86.39102172851562,11.791967391967773,4.468111038208008,-17.4012451171875,1368.8072354793549
D4:22:CD:00:49:AA,-132.91403198242188,-71.06239318847656,82.77888488769531,1.196690320968628,-0.11133760213851929,-9.526840209960938,1368.8072354793549
D4:22:CD:00:05:6E,-54.47023010253906,-66.21771240234375,-65.10589599609375,2.374624252319336,-5.380321502685547,-10.673641204833984,1368.8072354793549
D4:22:CD:00:05:5E,-17.163827896118164,-42.967960357666016,158.23822021484375,-15.128362655639648,3.959226608276367,-13.72854232788086,1368.8072354793549
D4:22:CD:00:05:5D,172.10043334960938,-73.99097442626953,-90.24293518066406,1.1525585651397705,-3.3299479484558105,-9.695150375366211,1368.8376665115356
D4:22:CD:00:05:6B,-22.504173278808594,42.05802917480469,-109.5456314086914,-5.7974443435668945,-17.157520294189453,-32.5753173828125,1368.8376665115356
D4:22:CD:00:49:AA,-130.20741271972656,-72.42615509033203,80.2851333618164,-0.6086524724960327,1.5220222473144531,-7.52614688873291,1368.8376665115356
D4:22:CD:00:05:6E,-48.63461685180664,-70.58943176269531,-67.84121704101562,2.9669108390808105,-4.425116539001465,-9.310981750488281,1368.8376665115356
D4:22:CD:00:05:5E,-24.593175888061523,-38.728153228759766,159.48744201660156,-10.571832656860352,8.412775039672852,-16.98249053955078,1368.8376665115356
D4:22:CD:00:05:5D,172.73851013183594,-74.45964050292969,-95.96533966064453,-3.6002655029296875,18.625141143798828,-2.859936237335205,1368.8676612377167
D4:22:CD:00:05:6B,-43.79740524291992,29.822521209716797,-118.21844482421875,-15.630378723144531,-5.885953903198242,-18.650325775146484,1368.8676612377167
D4:22:CD:00:49:AA,-125.86882781982422,-73.99081420898438,75.8348617553711,-0.48408758640289307,1.735048770904541,-6.270650863647461,1368.8676612377167
D4:22:CD:00:05:6E,-40.33036804199219,-75.19852447509766,-74.2363510131836,2.2999119758605957,-3.7517051696777344,-9.146652221679688,1368.8676612377167
D4:22:CD:00:05:5E,-25.223173141479492,-36.727073669433594,160.7729949951172,-9.277238845825195,6.913333892822266,-17.641494750976562,1368.8676612377167
D4:22:CD:00:05:5D,170.56915283203125,-72.76541137695312,-96.38484191894531,-3.8182458877563477,-8.86555290222168,-3.91579532623291,1368.9231841564178
D4:22:CD:00:05:6B,-54.985172271728516,32.254478454589844,-110.88090515136719,-16.102401733398438,-6.555680274963379,15.17108154296875,1368.9231841564178
D4:22:CD:00:49:AA,-119.26911926269531,-75.92324829101562,70.27153015136719,-1.7680776119232178,-1.4021549224853516,-6.484617233276367,1368.9231841564178
D4:22:CD:00:05:6E,-27.856395721435547,-79.9776382446289,-84.84468841552734,2.9272828102111816,-4.08636474609375,-7.327763557434082,1368.9231841564178
D4:22:CD:00:05:5E,-25.087310791015625,-37.6939582824707,163.4905242919922,-11.332853317260742,2.6192970275878906,-20.756755828857422,1368.9231841564178
D4:22:CD:00:05:5D,167.74609375,-70.73362731933594,-90.98883056640625,-5.040975570678711,-8.26108169555664,1.9251213073730469,1368.9574530124664
D4:22:CD:00:05:6B,-43.81674575805664,36.603477478027344,-102.8124008178711,-1.7313182353973389,-3.0481600761413574,-10.448827743530273,1368.9574530124664
D4:22:CD:00:49:AA,-118.72550201416016,-77.15958404541016,70.48472595214844,-2.9479594230651855,-1.2115402221679688,-3.5475893020629883,1368.9574530124664
D4:22:CD:00:05:6E,-4.332206726074219,-84.35021209716797,-105.35128784179688,7.527179718017578,-3.285266399383545,-3.8329315185546875,1368.9574530124664
D4:22:CD:00:05:5E,-28.3112735748291,-42.37392044067383,168.27598571777344,-14.041177749633789,2.2811975479125977,-15.32562255859375,1368.9574530124664
D4:22:CD:00:05:5D,166.12547302246094,-67.26654815673828,-83.59992980957031,6.9304046630859375,-6.450798988342285,2.542226791381836,1368.9875502586365
D4:22:CD:00:05:6B,-31.743154525756836,43.580570220947266,-84.00456237792969,-3.7241969108581543,-13.651531219482422,-16.722949981689453,1368.9875502586365
D4:22:CD:00:49:AA,-124.00007629394531,-77.0257797241211,73.7597885131836,0.32665032148361206,1.815830945968628,2.3153085708618164,1368.9875502586365
D4:22:CD:00:05:6E,40.53590393066406,-85.71084594726562,-147.2433624267578,10.501663208007812,-3.5128026008605957,0.4081535339355469,1368.9875502586365
D4:22:CD:00:05:5E,-36.563472747802734,-50.628334045410156,176.06480407714844,-22.814754486083984,-0.6011885404586792,-16.447399139404297,1368.9875502586365
D4:22:CD:00:05:5D,163.05282592773438,-64.33016204833984,-77.61993408203125,2.840066432952881,1.3939824104309082,4.510890007019043,1369.0176515579224
D4:22:CD:00:05:6B,-13.661995887756348,45.09840393066406,-59.95682907104492,-0.0783543586730957,-12.90168571472168,-13.131507873535156,1369.0176515579224
D4:22:CD:00:49:AA,-127.53459167480469,-77.78215026855469,73.48381805419922,1.4274210929870605,0.8836624622344971,7.406116485595703,1369.0176515579224
D4:22:CD:00:05:6E,66.51022338867188,-85.13748168945312,-171.37527465820312,10.282218933105469,-2.909350872039795,1.2612371444702148,1369.0176515579224
D4:22:CD:00:05:5E,-52.64657211303711,-59.788124084472656,-170.90711975097656,0.560932993888855,-15.6842041015625,19.38858413696289,1369.0176515579224
D4:22:CD:00:05:5D,157.5186309814453,-63.315032958984375,-72.443115234375,-2.414006233215332,1.610717535018921,4.34602165222168,1369.0664916038513
D4:22:CD:00:05:6B,1.8994632959365845,40.978267669677734,-41.76954650878906,3.9617667198181152,0.04086792469024658,-1.055511474609375,1369.0664916038513
D4:22:CD:00:49:AA,-127.6681900024414,-78.99768829345703,70.24028778076172,-4.839367866516113,-3.175473213195801,7.259243011474609,1369.0664916038513
D4:22:CD:00:05:6E,94.11507415771484,-85.29563903808594,161.28648376464844,13.54865837097168,-1.5988941192626953,2.4409351348876953,1369.0664916038513
D4:22:CD:00:05:5E,-45.00934982299805,-62.90012741088867,-170.8541717529297,7.444277763366699,-20.304275512695312,6.741783142089844,1369.0664916038513
D4:22:CD:00:05:5D,150.94776916503906,-63.800987243652344,-66.32666015625,-1.0046014785766602,-2.0297164916992188,4.444302558898926,1369.0975830554962
D4:22:CD:00:05:6B,6.403407096862793,35.74412536621094,-29.76832389831543,-2.2979354858398438,5.365354537963867,6.56334114074707,1369.0975830554962
D4:22:CD:00:49:AA,-122.50457000732422,-79.73700714111328,64.39281463623047,-3.2844419479370117,-2.0630459785461426,4.206514358520508,1369.0975830554962
D4:22:CD:00:05:6E,133.3079376220703,-84.2780990600586,116.20668029785156,14.594718933105469,-2.714143753051758,4.385704040527344,1369.0975830554962
D4:22:CD:00:05:5E,-50.80125427246094,-66.05428314208984,-168.70494079589844,-4.521950721740723,-2.041478157043457,18.51171112060547,1369.0975830554962
D4:22:CD:00:05:5D,143.5796356201172,-64.29293060302734,-60.57975387573242,4.335121154785156,-5.363256454467773,4.7031097412109375,1369.1071298122406
D4:22:CD:00:05:6B,5.86982536315918,30.46819305419922,-21.44243812561035,-3.839958667755127,8.374942779541016,9.270406723022461,1369.1071298122406
D4:22:CD:00:49:AA,-120.92410278320312,-79.59101867675781,62.42609786987305,6.387826919555664,1.1967942714691162,0.700739860534668,1369.1071298122406
D4:22:CD:00:05:6E,143.9156036376953,-81.3331298828125,86.9947509765625,7.344382286071777,-1.737499475479126,7.166660308837891,1369.1071298122406
D4:22:CD:00:05:5E,-61.426002502441406,-69.06724548339844,-162.4149932861328,-1.9942564964294434,6.558539390563965,5.437564849853516,1369.1071298122406
D4:22:CD:00:05:5D,133.47447204589844,-64.95850372314453,-56.22010040283203,9.008363723754883,-3.0592966079711914,0.6468524932861328,1369.1375179290771
D4:22:CD:00:05:6B,-1.0500493049621582,25.95048713684082,-15.03951644897461,-1.1992168426513672,27.113323211669922,10.042837142944336,1369.1375179290771
D4:22:CD:00:49:AA,-125.45519256591797,-77.72221374511719,65.04359436035156,11.59351921081543,-0.9114748239517212,-0.09414291381835938,1369.1375179290771
D4:22:CD:00:05:6E,131.05963134765625,-78.1261215209961,78.14974975585938,-4.831629753112793,4.506033897399902,2.666937828063965,1369.1375179290771
D4:22:CD:00:05:5E,-63.328338623046875,-71.42467498779297,-160.35972595214844,-9.31142807006836,0.6599831581115723,-6.5095319747924805,1369.1375179290771
D4:22:CD:00:05:5D,129.34693908691406,-64.30998229980469,-62.593467712402344,8.249469757080078,9.883476257324219,4.203195571899414,1369.1676676273346
D4:22:CD:00:05:6B,-21.636632919311523,22.617204666137695,-12.699480056762695,-5.897141456604004,21.155868530273438,-5.992215156555176,1369.1676676273346
D4:22:CD:00:49:AA,-131.63609313964844,-76.75724029541016,66.6935043334961,6.917922019958496,1.9300384521484375,-3.7827720642089844,1369.1676676273346
D4:22:CD:00:05:6E,122.17972564697266,-74.5604476928711,75.20012664794922,-4.459842681884766,3.990727424621582,-1.4450035095214844,1369.1676676273346
D4:22:CD:00:05:5E,-66.44097137451172,-73.08576965332031,-158.2608184814453,-6.173372268676758,-0.5313470363616943,0.16898822784423828,1369.1676676273346
D4:22:CD:00:05:5D,133.4413299560547,-59.54877853393555,-74.97779083251953,15.092872619628906,11.410585403442383,5.017857551574707,1369.2274687290192
D4:22:CD:00:05:6B,-35.9369010925293,18.47570037841797,-14.147950172424316,-3.7897229194641113,-3.359687328338623,3.032350540161133,1369.2274687290192
D4:22:CD:00:49:AA,-137.96002197265625,-76.63520812988281,68.11905670166016,1.5524091720581055,-0.3498342037200928,0.9287624359130859,1369.2274687290192
D4:22:CD:00:05:6E,117.58168029785156,-71.8056411743164,74.26704406738281,-4.737574577331543,0.3098418712615967,-1.4740219116210938,1369.2274687290192
D4:22:CD:00:05:5E,-72.49116516113281,-73.86370849609375,-153.99110412597656,-5.774852752685547,-0.18895629048347473,-1.379404067993164,1369.2274687290192
D4:22:CD:00:05:5D,141.89437866210938,-51.4554328918457,-87.37812042236328,7.502721786499023,7.542862892150879,4.376202583312988,1369.2575590610504
D4:22:CD:00:05:6B,-41.183250427246094,14.089775085449219,-14.777653694152832,-3.6679320335388184,5.365920066833496,0.7121610641479492,1369.2575590610504
D4:22:CD:00:49:AA,-143.66957092285156,-76.28654479980469,71.51747131347656,-0.18978619575500488,1.5970001220703125,2.69464111328125,1369.2575590610504
D4:22:CD:00:05:6E,115.07787322998047,-70.39025115966797,75.14410400390625,-4.896130561828613,-0.13627630472183228,0.6630525588989258,1369.2575590610504
D4:22:CD:00:05:5E,-74.20099639892578,-74.31580352783203,-152.74269104003906,-4.83969783782959,0.023027420043945312,0.5317783355712891,1369.2575590610504
D4:22:CD:00:05:5D,148.67633056640625,-41.820865631103516,-97.53541564941406,2.2065229415893555,1.9083223342895508,-2.488387107849121,1369.2875561714172
D4:22:CD:00:05:6B,-47.722900390625,9.630234718322754,-12.932684898376465,-0.13974463939666748,3.2265233993530273,3.1238746643066406,1369.2875561714172
D4:22:CD:00:49:AA,-147.54669189453125,-76.06450653076172,74.0215072631836,4.043581008911133,2.755157470703125,-1.1552133560180664,1369.2875561714172
D4:22:CD:00:05:6E,112.2151870727539,-69.40804290771484,77.8102798461914,-2.727952003479004,-2.295884132385254,0.9970693588256836,1369.2875561714172
D4:22:CD:00:05:5E,-67.95296478271484,-74.84380340576172,-157.66244506835938,-5.100677490234375,0.5442957878112793,-1.5009469985961914,1369.2875561714172
D4:22:CD:00:05:5D,154.90945434570312,-32.09449005126953,-105.3233642578125,-3.358630657196045,0.006190749816596508,-8.037826538085938,1369.347446680069
D4:22:CD:00:05:6B,-46.46329116821289,6.8662428855896,-11.930737495422363,4.068132400512695,1.6495599746704102,12.055179595947266,1369.347446680069
D4:22:CD:00:49:AA,-151.4593048095703,-75.69859313964844,76.74433135986328,1.7662041187286377,0.7974352836608887,-1.4979171752929688,1369.347446680069
D4:22:CD:00:05:6E,106.60749053955078,-68.00779724121094,82.29914093017578,0.3937417268753052,0.42930805683135986,-0.5379514694213867,1369.347446680069
D4:22:CD:00:05:5E,-68.09527587890625,-75.12075805664062,-156.8507537841797,-4.492197036743164,-1.1867613792419434,-2.162938117980957,1369.347446680069
D4:22:CD:00:05:5D,160.7182159423828,-23.69353485107422,-111.03410339355469,-3.7289538383483887,-0.39955419301986694,-11.20411491394043,1369.3567357063293
D4:22:CD:00:05:6B,-42.024253845214844,6.075969219207764,-11.526718139648438,2.2117061614990234,11.165822982788086,-3.117949962615967,1369.3567357063293
D4:22:CD:00:49:AA,-153.5027618408203,-75.39537048339844,78.90357208251953,-2.097135066986084,-0.2555045485496521,-3.6120710372924805,1369.3567357063293
D4:22:CD:00:05:6E,99.67424774169922,-66.06292724609375,88.50830841064453,1.3077070713043213,1.260460376739502,-2.9745397567749023,1369.3567357063293
D4:22:CD:00:05:5E,-76.87425994873047,-74.94709777832031,-147.7416229248047,-4.118053436279297,-2.616781234741211,-4.916725158691406,1369.3567357063293
D4:22:CD:00:05:5D,164.15892028808594,-18.336345672607422,-115.93444061279297,-9.012144088745117,-2.0934505462646484,-10.50836181640625,1369.3782675266266
D4:22:CD:00:05:6B,-43.741783142089844,4.868061542510986,-10.035454750061035,-0.9841177463531494,5.709710121154785,-4.744731903076172,1369.3782675266266
D4:22:CD:00:49:AA,-154.28903198242188,-75.39632415771484,80.51607513427734,-0.5792534351348877,1.2262194156646729,-6.700442314147949,1369.3782675266266
D4:22:CD:00:05:6E,92.3516616821289,-63.79465866088867,94.99687194824219,2.5226407051086426,3.0358285903930664,-6.048946380615234,1369.3782675266266
D4:22:CD:00:05:5E,-90.58306884765625,-74.30266571044922,-134.57540893554688,-6.097071647644043,-4.294011116027832,-3.4769811630249023,1369.3782675266266
D4:22:CD:00:05:5D,163.1104736328125,-17.04605484008789,-119.23763275146484,-9.943302154541016,-3.8350319862365723,-14.359130859375,1369.4073133468628
D4:22:CD:00:05:6B,-45.51983642578125,2.0156383514404297,-8.637750625610352,-3.9399304389953613,2.660675525665283,-7.135246276855469,1369.4073133468628
D4:22:CD:00:49:AA,-153.97645568847656,-75.22420501708984,80.73309326171875,4.824068069458008,2.7105941772460938,-5.309887886047363,1369.4073133468628
D4:22:CD:00:05:6E,88.71263122558594,-61.73179626464844,100.74089813232422,3.595914363861084,4.196569442749023,-8.052913665771484,1369.4073133468628
D4:22:CD:00:05:5E,-104.12374877929688,-72.6300277709961,-120.79513549804688,-2.414196014404297,2.59820556640625,-0.8589687347412109,1369.4073133468628
D4:22:CD:00:05:5D,162.53952026367188,-19.888858795166016,-120.11259460449219,-12.60883903503418,-8.027091979980469,-12.155214309692383,1369.4377279281616
D4:22:CD:00:05:6B,-49.602291107177734,-4.290022373199463,-7.544950008392334,-8.089179992675781,2.961533546447754,-18.479373931884766,1369.4377279281616
D4:22:CD:00:49:AA,-152.71865844726562,-74.5464096069336,78.55623626708984,9.055429458618164,2.0904483795166016,-1.115830421447754,1369.4377279281616
D4:22:CD:00:05:6E,90.60389709472656,-60.3016242980957,106.11334991455078,6.10884952545166,2.774909496307373,-6.821184158325195,1369.4377279281616
D4:22:CD:00:05:5E,-115.36434173583984,-70.0042724609375,-110.40843963623047,-6.4467267990112305,-1.343315601348877,-0.0459136962890625,1369.4377279281616
D4:22:CD:00:05:5D,162.86279296875,-20.36077880859375,-120.06417846679688,-10.899295806884766,-3.6735315322875977,33.74131774902344,1369.4924211502075
D4:22:CD:00:05:6B,-54.660430908203125,-16.903959274291992,-6.7818803787231445,-0.944652795791626,-7.710548400878906,-8.758674621582031,1369.4924211502075
D4:22:CD:00:49:AA,-153.02906799316406,-74.28807830810547,75.97257995605469,5.183385848999023,-0.7892827987670898,2.213864326477051,1369.4924211502075
D4:22:CD:00:05:6E,96.96530151367188,-59.083187103271484,111.71578979492188,8.109352111816406,-8.86212158203125,4.654475212097168,1369.4924211502075
D4:22:CD:00:05:5E,-121.13492584228516,-67.38480377197266,-105.18407440185547,-6.941675186157227,0.24866798520088196,-0.9181880950927734,1369.4924211502075
D4:22:CD:00:05:5D,165.15554809570312,-18.67698860168457,-117.53099060058594,-17.67917251586914,-12.059127807617188,13.722394943237305,1369.5271792411804
D4:22:CD:00:05:6B,-42.17930221557617,-38.277339935302734,-9.657116889953613,20.327289581298828,-1.7398738861083984,7.231420516967773,1369.5271792411804
D4:22:CD:00:49:AA,-155.52671813964844,-73.40204620361328,74.08660888671875,-0.5749068260192871,-3.0967516899108887,4.547014236450195,1369.5271792411804
D4:22:CD:00:05:6E,92.49935913085938,-56.33987808227539,114.94194793701172,14.962818145751953,-18.27904510498047,25.706581115722656,1369.5271792411804
D4:22:CD:00:05:5E,-123.41224670410156,-65.29280853271484,-103.74687194824219,-6.391470909118652,1.0530321598052979,0.16394805908203125,1369.5271792411804
D4:22:CD:00:05:5D,165.6797637939453,-13.616470336914062,-114.96207427978516,-6.741903305053711,-16.076953887939453,14.42567253112793,1369.5567348003387
D4:22:CD:00:05:6B,-25.410533905029297,-55.532108306884766,-21.00270652770996,35.163978576660156,1.5130929946899414,42.78776550292969,1369.5567348003387
D4:22:CD:00:49:AA,-159.21017456054688,-72.33655548095703,74.6871337890625,-2.287403106689453,-0.7084202766418457,8.367181777954102,1369.5567348003387
D4:22:CD:00:05:6E,82.61680603027344,-47.92977523803711,114.56922912597656,13.676786422729492,2.831775188446045,27.931941986083984,1369.5567348003387
D4:22:CD:00:05:5E,-123.6572036743164,-64.93244934082031,-103.92739868164062,-4.471522331237793,1.980003833770752,1.2935218811035156,1369.5567348003387
D4:22:CD:00:05:5D,165.4215087890625,-7.634079456329346,-115.0166015625,-11.059648513793945,-11.809564590454102,10.285028457641602,1369.5873425006866
D4:22:CD:00:05:6B,-36.392635345458984,-55.32857894897461,-15.107915878295898,18.406551361083984,-2.746209144592285,6.307121276855469,1369.5873425006866
D4:22:CD:00:49:AA,-161.9261474609375,-72.73680114746094,77.00902557373047,-2.9422521591186523,2.530393123626709,11.890190124511719,1369.5873425006866
D4:22:CD:00:05:6E,81.17646789550781,-33.35257339477539,111.41499328613281,15.38876724243164,4.537402153015137,25.80487060546875,1369.5873425006866
D4:22:CD:00:05:5E,-122.77875518798828,-66.39578247070312,-105.11934661865234,-6.414588928222656,1.4396896362304688,0.22694683074951172,1369.5873425006866
D4:22:CD:00:05:5D,162.84681701660156,-3.619070529937744,-116.58545684814453,-9.747697830200195,-8.134740829467773,-1.4695720672607422,1369.6173412799835
D4:22:CD:00:05:6B,-50.201988220214844,-44.145259857177734,-3.733933925628662,14.261545181274414,-1.7415962219238281,28.36648178100586,1369.6173412799835
D4:22:CD:00:49:AA,-167.07164001464844,-73.69979858398438,81.98554229736328,3.6555490493774414,3.287780284881592,8.821426391601562,1369.6173412799835
D4:22:CD:00:05:6E,79.49060821533203,-18.28972053527832,106.14012908935547,6.916415214538574,4.0007171630859375,17.059146881103516,1369.6173412799835
D4:22:CD:00:05:5E,-118.73747253417969,-68.807373046875,-110.00709533691406,-7.792314529418945,0.7984331846237183,-0.4919109344482422,1369.6173412799835
D4:22:CD:00:05:5D,163.58755493164062,-3.63928484916687,-117.36676025390625,-6.189541816711426,-2.760979652404785,-13.035419464111328,1369.6470437049866
D4:22:CD:00:05:6B,-53.89167785644531,-36.607723236083984,-1.2010740041732788,7.1002607345581055,1.7927491664886475,1.03741455078125,1369.6470437049866
D4:22:CD:00:49:AA,-174.35694885253906,-74.6020736694336,89.36759948730469,2.85906982421875,4.716403961181641,6.861473083496094,1369.6470437049866
D4:22:CD:00:05:6E,79.47703552246094,-7.672307968139648,100.48788452148438,5.402482986450195,1.1592609882354736,2.2777223587036133,1369.6470437049866
D4:22:CD:00:05:5E,-106.93219757080078,-71.23271179199219,-123.72566986083984,-8.936614990234375,-0.19102197885513306,2.1623640060424805,1369.6470437049866
D4:22:CD:00:05:5D,167.79635620117188,-9.920561790466309,-117.00019836425781,-3.7747983932495117,-3.3441858291625977,-24.352928161621094,1369.6770524978638
D4:22:CD:00:05:6B,-63.749576568603516,-35.06742858886719,-0.8706721067428589,-6.503598213195801,-0.10466313362121582,-3.6302061080932617,1369.6770524978638
D4:22:CD:00:49:AA,176.73313903808594,-74.59733581542969,97.82344055175781,3.9099416732788086,4.930174827575684,6.902034759521484,1369.6770524978638
D4:22:CD:00:05:6E,81.3357925415039,-1.8104535341262817,97.27328491210938,0.7480696439743042,-3.2374587059020996,-1.536783218383789,1369.6770524978638
D4:22:CD:00:05:5E,-70.69326782226562,-72.18927764892578,-158.88638305664062,-15.5833740234375,10.8212890625,-4.755536079406738,1369.6770524978638
D4:22:CD:00:05:5D,169.8399658203125,-23.42364501953125,-116.86836242675781,-7.443090438842773,-6.755949974060059,-23.260730743408203,1369.707043647766
D4:22:CD:00:05:6B,-72.0495834350586,-38.88465881347656,-1.6125789880752563,-11.98857307434082,2.1357803344726562,-7.542021751403809,1369.707043647766
D4:22:CD:00:49:AA,170.08648681640625,-74.07076263427734,102.95706176757812,1.1011242866516113,2.349897861480713,-3.9277868270874023,1369.707043647766
D4:22:CD:00:05:6E,78.59376525878906,2.2941973209381104,96.67054748535156,-4.483813285827637,-2.720057964324951,-0.5567693710327148,1369.707043647766
D4:22:CD:00:05:5E,-61.928138732910156,-72.9096450805664,-170.67959594726562,-26.033275604248047,17.06684112548828,-7.655540466308594,1369.707043647766
D4:22:CD:00:05:5D,166.4022979736328,-41.62773132324219,-116.99137115478516,-7.432038307189941,-4.032279968261719,-10.45267105102539,1369.7377309799194
D4:22:CD:00:05:6B,-79.03009033203125,-44.901153564453125,-1.5904909372329712,-8.049301147460938,4.431785583496094,-7.982172012329102,1369.7377309799194
D4:22:CD:00:49:AA,168.5775146484375,-73.3592300415039,102.93247985839844,1.2423877716064453,0.28204405307769775,-15.161251068115234,1369.7377309799194
D4:22:CD:00:05:6E,66.80281829833984,7.070988655090332,97.47795104980469,-9.360694885253906,-1.5353119373321533,-4.864824295043945,1369.7377309799194
D4:22:CD:00:05:5E,-77.51931762695312,-75.82379150390625,-150.26779174804688,-2.099201202392578,9.268407821655273,-1.6802854537963867,1369.7377309799194
D4:22:CD:00:05:5D,161.85594177246094,-62.8914794921875,-118.10309600830078,-3.446417808532715,-6.622824668884277,5.525543212890625,1369.792295217514
D4:22:CD:00:05:6B,-85.52928161621094,-50.65542984008789,-1.0401443243026733,-3.542424201965332,3.3918023109436035,-6.7262983322143555,1369.792295217514
D4:22:CD:00:49:AA,169.62481689453125,-72.86514282226562,101.45130157470703,-2.815150260925293,-2.589019298553467,-8.12143325805664,1369.792295217514
D4:22:CD:00:05:6E,50.067176818847656,12.613383293151855,100.62752532958984,-5.578088760375977,0.15057095885276794,-12.060531616210938,1369.792295217514
D4:22:CD:00:05:5E,-89.89166259765625,-77.58932495117188,-134.05484008789062,17.843433380126953,-18.3525390625,-11.911394119262695,1369.792295217514
D4:22:CD:00:05:5D,178.95428466796875,-84.962890625,-138.9601593017578,2.990427017211914,5.002993583679199,28.145198822021484,1369.8279650211334
D4:22:CD:00:05:6B,-93.26644897460938,-55.426822662353516,0.0272113848477602,-4.048418045043945,5.933971405029297,-2.9588427543640137,1369.8279650211334
D4:22:CD:00:49:AA,170.39207458496094,-74.13837432861328,101.11725616455078,-0.47682690620422363,2.926326274871826,-7.582197189331055,1369.8279650211334
D4:22:CD:00:05:6E,36.2499885559082,19.246902465820312,106.37013244628906,-3.182699680328369,3.554291248321533,-12.745153427124023,1369.8279650211334
D4:22:CD:00:05:5E,-67.8205337524414,-79.18659210205078,-154.49526977539062,-4.2145185470581055,-0.8956040143966675,2.9257612228393555,1369.8279650211334
D4:22:CD:00:05:5D,-25.720382690429688,-78.47046661376953,71.87801361083984,7.182202339172363,16.630420684814453,11.374488830566406,1369.8569526672363
D4:22:CD:00:05:6B,-95.48839569091797,-59.40412902832031,-1.2804805040359497,-2.733219623565674,8.30526351928711,-3.992539405822754,1369.8569526672363
D4:22:CD:00:49:AA,168.59242248535156,-74.87670135498047,102.22881317138672,2.0626959800720215,1.6534686088562012,-13.433557510375977,1369.8569526672363
D4:22:CD:00:05:6E,27.873367309570312,27.65035629272461,114.51536560058594,-1.8142504692077637,4.023602485656738,-13.102861404418945,1369.8569526672363
D4:22:CD:00:05:5E,-72.60657501220703,-79.1111068725586,-153.75228881835938,-0.03931313008069992,-0.2568405866622925,-3.6521291732788086,1369.8569526672363
D4:22:CD:00:05:5D,-11.622236251831055,-71.01473999023438,64.37384033203125,5.653794288635254,25.616519927978516,-13.200078964233398,1369.887353181839
D4:22:CD:00:05:6B,-92.64544677734375,-62.18999481201172,-7.62032413482666,1.4840161800384521,8.901918411254883,-5.098240852355957,1369.887353181839
D4:22:CD:00:49:AA,170.5560302734375,-72.80123138427734,100.3427734375,-1.319770336151123,-6.139769554138184,-3.067200183868408,1369.887353181839
D4:22:CD:00:05:6E,26.72056007385254,36.65079116821289,125.37694549560547,0.954761266708374,0.9761762619018555,-14.566619873046875,1369.887353181839
D4:22:CD:00:05:5E,-88.6986083984375,-78.27359008789062,-142.82269287109375,-7.119046211242676,-3.612654685974121,-3.4699506759643555,1369.887353181839
D4:22:CD:00:05:5D,-5.029307842254639,-71.2335205078125,56.714717864990234,8.69711685180664,8.89741325378418,-6.739361763000488,1369.9174754619598
D4:22:CD:00:05:6B,-93.24983978271484,-64.02071380615234,-16.413034439086914,-1.872553825378418,6.062180519104004,-2.50772762298584,1369.9174754619598
D4:22:CD:00:49:AA,176.40525817871094,-70.81681060791016,96.51329803466797,4.882174491882324,-1.4333994388580322,9.31248664855957,1369.9174754619598
D4:22:CD:00:05:6E,34.38117980957031,43.47638702392578,140.3575897216797,2.098567485809326,-0.8653819561004639,-13.987142562866211,1369.9174754619598
D4:22:CD:00:05:5E,-99.7091064453125,-76.68495178222656,-135.9477996826172,-6.45176887512207,-1.9912126064300537,-2.195894718170166,1369.9174754619598
D4:22:CD:00:05:5D,2.32370924949646,-74.26685333251953,46.84283447265625,5.745677947998047,6.4762067794799805,-1.8107633590698242,1369.9472517967224
D4:22:CD:00:05:6B,-90.95099639892578,-65.62166595458984,-23.74585723876953,-4.846381187438965,8.433778762817383,-0.9300403594970703,1369.9472517967224
D4:22:CD:00:49:AA,-179.38986206054688,-71.25392150878906,93.21742248535156,5.604403495788574,4.066069602966309,3.3273582458496094,1369.9472517967224
D4:22:CD:00:05:6E,51.356048583984375,45.693546295166016,159.286376953125,0.7203077077865601,-0.5496484041213989,-12.263906478881836,1369.9472517967224
D4:22:CD:00:05:5E,-99.38740539550781,-75.61092376708984,-137.22427368164062,-4.510917663574219,-0.23008757829666138,3.056154251098633,1369.9472517967224
D4:22:CD:00:05:5D,19.001426696777344,-78.23722076416016,30.638460159301758,8.53019905090332,2.06254243850708,-2.833096981048584,1370.0020654201508
D4:22:CD:00:05:6B,-87.83055877685547,-66.70021057128906,-26.596086502075195,-0.7321286201477051,7.795221328735352,-1.2219343185424805,1370.0020654201508
D4:22:CD:00:49:AA,-178.5557403564453,-72.28206634521484,91.43045806884766,1.2797081470489502,3.367741107940674,-1.2470216751098633,1370.0020654201508
D4:22:CD:00:05:6E,72.99726867675781,41.79059600830078,175.3754119873047,-1.6447155475616455,-3.5488781929016113,-9.570474624633789,1370.0020654201508
D4:22:CD:00:05:5E,-94.4990234375,-74.73432922363281,-141.9852752685547,-5.298953056335449,-2.6877899169921875,0.7181072235107422,1370.0020654201508
D4:22:CD:00:05:5D,54.82715606689453,-81.51788330078125,3.3717381954193115,4.465791702270508,-12.694028854370117,0.8269329071044922,1370.01007604599
D4:22:CD:00:05:6B,-85.4337387084961,-67.27185821533203,-26.139150619506836,-0.8175039291381836,8.559930801391602,0.7552757263183594,1370.01007604599
D4:22:CD:00:49:AA,-177.16928100585938,-72.46540832519531,89.41366577148438,1.33119535446167,1.960575819015503,2.1473751068115234,1370.01007604599
D4:22:CD:00:05:6E,101.19388580322266,40.662109375,-179.90243530273438,6.349752426147461,-3.128650188446045,-12.315828323364258,1370.01007604599
D4:22:CD:00:05:5E,-92.3156967163086,-73.10907745361328,-143.8518829345703,-6.020737648010254,-2.1662817001342773,1.7391786575317383,1370.01007604599
D4:22:CD:00:05:5D,78.92096710205078,-83.10733032226562,-17.296703338623047,-1.0099327564239502,2.304098606109619,2.898590087890625,1370.036696434021
D4:22:CD:00:05:6B,-81.91280364990234,-67.75820922851562,-24.85749626159668,2.5809717178344727,4.234949111938477,-1.0639829635620117,1370.036696434021
D4:22:CD:00:49:AA,-173.528076171875,-72.4206771850586,86.79167175292969,4.673641204833984,1.5937492847442627,3.041110038757324,1370.036696434021
D4:22:CD:00:05:6E,109.66572570800781,41.8914680480957,178.84317016601562,0.7711724042892456,-4.335636138916016,1.2396612167358398,1370.036696434021
D4:22:CD:00:05:5E,-91.86400604248047,-70.92000579833984,-143.8295440673828,-4.401867866516113,-1.6246259212493896,1.3472929000854492,1370.036696434021
D4:22:CD:00:05:5D,106.22964477539062,-84.22286987304688,-45.33192825317383,-0.07715487480163574,-10.7530517578125,5.22481632232666,1370.0671708583832
D4:22:CD:00:05:6B,-86.72101593017578,-68.27544403076172,-19.733047485351562,2.7243752479553223,2.1513190269470215,0.7916297912597656,1370.0671708583832
D4:22:CD:00:49:AA,-170.7290802001953,-71.92554473876953,84.74060821533203,3.4204306602478027,-0.6511077880859375,0.46181488037109375,1370.0671708583832
D4:22:CD:00:05:6E,114.24434661865234,44.84186553955078,176.08387756347656,5.352261543273926,-0.9987550973892212,-7.799968719482422,1370.0671708583832
D4:22:CD:00:05:5E,-89.75659942626953,-68.3955078125,-144.65460205078125,-4.860466003417969,-3.372507095336914,0.42655277252197266,1370.0671708583832
D4:22:CD:00:05:5D,139.16993713378906,-82.06733703613281,-72.95465850830078,-0.9250340461730957,1.2570428848266602,-1.6713180541992188,1370.1272187232971
D4:22:CD:00:05:6B,-95.7125473022461,-68.21776580810547,-11.524298667907715,-1.4677298069000244,6.387270927429199,5.8704729080200195,1370.1272187232971
D4:22:CD:00:49:AA,-171.21998596191406,-71.13106536865234,85.284423828125,-0.9999840259552002,-2.3330464363098145,0.9439115524291992,1370.1272187232971
D4:22:CD:00:05:6E,120.31827545166016,51.62700271606445,168.76992797851562,-9.08682632446289,-0.5908583402633667,0.24291515350341797,1370.1272187232971
D4:22:CD:00:05:5E,-89.7952651977539,-65.04412078857422,-141.94337463378906,-6.743083953857422,-5.922287940979004,1.8839435577392578,1370.1272187232971
D4:22:CD:00:05:5D,157.27926635742188,-79.63749694824219,-88.47882843017578,-4.575688362121582,4.02543830871582,0.9045858383178711,1370.1573176383972
D4:22:CD:00:05:6B,-98.54220581054688,-66.77564239501953,-5.832050800323486,-1.005793571472168,6.114316940307617,5.174310684204102,1370.1573176383972
D4:22:CD:00:49:AA,-172.72698974609375,-70.46741485595703,87.52426147460938,-6.63819694519043,0.02917603775858879,1.0138816833496094,1370.1573176383972
D4:22:CD:00:05:6E,110.70452880859375,60.31452560424805,150.30128479003906,-8.809579849243164,1.528193473815918,-9.609075546264648,1370.1573176383972
D4:22:CD:00:05:5E,-88.6344985961914,-61.31086730957031,-138.3630828857422,-9.196599960327148,-6.25936222076416,-1.789658546447754,1370.1573176383972
D4:22:CD:00:05:5D,170.23553466796875,-77.56307220458984,-101.29907989501953,-2.2622103691101074,0.7406933307647705,0.8892621994018555,1370.187834739685
D4:22:CD:00:05:6B,-94.64877319335938,-64.7874755859375,-4.203555583953857,0.6922181844711304,-0.46864885091781616,0.41423988342285156,1370.187834739685
D4:22:CD:00:49:AA,-173.7801055908203,-70.34959411621094,91.87812042236328,-5.246227264404297,-0.6983747482299805,-2.173794746398926,1370.187834739685
D4:22:CD:00:05:6E,87.0926513671875,63.34733581542969,117.62126922607422,-7.655181884765625,-3.4257893562316895,-4.252832412719727,1370.187834739685
D4:22:CD:00:05:5E,-86.89986419677734,-58.48981475830078,-133.66448974609375,-22.9783935546875,0.8795274496078491,-8.368528366088867,1370.187834739685
D4:22:CD:00:05:5D,-179.9888458251953,-75.33368682861328,-110.46400451660156,2.5857906341552734,-0.2370677888393402,0.045406341552734375,1370.2173619270325
D4:22:CD:00:05:6B,-94.746337890625,-62.557376861572266,-2.9620678424835205,1.4570105075836182,-3.3011727333068848,-2.9391283988952637,1370.2173619270325
D4:22:CD:00:49:AA,-175.31924438476562,-69.25650787353516,97.21739959716797,0.8038909435272217,-0.11730104684829712,-2.740159511566162,1370.2173619270325
D4:22:CD:00:05:6E,59.71181106567383,56.53936767578125,84.77881622314453,-3.592820644378662,-4.841774940490723,-8.572372436523438,1370.2173619270325
D4:22:CD:00:05:5E,-86.55582427978516,-56.80989074707031,-125.2251968383789,-21.084182739257812,1.2284159660339355,-4.57631778717041,1370.2173619270325
D4:22:CD:00:05:5D,-175.41552734375,-73.5056381225586,-114.44319152832031,3.310499668121338,-0.12409695982933044,0.7392349243164062,1370.2478816509247
D4:22:CD:00:05:6B,-97.52178192138672,-61.16184616088867,-1.7765742540359497,-5.098101615905762,-0.11007165908813477,1.355173110961914,1370.2478816509247
D4:22:CD:00:49:AA,-178.4722137451172,-68.21778869628906,101.90062713623047,0.7699645757675171,1.845604419708252,2.738114356994629,1370.2478816509247
D4:22:CD:00:05:6E,49.66762924194336,45.0418815612793,63.80113220214844,8.251533508300781,-3.0230021476745605,-10.22663688659668,1370.2478816509247
D4:22:CD:00:05:5E,-91.7938461303711,-55.71949768066406,-112.35235595703125,-18.005653381347656,-0.9819860458374023,-9.316617965698242,1370.2478816509247
D4:22:CD:00:05:5D,-173.93218994140625,-72.47663879394531,-115.00654602050781,0.9634619951248169,0.08901849389076233,0.5779685974121094,1370.2778811454773
D4:22:CD:00:05:6B,-96.56897735595703,-61.4047966003418,-1.9997737407684326,-2.650132656097412,-0.7955248355865479,0.6953907012939453,1370.2778811454773
D4:22:CD:00:49:AA,177.83567810058594,-67.76948547363281,106.11935424804688,-3.8921408653259277,0.6593592166900635,3.352492332458496,1370.2778811454773
D4:22:CD:00:05:6E,55.79997634887695,34.3934440612793,50.09477233886719,9.357189178466797,-2.1890416145324707,-6.864441871643066,1370.2778811454773
D4:22:CD:00:05:5E,-103.93107604980469,-54.96920394897461,-96.43093872070312,-9.560480117797852,0.15212982892990112,-10.150596618652344,1370.2778811454773
D4:22:CD:00:05:5D,-172.78155517578125,-71.84232330322266,-115.38542175292969,-1.8303992748260498,1.0086555480957031,0.7414226531982422,1370.3069787025452
D4:22:CD:00:05:6B,-97.1252212524414,-61.624473571777344,-2.226276397705078,-2.345797061920166,0.22718477249145508,0.3197603225708008,1370.3069787025452
D4:22:CD:00:49:AA,175.83740234375,-68.06019592285156,109.67706298828125,-5.9262895584106445,0.5114172697067261,1.5060882568359375,1370.3069787025452
D4:22:CD:00:05:6E,69.24031066894531,26.224220275878906,42.33512878417969,11.9317626953125,-2.6917996406555176,-3.56839656829834,1370.3069787025452
D4:22:CD:00:05:5E,-117.71583557128906,-54.16560363769531,-80.5971908569336,-3.200150489807129,1.7316348552703857,-11.263648986816406,1370.3069787025452
D4:22:CD:00:05:5D,-170.57748413085938,-71.9740219116211,-118.92904663085938,-1.578688621520996,0.574508786201477,0.2922706604003906,1370.336897611618
D4:22:CD:00:05:6B,-97.46984100341797,-61.250247955322266,-2.793837785720825,-4.560606002807617,4.160872459411621,1.9494781494140625,1370.336897611618
D4:22:CD:00:49:AA,174.29611206054688,-68.88224029541016,113.04631042480469,-2.2209763526916504,-0.22757863998413086,0.5312261581420898,1370.336897611618
D4:22:CD:00:05:6E,86.0033950805664,19.71697235107422,40.52117156982422,-0.4265533685684204,4.707840919494629,-1.588907241821289,1370.336897611618
D4:22:CD:00:05:5E,-131.8293914794922,-53.173152923583984,-66.7426528930664,-0.048284828662872314,3.7289438247680664,-10.498991012573242,1370.336897611618
D4:22:CD:00:05:5D,-169.43682861328125,-71.72378540039062,-121.71697998046875,-0.07114304602146149,-0.7164274454116821,-0.25153255462646484,1370.367326259613
D4:22:CD:00:05:6B,-92.21112060546875,-60.797706604003906,-6.551723003387451,-0.12665343284606934,5.383335113525391,-1.662583351135254,1370.367326259613
D4:22:CD:00:49:AA,170.3062286376953,-69.47953796386719,117.7024917602539,1.2809104919433594,0.6696711778640747,-2.0623645782470703,1370.367326259613
D4:22:CD:00:05:6E,97.44046020507812,13.562499046325684,40.148765563964844,0.9364573955535889,3.2090559005737305,5.397446632385254,1370.367326259613
D4:22:CD:00:05:5E,-144.37506103515625,-52.586448669433594,-55.52939987182617,0.8433654308319092,2.987858772277832,-8.387311935424805,1370.367326259613
D4:22:CD:00:05:5D,-170.66131591796875,-70.6267318725586,-121.46305847167969,1.0772292613983154,-2.1887359619140625,-0.9542512893676758,1370.4287950992584
D4:22:CD:00:05:6B,-87.74857330322266,-59.41313171386719,-13.061138153076172,0.6066280603408813,2.4382553100585938,-3.959444522857666,1370.4287950992584
D4:22:CD:00:49:AA,164.08778381347656,-70.1266860961914,123.6678695678711,0.3823270797729492,1.3769493103027344,-4.566435813903809,1370.4287950992584
D4:22:CD:00:05:6E,102.39359283447266,6.571247577667236,39.987586975097656,2.7680044174194336,1.167022943496704,-1.4914321899414062,1370.4287950992584
D4:22:CD:00:05:5E,-155.6463165283203,-52.921417236328125,-46.4169921875,-1.4015116691589355,2.1437649726867676,-4.355607986450195,1370.4287950992584
D4:22:CD:00:05:5D,-173.61996459960938,-68.48310089111328,-118.09664916992188,1.9443140029907227,-3.146394729614258,-1.3684425354003906,1370.4570434093475
D4:22:CD:00:05:6B,-83.86468505859375,-57.00947570800781,-20.626956939697266,-0.6322778463363647,1.6853954792022705,-3.9549455642700195,1370.4570434093475
D4:22:CD:00:49:AA,157.76744079589844,-70.41554260253906,129.7401123046875,-2.1618809700012207,0.321016788482666,-5.574461936950684,1370.4570434093475
D4:22:CD:00:05:6E,107.2275161743164,-2.706179141998291,40.75265884399414,3.3130226135253906,3.3773136138916016,-5.551372528076172,1370.4570434093475
D4:22:CD:00:05:5E,-163.90692138671875,-55.270545959472656,-39.00812911987305,7.491255760192871,-0.7743818759918213,-4.309602737426758,1370.4570434093475
D4:22:CD:00:05:5D,-176.84873962402344,-65.39827728271484,-113.36766052246094,1.6090145111083984,-0.5017752647399902,-1.1793622970581055,1370.4873628616333
D4:22:CD:00:05:6B,-81.49031066894531,-53.345455169677734,-27.99532699584961,0.7783019542694092,0.007386326789855957,-6.385889053344727,1370.4873628616333
D4:22:CD:00:49:AA,151.858642578125,-70.4823989868164,136.29095458984375,-1.8579487800598145,-0.7880045175552368,-5.053847312927246,1370.4873628616333
D4:22:CD:00:05:6E,110.3987808227539,-14.734567642211914,42.33195495605469,9.222955703735352,2.7852749824523926,5.149075508117676,1370.4873628616333
D4:22:CD:00:05:5E,-165.52491760253906,-60.60793685913086,-34.47696304321289,-1.568709135055542,8.716751098632812,3.353194236755371,1370.4873628616333
D4:22:CD:00:05:5D,179.4026641845703,-61.375328063964844,-108.7251205444336,0.19558700919151306,-2.042573928833008,-0.8544187545776367,1370.5173726081848
D4:22:CD:00:05:6B,-82.81221771240234,-48.914737701416016,-34.91410446166992,1.3057591915130615,-1.5197949409484863,-7.63250732421875,1370.5173726081848
D4:22:CD:00:49:AA,145.8656768798828,-70.42729187011719,142.9127655029297,-2.2336134910583496,-1.0290074348449707,-2.472972869873047,1370.5173726081848
D4:22:CD:00:05:6E,103.49764251708984,-30.1065616607666,46.833370208740234,15.499979019165039,13.98916244506836,8.909061431884766,1370.5173726081848
D4:22:CD:00:05:5E,-160.75718688964844,-64.488037109375,-32.23676681518555,-3.746370315551758,5.896820068359375,8.846040725708008,1370.5173726081848
D4:22:CD:00:05:5D,176.7841033935547,-56.79563903808594,-103.55802917480469,0.8780897855758667,0.26866745948791504,-1.5670242309570312,1370.5621981620789
D4:22:CD:00:05:6B,-85.59990692138672,-44.413673400878906,-43.190921783447266,-0.26440274715423584,4.540454864501953,-2.122471332550049,1370.5621981620789
D4:22:CD:00:49:AA,138.9669189453125,-70.97579956054688,150.8238067626953,0.07703876495361328,-0.6387456655502319,-3.5649867057800293,1370.5621981620789
D4:22:CD:00:05:6E,99.57849884033203,-44.05483627319336,49.67274856567383,16.61235809326172,16.54666519165039,14.555017471313477,1370.5621981620789
D4:22:CD:00:05:5E,-160.31744384765625,-65.6807632446289,-31.947479248046875,9.707555770874023,-5.350333213806152,1.3870267868041992,1370.5621981620789
D4:22:CD:00:05:5D,175.9861297607422,-52.787696838378906,-100.08258819580078,3.4897122383117676,-0.3066580295562744,-0.08282852172851562,1370.592429637909
D4:22:CD:00:05:6B,-86.15087127685547,-37.63949966430664,-52.50506591796875,-6.925334930419922,10.797258377075195,14.120035171508789,1370.592429637909
D4:22:CD:00:49:AA,134.16949462890625,-70.69126892089844,155.85000610351562,2.5004329681396484,1.998063564300537,-0.029626846313476562,1370.592429637909
D4:22:CD:00:05:6E,97.99583435058594,-46.2727165222168,44.130714416503906,12.844257354736328,8.948501586914062,3.2400436401367188,1370.592429637909
D4:22:CD:00:05:5E,-161.8374481201172,-66.53998565673828,-32.713104248046875,5.4912109375,0.5918347835540771,17.51819610595703,1370.592429637909
D4:22:CD:00:05:5D,175.8667449951172,-50.06276321411133,-99.1998519897461,-2.3497743606567383,2.3384499549865723,2.144280433654785,1370.60720205307
D4:22:CD:00:05:6B,-84.7265396118164,-28.24486541748047,-57.98726272583008,0.9189376831054688,20.533382415771484,8.727836608886719,1370.60720205307
D4:22:CD:00:49:AA,134.12112426757812,-70.04521942138672,155.93829345703125,-1.8730268478393555,0.4871576428413391,11.492597579956055,1370.60720205307
D4:22:CD:00:05:6E,103.94893646240234,-40.76622772216797,39.2917366027832,18.016273498535156,22.344165802001953,4.175052642822266,1370.60720205307
D4:22:CD:00:05:5E,-161.78228759765625,-64.26509094238281,-34.16843032836914,2.7953543663024902,-6.629598617553711,17.533000946044922,1370.60720205307
D4:22:CD:00:05:5D,176.7237548828125,-48.99144744873047,-99.489013671875,-1.974456548690796,1.9169435501098633,2.933112144470215,1370.6371788978577
D4:22:CD:00:05:6B,-78.01598358154297,-16.00777816772461,-58.174407958984375,-2.1295032501220703,19.744098663330078,27.369277954101562,1370.6371788978577
D4:22:CD:00:49:AA,135.70701599121094,-69.87740325927734,153.70777893066406,-1.404768943786621,-0.3128385543823242,10.806756973266602,1370.6371788978577
D4:22:CD:00:05:6E,115.04561614990234,-40.65316390991211,40.52262496948242,6.755358695983887,14.38072395324707,9.750465393066406,1370.6371788978577
D4:22:CD:00:05:5E,-158.67108154296875,-60.75198745727539,-35.23585891723633,4.772966384887695,-12.951717376708984,15.332096099853516,1370.6371788978577
D4:22:CD:00:05:5D,178.15374755859375,-49.52098083496094,-100.79598999023438,-0.0635720044374466,1.2590711116790771,1.8434925079345703,1370.692547082901
D4:22:CD:00:05:6B,-64.91120147705078,-1.9762836694717407,-53.127925872802734,1.4130353927612305,13.779827117919922,21.655372619628906,1370.692547082901
D4:22:CD:00:49:AA,138.8879852294922,-69.56903839111328,149.77369689941406,-2.613419532775879,-1.7564184665679932,10.634958267211914,1370.692547082901
D4:22:CD:00:05:6E,122.7039566040039,-49.71040344238281,38.841835021972656,-0.006816139444708824,2.987339973449707,8.931282043457031,1370.692547082901
D4:22:CD:00:05:5E,-156.041748046875,-56.67893981933594,-35.44633483886719,2.3538131713867188,-10.106491088867188,11.386924743652344,1370.692547082901
D4:22:CD:00:05:5D,179.92041015625,-51.262203216552734,-102.5794448852539,-0.6081938743591309,0.830978274345398,2.0688037872314453,1370.7270827293396
D4:22:CD:00:05:6B,-44.381160736083984,9.990387916564941,-45.74045181274414,0.7465043067932129,4.0102739334106445,12.366901397705078,1370.7270827293396
D4:22:CD:00:49:AA,140.49099731445312,-70.33638763427734,148.15805053710938,-5.094538688659668,-1.5718743801116943,10.13752555847168,1370.7270827293396
D4:22:CD:00:05:6E,137.18951416015625,-60.72428894042969,27.40937614440918,2.0268468856811523,-0.857394814491272,14.059186935424805,1370.7270827293396
D4:22:CD:00:05:5E,-157.64625549316406,-55.69438171386719,-35.349971771240234,9.164751052856445,-4.716606140136719,2.4120750427246094,1370.7270827293396
D4:22:CD:00:05:5D,-178.408447265625,-54.355186462402344,-104.05130767822266,2.001619338989258,1.2866692543029785,2.814852714538574,1370.7571904659271
D4:22:CD:00:05:6B,-21.11448097229004,16.868989944458008,-39.99600601196289,-2.0899672508239746,3.0576558113098145,3.6373138427734375,1370.7571904659271
D4:22:CD:00:49:AA,143.1345672607422,-72.28243255615234,147.66436767578125,-5.093171119689941,0.21754693984985352,4.879574775695801,1370.7571904659271
D4:22:CD:00:05:6E,165.35525512695312,-66.71845245361328,3.9957332611083984,3.6943249702453613,-7.3619794845581055,12.01321792602539,1370.7571904659271
D4:22:CD:00:05:5E,-156.5912322998047,-59.447959899902344,-37.99031066894531,4.966640472412109,-0.8731228113174438,0.8952922821044922,1370.7571904659271
