Device,EulerX,EulerY,EulerZ,FreeAccX,FreeAccY,FreeAccZ,Timestamp
D4:22:CD:00:05:5D,176.9365234375,-56.53913116455078,-148.1444854736328,-0.1985483467578888,-0.270352303981781,-0.5631475448608398,612.4103715419769
D4:22:CD:00:05:6B,-65.21735382080078,-76.03125,-67.2593765258789,-20.100021362304688,14.985330581665039,-2.01377010345459,612.4103715419769
D4:22:CD:00:49:AA,137.16116333007812,-72.45602416992188,152.84634399414062,-5.114038467407227,-1.1647319793701172,2.1719446182250977,612.4103715419769
D4:22:CD:00:05:6E,86.7552719116211,-27.300382614135742,43.67466735839844,4.010765075683594,1.9839532375335693,0.6346750259399414,612.4103715419769
D4:22:CD:00:05:5E,-143.35421752929688,-14.129584312438965,-117.93292999267578,-8.679054260253906,-12.649866104125977,-2.391541004180908,612.4103715419769
D4:22:CD:00:05:5D,176.32322692871094,-53.389617919921875,-147.19541931152344,-0.4107211232185364,0.576276421546936,-0.24843311309814453,612.4193687438965
D4:22:CD:00:05:6B,-70.29341888427734,-64.4691162109375,-65.89759063720703,-9.023567199707031,15.650762557983398,0.2309131622314453,612.4193687438965
D4:22:CD:00:49:AA,135.36997985839844,-72.13471221923828,157.21730041503906,-2.945206642150879,0.6499803066253662,3.5701608657836914,612.4193687438965
D4:22:CD:00:05:6E,86.10758209228516,-28.236600875854492,41.892547607421875,6.3043107986450195,1.8749566078186035,0.00763702392578125,612.4193687438965
D4:22:CD:00:05:5E,-147.5181884765625,-13.305830955505371,-119.25477600097656,-13.340999603271484,-11.659542083740234,-3.974000930786133,612.4193687438965
D4:22:CD:00:05:6B,-69.17262268066406,-51.70846176147461,-65.12303161621094,-7.2340087890625,20.34949493408203,7.301292419433594,612.424902677536
D4:22:CD:00:49:AA,135.12063598632812,-71.21485137939453,159.7298126220703,3.4463367462158203,1.2549545764923096,5.9118804931640625,612.424902677536
D4:22:CD:00:05:6E,83.0009994506836,-29.59157943725586,40.65232849121094,9.59493637084961,5.873944282531738,3.28139591217041,612.424902677536
D4:22:CD:00:05:5E,-147.2538299560547,-12.178810119628906,-119.55404663085938,-17.7603759765625,-9.375198364257812,-6.491593360900879,612.424902677536
D4:22:CD:00:05:5D,-175.75592041015625,-65.8216552734375,-119.06938934326172,0.6410493850708008,-0.05578815937042236,-0.7280282974243164,612.4279036521912
D4:22:CD:00:05:6E,73.65076446533203,-31.69447135925293,38.17736053466797,17.625049591064453,9.400463104248047,0.33552074432373047,612.4279036521912
D4:22:CD:00:05:5E,-143.36085510253906,-10.484170913696289,-118.4247817993164,-19.301979064941406,-15.631956100463867,-2.2541937828063965,612.4279036521912
D4:22:CD:00:05:5D,-177.54978942871094,-53.44940185546875,-110.13433837890625,0.19174861907958984,1.552865743637085,1.6579170227050781,612.4310221672058
D4:22:CD:00:05:6B,-58.42487335205078,25.702350616455078,-49.190574645996094,1.9497859477996826,-3.2266106605529785,26.62905502319336,612.4310221672058
D4:22:CD:00:49:AA,130.31068420410156,-77.98461151123047,150.2486572265625,-0.3568236827850342,-0.3470776081085205,6.870203018188477,612.4310221672058
D4:22:CD:00:05:5D,-177.26632690429688,-53.557350158691406,-109.77794647216797,-0.6074711084365845,2.312832832336426,2.7149715423583984,612.4745304584503
D4:22:CD:00:05:6B,-42.88508987426758,35.866493225097656,-33.90373611450195,-6.902012825012207,-9.834455490112305,17.76598358154297,612.4745304584503
D4:22:CD:00:49:AA,130.9125213623047,-77.44537353515625,149.89849853515625,2.230717182159424,-0.3749273419380188,10.021993637084961,612.4745304584503
D4:22:CD:00:05:6E,-23.576860427856445,-73.10421752929688,166.24179077148438,-5.175336837768555,-1.4241397380828857,13.877992630004883,612.4745304584503
D4:22:CD:00:05:5E,137.90277099609375,-76.25375366210938,21.44534683227539,0.4007185101509094,-0.08344677090644836,12.675241470336914,612.4745304584503
D4:22:CD:00:05:5D,-176.52572631835938,-55.13990783691406,-109.77591705322266,-2.002725601196289,1.174330711364746,1.366048812866211,612.5035293102264
D4:22:CD:00:05:6B,-26.641843795776367,41.461700439453125,-14.233756065368652,-5.868711471557617,-25.334129333496094,12.96197509765625,612.5035293102264
D4:22:CD:00:49:AA,128.0738525390625,-76.23234558105469,153.59422302246094,-1.5880308151245117,-1.4079697132110596,6.7291259765625,612.5035293102264
D4:22:CD:00:05:6E,-15.039400100708008,-74.71685028076172,161.08311462402344,-10.459360122680664,-2.9363303184509277,12.532064437866211,612.5035293102264
D4:22:CD:00:05:5E,138.82357788085938,-76.61210632324219,19.00696563720703,-1.2085678577423096,-1.024230718612671,9.643733978271484,612.5035293102264
D4:22:CD:00:05:5D,-174.23187255859375,-57.5660285949707,-111.39383697509766,-3.341519832611084,1.4418549537658691,1.487112045288086,612.5336835384369
D4:22:CD:00:05:6B,-9.869711875915527,42.941898345947266,2.003002882003784,-5.4090776443481445,-19.232295989990234,-1.366922378540039,612.5336835384369
D4:22:CD:00:49:AA,126.86933135986328,-77.2459716796875,156.93783569335938,-4.69034481048584,-0.43941617012023926,4.536823272705078,612.5336835384369
D4:22:CD:00:05:6E,31.801572799682617,-82.11006927490234,115.95201110839844,-7.625849723815918,-1.873270034790039,5.957864761352539,612.5336835384369
D4:22:CD:00:05:5E,146.2877960205078,-72.67630004882812,7.120937347412109,-0.009284630417823792,5.948320388793945,5.508747100830078,612.5336835384369
D4:22:CD:00:05:5D,-170.90402221679688,-61.13221740722656,-114.51069641113281,-0.8122844696044922,1.7914071083068848,3.860177993774414,612.5693109035492
D4:22:CD:00:05:6B,7.033639430999756,43.838748931884766,13.955163955688477,2.664297103881836,-14.967609405517578,-8.919937133789062,612.5693109035492
D4:22:CD:00:49:AA,132.57632446289062,-80.17707824707031,155.40054321289062,-2.025090217590332,-1.943976640701294,3.912360191345215,612.5693109035492
D4:22:CD:00:05:6E,89.30075073242188,-82.3135986328125,63.57478713989258,-4.644449234008789,-1.50146484375,-1.0733871459960938,612.5693109035492
D4:22:CD:00:05:5E,172.0533905029297,-73.8058090209961,-15.39316177368164,1.2355461120605469,13.321769714355469,-2.7919845581054688,612.5693109035492
D4:22:CD:00:05:5D,-168.8888397216797,-66.29591369628906,-114.7766342163086,-4.3194379806518555,-2.487119197845459,8.001392364501953,612.593332529068
D4:22:CD:00:05:6B,23.482769012451172,46.12305450439453,20.35572052001953,-0.5093989372253418,-3.1989784240722656,-13.054893493652344,612.593332529068
D4:22:CD:00:49:AA,145.26193237304688,-83.12248992919922,147.91949462890625,1.1855251789093018,0.7792438268661499,-0.47778987884521484,612.593332529068
D4:22:CD:00:05:6E,128.7161865234375,-81.17675018310547,34.171260833740234,-7.783352851867676,-6.027131080627441,-0.9833106994628906,612.593332529068
D4:22:CD:00:05:5E,-143.00172424316406,-74.20079803466797,-55.34381103515625,0.03768853098154068,9.037664413452148,-7.182157516479492,612.593332529068
D4:22:CD:00:05:5D,-167.75900268554688,-70.77796936035156,-114.34635925292969,-2.0876107215881348,-9.591468811035156,6.276397705078125,612.6238784790039
D4:22:CD:00:05:6B,33.51871109008789,49.98618698120117,21.240631103515625,-2.102792739868164,4.605766296386719,-11.103910446166992,612.6238784790039
D4:22:CD:00:49:AA,170.10467529296875,-83.82930755615234,128.16619873046875,-3.153707981109619,0.7456426620483398,-5.578293800354004,612.6238784790039
D4:22:CD:00:05:6E,153.62843322753906,-76.68597412109375,18.6341609954834,-5.397305488586426,-8.433656692504883,-2.1989235877990723,612.6238784790039
D4:22:CD:00:05:5E,-108.71941375732422,-70.50971984863281,-87.23750305175781,-1.2793362140655518,3.15946102142334,-10.631324768066406,612.6238784790039
D4:22:CD:00:05:5D,-171.05340576171875,-75.49102783203125,-114.43515014648438,-1.8621845245361328,-7.124910354614258,-5.504979133605957,612.7135891914368
D4:22:CD:00:05:6B,36.903446197509766,55.151920318603516,15.635702133178711,3.918466567993164,4.333430290222168,-8.368183135986328,612.7135891914368
D4:22:CD:00:49:AA,-175.54017639160156,-82.53675842285156,118.22990417480469,2.846745491027832,-0.8839526176452637,-6.504611015319824,612.7135891914368
D4:22:CD:00:05:6E,165.06719970703125,-70.81285858154297,16.145734786987305,-1.0626945495605469,-6.174830436706543,-2.3544583320617676,612.7135891914368
D4:22:CD:00:05:5E,-90.19791412353516,-66.62063598632812,-108.03543853759766,-3.519319534301758,1.9270195960998535,-13.299701690673828,612.7135891914368
D4:22:CD:00:05:5D,-178.12472534179688,-78.07494354248047,-103.6554946899414,7.966412544250488,-3.295318603515625,-9.404617309570312,612.7196528911591
D4:22:CD:00:05:6B,30.41669464111328,60.09836959838867,0.380517840385437,0.7950248718261719,11.592081069946289,-4.832740783691406,612.7196528911591
D4:22:CD:00:49:AA,-169.13211059570312,-81.99413299560547,113.64582061767578,2.243903636932373,3.0555882453918457,-8.855356216430664,612.7196528911591
D4:22:CD:00:05:6E,172.075439453125,-65.23188018798828,18.55432891845703,1.2609021663665771,-7.111525535583496,-5.395822525024414,612.7196528911591
D4:22:CD:00:05:5E,-80.1221923828125,-63.393192291259766,-123.72129821777344,-3.997809886932373,2.033782482147217,-13.496740341186523,612.7196528911591
D4:22:CD:00:05:5D,176.41641235351562,-81.32180786132812,-90.0323715209961,2.1384077072143555,-6.146875381469727,-6.816540718078613,612.7432119846344
D4:22:CD:00:05:6B,9.396682739257812,60.21879196166992,-24.46536636352539,0.6235718727111816,8.822542190551758,-7.577869415283203,612.7432119846344
D4:22:CD:00:49:AA,-163.88818359375,-82.03498840332031,109.78961181640625,-0.11302812397480011,1.5492072105407715,-10.038631439208984,612.7432119846344
D4:22:CD:00:05:6E,172.19482421875,-59.748146057128906,24.77544593811035,5.337678909301758,-6.927481651306152,-8.919197082519531,612.7432119846344
D4:22:CD:00:05:5E,-73.15283966064453,-60.58770751953125,-137.45791625976562,-5.00645637512207,0.8304005861282349,-10.28537368774414,612.7432119846344
D4:22:CD:00:05:5D,167.32179260253906,-85.92330932617188,-85.08412170410156,-2.6613807678222656,19.477970123291016,-11.120426177978516,612.7732203006744
D4:22:CD:00:05:6B,-11.79754638671875,54.37975311279297,-53.11412811279297,2.501413345336914,-3.130615234375,-12.618480682373047,612.7732203006744
D4:22:CD:00:49:AA,-159.69737243652344,-83.51278686523438,107.4337158203125,-1.189896821975708,-0.12164586782455444,-8.664636611938477,612.7732203006744
D4:22:CD:00:05:6E,170.1882781982422,-56.60866165161133,31.871902465820312,11.869661331176758,7.127071380615234,-14.223684310913086,612.7732203006744
D4:22:CD:00:05:5E,-65.59664154052734,-57.72916793823242,-150.64755249023438,-8.675567626953125,0.49668341875076294,-6.183377265930176,612.7732203006744
D4:22:CD:00:05:5D,168.44619750976562,-84.62844848632812,-90.38961791992188,5.014719009399414,16.69420623779297,-3.7188377380371094,612.8042163848877
D4:22:CD:00:05:6B,-26.267284393310547,41.67112350463867,-76.25018310546875,1.3839683532714844,-11.006635665893555,-27.221576690673828,612.8042163848877
D4:22:CD:00:49:AA,-151.599365234375,-85.15823364257812,100.89990234375,0.41552942991256714,-0.04362910985946655,-5.095203399658203,612.8042163848877
D4:22:CD:00:05:6E,172.7382049560547,-58.05305099487305,37.15060043334961,7.16279411315918,-0.8521163463592529,-11.995853424072266,612.8042163848877
D4:22:CD:00:05:5E,-57.49702453613281,-54.973392486572266,-161.9081268310547,-18.62236785888672,1.6007070541381836,-4.536074638366699,612.8042163848877
D4:22:CD:00:05:5D,164.33538818359375,-80.80354309082031,-82.14362335205078,-7.046331405639648,0.16022613644599915,-2.0274224281311035,612.8343000411987
D4:22:CD:00:05:6B,-30.03093147277832,29.199462890625,-92.62427520751953,-8.688028335571289,-30.741352081298828,-14.393985748291016,612.8343000411987
D4:22:CD:00:49:AA,-161.02340698242188,-86.89108276367188,110.42710876464844,3.130474090576172,3.1956095695495605,-1.4988212585449219,612.8343000411987
D4:22:CD:00:05:6E,174.4394989013672,-60.68277359008789,41.10903549194336,6.565516471862793,-2.4249582290649414,-7.132500648498535,612.8343000411987
D4:22:CD:00:05:5E,-54.44142150878906,-54.017818450927734,-166.8470458984375,-17.510051727294922,6.813021659851074,-10.870828628540039,612.8343000411987
D4:22:CD:00:05:5D,160.47373962402344,-76.33185577392578,-76.4084701538086,4.236133575439453,-4.739927291870117,1.6733598709106445,612.8634271621704
D4:22:CD:00:05:6B,-38.740352630615234,28.420063018798828,-91.96626281738281,7.012596130371094,17.20086669921875,-26.02515411376953,612.8634271621704
D4:22:CD:00:49:AA,167.2759552001953,-86.4238510131836,140.08297729492188,0.5322399139404297,-0.1906118392944336,-1.097733497619629,612.8634271621704
D4:22:CD:00:05:6E,176.03021240234375,-63.51997375488281,43.67778396606445,6.546064376831055,-2.410222053527832,-4.445008277893066,612.8634271621704
D4:22:CD:00:05:5E,-58.77232360839844,-55.622127532958984,-163.07864379882812,-22.012943267822266,7.905513763427734,-13.093347549438477,612.8634271621704
D4:22:CD:00:05:5D,160.6627655029297,-72.77371215820312,-72.1485824584961,0.27857333421707153,2.363375663757324,6.290212631225586,612.8934290409088
D4:22:CD:00:05:6B,-61.44932174682617,37.01422882080078,-77.15164947509766,-8.699287414550781,-20.839935302734375,2.2962541580200195,612.8934290409088
D4:22:CD:00:49:AA,142.5885467529297,-85.43881225585938,162.30282592773438,-3.048902988433838,-3.2324700355529785,3.7939043045043945,612.8934290409088
D4:22:CD:00:05:6E,177.6795196533203,-65.29718017578125,44.334800720214844,7.057762145996094,-2.491753578186035,-2.6764073371887207,612.8934290409088
D4:22:CD:00:05:5E,-76.11857604980469,-59.15762710571289,-149.56236267089844,-4.990118980407715,-11.612770080566406,-2.444582462310791,612.8934290409088
D4:22:CD:00:05:5D,158.36526489257812,-71.82966613769531,-68.33528900146484,-4.762025833129883,4.981719970703125,2.668802261352539,612.923751115799
D4:22:CD:00:05:6B,-57.05828857421875,45.5020866394043,-59.367862701416016,2.3242969512939453,-17.304672241210938,-8.13467025756836,612.923751115799
D4:22:CD:00:49:AA,128.4248046875,-83.11917877197266,173.47244262695312,-4.583415985107422,-3.989797592163086,9.848381042480469,612.923751115799
D4:22:CD:00:05:6E,179.08155822753906,-64.83850860595703,41.2786979675293,13.029420852661133,-2.1966848373413086,3.7197256088256836,612.923751115799
D4:22:CD:00:05:5E,-82.7393569946289,-62.43766403198242,-140.68055725097656,4.352065086364746,-22.071758270263672,1.7856569290161133,612.923751115799
D4:22:CD:00:05:5D,153.9552459716797,-72.74592590332031,-63.733642578125,2.753544807434082,-0.9083927869796753,5.431291580200195,612.9537496566772
D4:22:CD:00:05:6B,-45.98735809326172,48.877201080322266,-39.304325103759766,4.547982215881348,-7.221052169799805,-2.396493434906006,612.9537496566772
D4:22:CD:00:49:AA,122.86859130859375,-82.1146469116211,176.59271240234375,-2.3384714126586914,-3.0052361488342285,2.8427839279174805,612.9537496566772
D4:22:CD:00:05:6E,172.36798095703125,-63.116214752197266,38.6516227722168,20.218830108642578,-5.266225814819336,10.521909713745117,612.9537496566772
D4:22:CD:00:05:5E,-84.6115951538086,-64.8519058227539,-136.6328887939453,-2.6930408477783203,-0.40768975019454956,13.962310791015625,612.9537496566772
D4:22:CD:00:05:5D,146.70335388183594,-74.24031829833984,-57.53090286254883,2.9251389503479004,-1.2131321430206299,5.511336326599121,612.9837355613708
D4:22:CD:00:05:6B,-39.41440963745117,48.4290771484375,-23.549177169799805,0.7435644865036011,-4.750594139099121,10.552968978881836,612.9837355613708
D4:22:CD:00:49:AA,125.56379699707031,-81.13729095458984,172.17770385742188,4.108157157897949,1.4417228698730469,1.9390497207641602,612.9837355613708
D4:22:CD:00:05:6E,147.87734985351562,-60.24997329711914,44.992435455322266,6.067080497741699,0.9750709533691406,6.710044860839844,612.9837355613708
D4:22:CD:00:05:5E,-96.71070861816406,-65.42720031738281,-128.86102294921875,-3.854212760925293,0.2973964810371399,0.4348878860473633,612.9837355613708
D4:22:CD:00:05:5D,136.40371704101562,-75.18665313720703,-52.20505905151367,4.769423484802246,-3.8426003456115723,0.43440723419189453,613.0454132556915
D4:22:CD:00:05:6B,-29.157859802246094,45.00459289550781,-12.264829635620117,-5.143876075744629,-8.284318923950195,3.562045097351074,613.0454132556915
D4:22:CD:00:49:AA,134.4072265625,-79.29261016845703,160.5799560546875,5.654427528381348,-0.6488041877746582,1.6679019927978516,613.0454132556915
D4:22:CD:00:05:6E,126.6643295288086,-55.867923736572266,51.533424377441406,1.4567670822143555,18.23798370361328,-5.216103553771973,613.0454132556915
D4:22:CD:00:05:5E,-102.37028503417969,-66.800048828125,-124.62303161621094,-5.361499786376953,-0.6134592294692993,-4.9684343338012695,613.0454132556915
D4:22:CD:00:05:5D,122.64697265625,-75.6072006225586,-47.67977523803711,5.938808441162109,1.659052848815918,-0.4950704574584961,613.0737845897675
D4:22:CD:00:05:6B,-13.231176376342773,38.55226516723633,-3.393805503845215,-5.629809379577637,4.599164009094238,-1.2426490783691406,613.0737845897675
D4:22:CD:00:49:AA,139.89341735839844,-78.63844299316406,151.38099670410156,1.8901689052581787,-1.2507247924804688,-3.5550293922424316,613.0737845897675
D4:22:CD:00:05:6E,118.52568054199219,-53.959739685058594,54.61271667480469,2.0385046005249023,11.249303817749023,-5.638882637023926,613.0737845897675
D4:22:CD:00:05:5E,-107.51555633544922,-68.14730834960938,-120.37203216552734,-3.621286392211914,-5.6732587814331055,0.9870319366455078,613.0737845897675
D4:22:CD:00:05:5D,119.88566589355469,-72.97209167480469,-58.87009048461914,11.908300399780273,18.731040954589844,5.6287736892700195,613.1037888526917
D4:22:CD:00:05:6B,-7.3648223876953125,30.96954917907715,3.2385568618774414,-5.248035430908203,19.426898956298828,-2.206380844116211,613.1037888526917
D4:22:CD:00:49:AA,148.25967407226562,-77.74229431152344,139.59584045410156,-1.474928855895996,-2.410220146179199,-5.281950950622559,613.1037888526917
D4:22:CD:00:05:6E,114.05896759033203,-53.793453216552734,57.947994232177734,-2.9776811599731445,3.01837158203125,-1.983078956604004,613.1037888526917
D4:22:CD:00:05:5E,-117.76763916015625,-67.65177154541016,-111.84590148925781,-2.1531782150268555,-2.1901402473449707,-0.9111690521240234,613.1037888526917
D4:22:CD:00:05:5D,128.0050048828125,-64.378662109375,-76.11629486083984,17.537826538085938,10.17996597290039,6.765859603881836,613.1333737373352
D4:22:CD:00:05:6B,-19.3634090423584,22.119644165039062,9.369344711303711,-2.5176477432250977,2.197505474090576,-5.957363128662109,613.1333737373352
D4:22:CD:00:49:AA,154.9105224609375,-77.42306518554688,132.41033935546875,-1.5003504753112793,0.8534759283065796,-2.3270349502563477,613.1333737373352
D4:22:CD:00:05:6E,108.68318939208984,-52.90290069580078,61.42079162597656,-4.913145065307617,3.518322467803955,-2.886190891265869,613.1333737373352
D4:22:CD:00:05:5E,-125.18396759033203,-66.52117156982422,-104.20217895507812,-3.4294934272766113,-1.7167046070098877,-0.3828468322753906,613.1333737373352
D4:22:CD:00:05:5D,136.6190643310547,-52.977378845214844,-87.32141876220703,9.440557479858398,0.25934451818466187,0.3023090362548828,613.1640846729279
D4:22:CD:00:05:6B,-27.86231231689453,14.203073501586914,16.48548126220703,5.117165565490723,-3.6469240188598633,3.0154619216918945,613.1640846729279
D4:22:CD:00:49:AA,157.35963439941406,-77.14414978027344,129.71762084960938,3.8096160888671875,4.185920715332031,-0.11969375610351562,613.1640846729279
D4:22:CD:00:05:6E,103.49549102783203,-51.44234848022461,64.39292907714844,-2.612847328186035,6.530905723571777,-3.5421791076660156,613.1640846729279
D4:22:CD:00:05:5E,-130.4725799560547,-65.07829284667969,-98.52813720703125,-4.1127424240112305,-2.042992115020752,-0.5134897232055664,613.1640846729279
D4:22:CD:00:05:5D,143.14208984375,-41.98269271850586,-95.98881530761719,2.8916878700256348,-1.3667283058166504,-6.641704559326172,613.222930431366
D4:22:CD:00:05:6B,-31.72631072998047,7.102633476257324,22.990154266357422,-3.7295408248901367,2.7497000694274902,-3.8621621131896973,613.222930431366
D4:22:CD:00:49:AA,159.2373504638672,-76.97846984863281,126.90169525146484,2.667619228363037,-0.29959017038345337,-0.11430072784423828,613.222930431366
D4:22:CD:00:05:6E,101.917724609375,-49.999507904052734,67.3740234375,-1.1649014949798584,6.910778045654297,-2.6197361946105957,613.222930431366
D4:22:CD:00:05:5E,-134.9101104736328,-63.68724060058594,-94.06242370605469,-3.2963719367980957,-1.3463270664215088,0.2169027328491211,613.222930431366
D4:22:CD:00:05:5D,148.57723999023438,-32.3516845703125,-103.05257415771484,-1.2991251945495605,0.3242031931877136,-11.696660995483398,613.2273070812225
D4:22:CD:00:05:6B,-38.91994857788086,-1.4886142015457153,28.676597595214844,-1.549745798110962,0.3391808271408081,-3.8212332725524902,613.2273070812225
D4:22:CD:00:49:AA,163.6945037841797,-76.32546997070312,122.4865493774414,-0.7494838237762451,1.494929552078247,-0.04924583435058594,613.2273070812225
D4:22:CD:00:05:6E,104.24837493896484,-48.93264389038086,70.08812713623047,-0.1012311577796936,5.590359687805176,-1.018509864807129,613.2273070812225
D4:22:CD:00:05:5E,-137.69683837890625,-62.87225341796875,-90.23700714111328,-2.892033576965332,-1.4917526245117188,-0.060517311096191406,613.2273070812225
D4:22:CD:00:05:5D,154.81170654296875,-24.878131866455078,-108.30802154541016,-0.32955336570739746,-0.5514832735061646,-12.519596099853516,613.2546031475067
D4:22:CD:00:05:6B,-44.97328186035156,-13.067276000976562,33.52764892578125,2.4474873542785645,1.7450361251831055,-4.172982215881348,613.2546031475067
D4:22:CD:00:49:AA,169.5023956298828,-76.05747985839844,117.55380249023438,0.8714989423751831,1.201747179031372,0.053992271423339844,613.2546031475067
D4:22:CD:00:05:6E,107.23770904541016,-48.31795120239258,72.51359558105469,1.5159776210784912,2.6110734939575195,1.2761173248291016,613.2546031475067
D4:22:CD:00:05:5E,-140.09022521972656,-62.06095886230469,-86.32174682617188,-3.3520188331604004,-2.9247512817382812,-1.9702134132385254,613.2546031475067
D4:22:CD:00:05:5D,161.63311767578125,-20.278377532958984,-113.20823669433594,-3.6682815551757812,-1.5626685619354248,-9.832454681396484,613.2838995456696
D4:22:CD:00:05:6B,-48.86316680908203,-28.775754928588867,36.58165740966797,9.215105056762695,6.203356742858887,1.4282398223876953,613.2838995456696
D4:22:CD:00:49:AA,175.5830535888672,-76.09337615966797,112.9139404296875,2.895627021789551,2.153721809387207,-1.0373830795288086,613.2838995456696
D4:22:CD:00:05:6E,106.32707214355469,-48.1657829284668,74.84123229980469,4.513055801391602,3.4029383659362793,-1.007370948791504,613.2838995456696
D4:22:CD:00:05:5E,-143.32916259765625,-60.74132537841797,-82.22573852539062,-3.426337242126465,-2.190609931945801,-0.6111955642700195,613.2838995456696
D4:22:CD:00:05:5D,165.1465606689453,-19.802181243896484,-118.0354232788086,-9.663703918457031,-3.6294751167297363,-11.089622497558594,613.3436777591705
D4:22:CD:00:05:6B,-43.150657653808594,-46.23316955566406,32.05173873901367,12.105764389038086,12.581747055053711,20.237071990966797,613.3436777591705
D4:22:CD:00:49:AA,-179.45492553710938,-76.56771087646484,108.5526123046875,3.7288427352905273,2.088623523712158,0.6412487030029297,613.3436777591705
D4:22:CD:00:05:6E,105.56074523925781,-47.57206726074219,78.0277328491211,5.955230712890625,4.066725730895996,-3.3406338691711426,613.3436777591705
D4:22:CD:00:05:5E,-145.68508911132812,-58.868465423583984,-78.94119262695312,-4.450760841369629,-3.78481388092041,-2.1735100746154785,613.3436777591705
D4:22:CD:00:05:5D,164.86102294921875,-23.88875389099121,-122.52667236328125,-6.714746475219727,-2.934755802154541,4.501111030578613,613.3736629486084
D4:22:CD:00:05:6B,-23.561655044555664,-58.53858184814453,13.978988647460938,20.682327270507812,14.74847412109375,24.997905731201172,613.3736629486084
D4:22:CD:00:49:AA,-175.71290588378906,-77.62364959716797,105.5157470703125,0.2629920244216919,-1.2532427310943604,1.5987415313720703,613.3736629486084
D4:22:CD:00:05:6E,106.26036834716797,-45.57648849487305,81.9487075805664,4.713578224182129,-0.38090449571609497,3.3808555603027344,613.3736629486084
D4:22:CD:00:05:5E,-147.336669921875,-56.83367919921875,-76.63511657714844,-3.944479465484619,-1.278986930847168,-0.3524742126464844,613.3736629486084
D4:22:CD:00:05:5D,163.0279083251953,-25.82562828063965,-124.80661010742188,-19.000492095947266,-10.634464263916016,19.77770233154297,613.4036772251129
D4:22:CD:00:05:6B,-21.48130989074707,-60.8405876159668,5.251996994018555,9.226573944091797,8.726404190063477,4.738251686096191,613.4036772251129
D4:22:CD:00:49:AA,-172.13107299804688,-79.68180084228516,102.09547424316406,3.4529638290405273,1.9844820499420166,1.4616832733154297,613.4036772251129
D4:22:CD:00:05:6E,102.78401184082031,-40.855525970458984,86.29714965820312,4.689489364624023,0.4938737750053406,11.42221450805664,613.4036772251129
D4:22:CD:00:05:5E,-148.78582763671875,-55.44620895385742,-74.88168334960938,-4.148215293884277,-2.2115674018859863,-0.3465595245361328,613.4036772251129
D4:22:CD:00:05:5D,162.22544860839844,-27.338550567626953,-122.71885681152344,-14.52098274230957,-20.828983306884766,2.8550186157226562,613.4332804679871
D4:22:CD:00:05:6B,-39.05740737915039,-54.49672317504883,11.786579132080078,13.430656433105469,0.04934549331665039,9.440553665161133,613.4332804679871
D4:22:CD:00:49:AA,-170.4154815673828,-79.17073059082031,99.12687683105469,4.653863906860352,1.1910042762756348,5.380588531494141,613.4332804679871
D4:22:CD:00:05:6E,96.63145446777344,-32.481903076171875,91.36677551269531,2.7482776641845703,6.629926681518555,15.113370895385742,613.4332804679871
D4:22:CD:00:05:5E,-150.5098114013672,-55.32786560058594,-73.17861938476562,-4.15723991394043,-1.478085994720459,0.7107477188110352,613.4332804679871
D4:22:CD:00:05:5D,165.7383270263672,-27.042695999145508,-119.41780090332031,-19.708553314208984,-9.817926406860352,11.321098327636719,613.4655764102936
D4:22:CD:00:05:6B,-48.112037658691406,-42.23493194580078,15.399358749389648,23.666976928710938,-7.693809509277344,16.720279693603516,613.4655764102936
D4:22:CD:00:49:AA,-174.5498046875,-78.40357971191406,100.75447845458984,-0.8693751096725464,-2.7275195121765137,9.268808364868164,613.4655764102936
D4:22:CD:00:05:6E,86.30583953857422,-21.537960052490234,94.82209014892578,2.021698474884033,1.856536626815796,22.36159896850586,613.4655764102936
D4:22:CD:00:05:5E,-152.5319366455078,-56.4766731262207,-71.69830322265625,-4.471066474914551,-1.2185120582580566,0.9444351196289062,613.4655764102936
D4:22:CD:00:05:5D,165.6261749267578,-25.728418350219727,-116.68694305419922,-8.041631698608398,-12.488773345947266,4.432912826538086,613.4935870170593
D4:22:CD:00:05:6B,-50.760677337646484,-29.40736961364746,12.85055923461914,19.121444702148438,-3.593271255493164,2.8873605728149414,613.4935870170593
D4:22:CD:00:49:AA,-175.92364501953125,-79.18329620361328,99.99835968017578,-0.10550883412361145,0.9396394491195679,9.856176376342773,613.4935870170593
D4:22:CD:00:05:6E,75.5726318359375,-10.373109817504883,94.34521484375,6.318121910095215,6.683372497558594,15.318401336669922,613.4935870170593
D4:22:CD:00:05:5E,-154.13780212402344,-58.89079284667969,-71.38719177246094,-6.138843536376953,-1.6186892986297607,1.0811471939086914,613.4935870170593
D4:22:CD:00:05:5D,164.4547119140625,-26.740190505981445,-116.65026092529297,-7.43221378326416,-6.753491401672363,4.681281089782715,613.5236365795135
D4:22:CD:00:05:6B,-54.86674880981445,-20.332155227661133,5.905002593994141,6.15445613861084,-9.125612258911133,-6.077959060668945,613.5236365795135
D4:22:CD:00:49:AA,-179.8708953857422,-80.40310668945312,101.98176574707031,4.919689178466797,3.899779796600342,7.572351455688477,613.5236365795135
D4:22:CD:00:05:6E,70.15990447998047,1.466107964515686,91.07665252685547,11.769176483154297,10.370742797851562,1.2275943756103516,613.5236365795135
D4:22:CD:00:05:5E,-154.37127685546875,-62.810890197753906,-74.03214263916016,-5.404892921447754,-1.2476091384887695,4.218385696411133,613.5236365795135
D4:22:CD:00:05:5D,160.20327758789062,-30.41436767578125,-117.79900360107422,-3.707744598388672,-2.974231243133545,3.4395275115966797,613.5536382198334
D4:22:CD:00:05:6B,-60.32090377807617,-17.0527286529541,-2.7825214862823486,-2.98968505859375,-8.48129653930664,-5.404997825622559,613.5536382198334
D4:22:CD:00:49:AA,175.887939453125,-81.50081634521484,103.01528930664062,5.304119110107422,2.4754953384399414,4.346574783325195,613.5536382198334
D4:22:CD:00:05:6E,71.3607177734375,12.822728157043457,85.240478515625,10.511198043823242,2.780604839324951,0.7567615509033203,613.5536382198334
D4:22:CD:00:05:5E,-151.7523193359375,-68.26892852783203,-79.99784088134766,0.6500333547592163,-2.9515037536621094,9.00071907043457,613.5536382198334
D4:22:CD:00:05:5D,157.57896423339844,-35.762840270996094,-119.0133056640625,-0.5605378150939941,-2.24721097946167,-2.4123339653015137,613.5836358070374
D4:22:CD:00:05:6B,-64.04824829101562,-19.21567153930664,-11.94934368133545,-5.537890434265137,-5.088478088378906,-5.202884674072266,613.5836358070374
D4:22:CD:00:49:AA,171.7994842529297,-82.04248809814453,102.63328552246094,2.903231143951416,0.5223740339279175,-2.8501224517822266,613.5836358070374
D4:22:CD:00:05:6E,72.50823211669922,21.389984130859375,79.24842071533203,5.0207624435424805,3.28653621673584,3.4547290802001953,613.5836358070374
D4:22:CD:00:05:5E,-134.3721160888672,-76.24018096923828,-95.7120132446289,1.5450818538665771,2.1906609535217285,0.4447031021118164,613.5836358070374
D4:22:CD:00:05:5D,156.6650390625,-42.452980041503906,-120.38941955566406,-2.995903968811035,-0.9885722398757935,-10.947820663452148,613.6434197425842
D4:22:CD:00:05:6B,-65.70584869384766,-25.767505645751953,-20.943849563598633,-4.920232772827148,-2.2664451599121094,-6.8641557693481445,613.6434197425842
D4:22:CD:00:49:AA,166.4626007080078,-81.66775512695312,103.87653350830078,0.90781569480896,-1.0500462055206299,-6.887768745422363,613.6434197425842
D4:22:CD:00:05:6E,71.63011932373047,27.323755264282227,74.59474182128906,2.5364623069763184,2.963970184326172,-0.614628791809082,613.6434197425842
D4:22:CD:00:05:5E,-128.34552001953125,-77.23480224609375,-103.05147552490234,-4.509693145751953,3.510225772857666,-6.9341888427734375,613.6434197425842
D4:22:CD:00:05:5D,157.77662658691406,-51.15736770629883,-121.705322265625,-6.359738349914551,-2.078009605407715,-15.654216766357422,613.6734867095947
D4:22:CD:00:05:6B,-67.2475814819336,-33.98457336425781,-29.480274200439453,-3.055661678314209,-1.2031407356262207,-6.387345314025879,613.6734867095947
D4:22:CD:00:49:AA,165.4379425048828,-81.64717864990234,102.27876281738281,-3.4673967361450195,-0.6888210773468018,-9.116727828979492,613.6734867095947
D4:22:CD:00:05:6E,66.17939758300781,32.6944465637207,71.87835693359375,-4.450473785400391,7.073433876037598,1.9922151565551758,613.6734867095947
D4:22:CD:00:05:5E,-134.44082641601562,-74.53397369384766,-101.63247680664062,-0.4513830542564392,-1.3164429664611816,-6.808859825134277,613.6734867095947
D4:22:CD:00:05:5D,158.42999267578125,-63.20343017578125,-122.87626647949219,-7.2917890548706055,2.017031192779541,-8.743949890136719,613.703540802002
D4:22:CD:00:05:6B,-67.50193786621094,-41.98899841308594,-37.92815017700195,-2.1228981018066406,-1.129608154296875,-6.525249481201172,613.703540802002
D4:22:CD:00:49:AA,166.21937561035156,-82.34835052490234,99.6457290649414,-2.2348828315734863,1.0763845443725586,-8.707784652709961,613.703540802002
D4:22:CD:00:05:6E,51.203922271728516,38.76054382324219,70.36290740966797,-8.593969345092773,3.7411694526672363,-6.395451545715332,613.703540802002
D4:22:CD:00:05:5E,-136.1486053466797,-72.48875427246094,-104.51917266845703,-0.767547607421875,-5.6344099044799805,-11.87246322631836,613.703540802002
D4:22:CD:00:05:5D,153.09381103515625,-79.23744201660156,-121.82066345214844,-3.7343077659606934,-0.3962627649307251,0.6624641418457031,613.7331390380859
D4:22:CD:00:05:6B,-66.31587982177734,-48.90392303466797,-46.12053298950195,-3.1972546577453613,0.6297409534454346,-3.4212751388549805,613.7331390380859
D4:22:CD:00:49:AA,160.3026123046875,-84.08116149902344,103.7704849243164,2.790353298187256,1.6592011451721191,-9.721820831298828,613.7331390380859
D4:22:CD:00:05:6E,33.783302307128906,44.61919403076172,71.48936462402344,-1.9330010414123535,-4.996809005737305,-12.37388801574707,613.7331390380859
D4:22:CD:00:05:5E,-146.5152130126953,-70.82521057128906,-100.9787826538086,-8.131610870361328,1.2761404514312744,-2.5808420181274414,613.7331390380859
D4:22:CD:00:05:5D,-10.615483283996582,-82.8438491821289,40.947547912597656,8.79232406616211,1.5717713832855225,17.13890838623047,613.76313996315
D4:22:CD:00:05:6B,-64.01764678955078,-54.51386642456055,-53.63542175292969,-3.4163947105407715,1.601485252380371,-3.4574217796325684,613.76313996315
D4:22:CD:00:49:AA,148.8705596923828,-84.46530151367188,113.50513458251953,2.308640956878662,-0.47131335735321045,-7.312953948974609,613.76313996315
D4:22:CD:00:05:6E,22.77278709411621,49.58457946777344,78.07048034667969,0.799553632736206,-6.7586870193481445,-10.685958862304688,613.76313996315
D4:22:CD:00:05:5E,-152.7513427734375,-68.05901336669922,-99.04933166503906,-6.073497772216797,-0.09706050157546997,-7.574258804321289,613.76313996315
D4:22:CD:00:05:5D,-8.714229583740234,-67.37240600585938,43.540626525878906,21.115169525146484,12.832597732543945,0.5669565200805664,613.7933349609375
D4:22:CD:00:05:6B,-61.06767654418945,-59.45623016357422,-60.59286880493164,-3.498664379119873,3.847902297973633,-2.4306769371032715,613.7933349609375
D4:22:CD:00:49:AA,142.33596801757812,-85.27909851074219,119.05583953857422,0.1384086012840271,-0.9288926124572754,-1.6332120895385742,613.7933349609375
D4:22:CD:00:05:6E,20.36100959777832,52.59027862548828,91.96088409423828,-0.2830051779747009,-2.6440582275390625,-9.46038818359375,613.7933349609375
D4:22:CD:00:05:5E,-155.47695922851562,-65.06431579589844,-97.76334381103516,-2.908275604248047,-3.952894687652588,-1.9330344200134277,613.7933349609375
D4:22:CD:00:05:5D,-12.140018463134766,-61.990142822265625,43.56288528442383,8.094221115112305,15.99323844909668,-21.799583435058594,613.8240013122559
D4:22:CD:00:05:6B,-56.3602180480957,-64.41752624511719,-67.86907196044922,-2.0859456062316895,5.0791473388671875,-1.0297794342041016,613.8240013122559
D4:22:CD:00:49:AA,148.0666961669922,-85.70509338378906,113.04216003417969,3.3364744186401367,-1.752035140991211,-2.141901969909668,613.8240013122559
D4:22:CD:00:05:6E,27.205928802490234,53.03273010253906,113.86455535888672,-4.339677810668945,6.821202278137207,-12.848752975463867,613.8240013122559
D4:22:CD:00:05:5E,-157.01560974121094,-61.87202072143555,-97.24720764160156,-3.845520496368408,-2.5889482498168945,-0.4462909698486328,613.8240013122559
D4:22:CD:00:05:5D,-17.12477684020996,-64.35603332519531,43.3413200378418,11.189908981323242,-3.955021381378174,-7.053515434265137,613.8540043830872
D4:22:CD:00:05:6B,-48.91585159301758,-69.19048309326172,-76.49183654785156,-0.49333739280700684,4.262182235717773,-0.4935283660888672,613.8540043830872
D4:22:CD:00:49:AA,156.3810577392578,-84.68592834472656,104.4876708984375,3.8285584449768066,1.1682133674621582,5.050450325012207,613.8540043830872
D4:22:CD:00:05:6E,39.5593147277832,49.24663543701172,137.94876098632812,-12.561586380004883,11.551111221313477,-22.7269287109375,613.8540043830872
D4:22:CD:00:05:5E,-158.10867309570312,-59.615482330322266,-98.13115692138672,-5.229506492614746,-5.710182189941406,2.445028305053711,613.8540043830872
D4:22:CD:00:05:5D,-3.491159200668335,-71.02003479003906,38.27542495727539,7.34304141998291,8.378257751464844,0.125732421875,613.8831408023834
D4:22:CD:00:05:6B,-39.82162857055664,-73.6780776977539,-87.16537475585938,-0.3762006163597107,2.1359643936157227,1.994466781616211,613.8831408023834
D4:22:CD:00:49:AA,148.0481414794922,-84.55284881591797,111.8491439819336,-0.5965708494186401,2.5478944778442383,4.0483903884887695,613.8831408023834
D4:22:CD:00:05:6E,52.99398422241211,45.010826110839844,152.73939514160156,-2.491270065307617,0.5287874937057495,-9.79939079284668,613.8831408023834
D4:22:CD:00:05:5E,-154.83287048339844,-58.63386917114258,-100.06312561035156,-2.7717251777648926,-6.5475873947143555,2.5444841384887695,613.8831408023834
D4:22:CD:00:05:5D,17.74088478088379,-78.77751159667969,25.294034957885742,9.670839309692383,11.506175994873047,0.20720291137695312,613.9436540603638
D4:22:CD:00:05:6B,-31.686969757080078,-78.2774429321289,-98.92290496826172,-1.747347116470337,0.44388455152511597,4.77931022644043,613.9436540603638
D4:22:CD:00:49:AA,152.04371643066406,-84.41675567626953,108.52872467041016,0.777907133102417,2.512734889984131,2.1183223724365234,613.9436540603638
D4:22:CD:00:05:6E,62.036766052246094,46.18978500366211,152.987548828125,2.020378589630127,6.315670967102051,-1.5690860748291016,613.9436540603638
D4:22:CD:00:05:5E,-151.33203125,-57.715755462646484,-102.74213409423828,-3.1942901611328125,-3.461880683898926,5.546791076660156,613.9436540603638
D4:22:CD:00:05:5D,48.101444244384766,-84.24861907958984,-2.5161337852478027,-7.8775177001953125,-9.865623474121094,7.472469329833984,613.9737317562103
D4:22:CD:00:05:6B,-26.912796020507812,-83.1406478881836,-108.24420166015625,-1.6908366680145264,1.7847254276275635,8.758977890014648,613.9737317562103
D4:22:CD:00:49:AA,162.2100372314453,-83.8233413696289,100.78520202636719,4.862648963928223,1.7552874088287354,3.662520408630371,613.9737317562103
D4:22:CD:00:05:6E,72.85255432128906,54.639671325683594,148.36061096191406,-6.275940895080566,1.9864370822906494,-8.54603385925293,613.9737317562103
D4:22:CD:00:05:5E,-145.59564208984375,-58.22716522216797,-106.99360656738281,-4.924910545349121,-5.452811241149902,2.138093948364258,613.9737317562103
D4:22:CD:00:05:5D,60.95310592651367,-86.92159271240234,-16.72525405883789,-0.9643234014511108,-12.992202758789062,5.392482757568359,614.0033481121063
D4:22:CD:00:05:6B,-18.8358211517334,-87.66754150390625,-117.1620101928711,-0.35856080055236816,3.7150182723999023,9.398147583007812,614.0033481121063
D4:22:CD:00:49:AA,168.1901092529297,-82.263916015625,97.91986083984375,2.5528125762939453,-0.11648914217948914,2.4205312728881836,614.0033481121063
D4:22:CD:00:05:6E,78.65528869628906,68.99293518066406,141.50140380859375,-17.278121948242188,4.220757484436035,-16.440624237060547,614.0033481121063
D4:22:CD:00:05:5E,-134.79644775390625,-59.8279914855957,-114.44570922851562,-4.0765581130981445,-2.7102880477905273,-0.6876115798950195,614.0033481121063
D4:22:CD:00:05:5D,111.33232116699219,-87.82256317138672,-61.33213424682617,-1.975468635559082,2.14935302734375,3.2263498306274414,614.0332272052765
D4:22:CD:00:05:6B,-179.5315399169922,-88.40725708007812,48.30134963989258,-0.18042230606079102,4.303736686706543,5.5142974853515625,614.0332272052765
D4:22:CD:00:49:AA,171.4728240966797,-80.51824188232422,98.04105377197266,-2.6954221725463867,-0.709263801574707,-0.9362401962280273,614.0332272052765
D4:22:CD:00:05:6E,38.23112106323242,85.03958892822266,95.61219787597656,-5.7872514724731445,8.988706588745117,-16.834136962890625,614.0332272052765
D4:22:CD:00:05:5E,-125.41120910644531,-58.94345474243164,-120.18372344970703,-9.103063583374023,-4.35096549987793,-6.651865005493164,614.0332272052765
D4:22:CD:00:05:5D,162.75018310546875,-87.3316421508789,-109.1777572631836,-2.1255927085876465,2.6751837730407715,-0.4203653335571289,614.0633673667908
D4:22:CD:00:05:6B,-154.61001586914062,-84.88526916503906,31.888334274291992,0.3317737579345703,2.6829752922058105,1.6128852367401123,614.0633673667908
D4:22:CD:00:49:AA,172.51751708984375,-77.45840454101562,101.28440856933594,-4.384598731994629,-0.6903083324432373,-2.888962745666504,614.0633673667908
D4:22:CD:00:05:6E,-68.19644927978516,76.77542114257812,-16.804594039916992,-3.1591949462890625,2.666879177093506,-10.950090408325195,614.0633673667908
D4:22:CD:00:05:5E,-112.42768096923828,-57.68326187133789,-123.34200286865234,-13.657833099365234,7.837737083435059,1.149444580078125,614.0633673667908
D4:22:CD:00:05:5D,-172.23989868164062,-85.44456481933594,-132.67445373535156,-1.4695930480957031,0.06391710042953491,0.8496551513671875,614.0937237739563
D4:22:CD:00:05:6B,-135.5506591796875,-80.91671752929688,21.4826602935791,4.944772720336914,-4.683263778686523,-5.509783744812012,614.0937237739563
D4:22:CD:00:49:AA,172.2091522216797,-74.43744659423828,106.11039733886719,-2.455209255218506,-1.475745677947998,-3.2192749977111816,614.0937237739563
D4:22:CD:00:05:6E,-72.02922058105469,64.74728393554688,-24.629810333251953,0.9531383514404297,-3.2935385704040527,-5.721243858337402,614.0937237739563
D4:22:CD:00:05:5E,-101.90367889404297,-54.184391021728516,-118.33258056640625,-29.658023834228516,7.282609939575195,-0.6748266220092773,614.0937237739563
D4:22:CD:00:05:5D,-167.02490234375,-82.87175750732422,-136.304443359375,0.5073453187942505,-1.1487970352172852,-0.30611705780029297,614.1236307621002
D4:22:CD:00:05:6B,-138.31849670410156,-78.64822387695312,18.811601638793945,9.951824188232422,-3.263078212738037,-7.854066848754883,614.1236307621002
D4:22:CD:00:49:AA,170.67630004882812,-72.62418365478516,109.96507263183594,1.4144275188446045,-0.39202606678009033,-2.3954014778137207,614.1236307621002
D4:22:CD:00:05:6E,-65.06407928466797,57.72853469848633,-27.903963088989258,11.583066940307617,-9.214838027954102,11.96444320678711,614.1236307621002
D4:22:CD:00:05:5E,-106.21260833740234,-47.95671844482422,-103.89262390136719,-22.209362030029297,-3.2891197204589844,-4.029297828674316,614.1236307621002
D4:22:CD:00:05:5D,-167.6558380126953,-80.07223510742188,-133.69473266601562,1.7041034698486328,-0.9995142221450806,-0.035094261169433594,614.1537940502167
D4:22:CD:00:05:6B,-139.55494689941406,-80.35712432861328,21.95252799987793,-3.3110103607177734,-3.122800827026367,-2.667374610900879,614.1537940502167
D4:22:CD:00:49:AA,167.7321319580078,-71.55290985107422,112.3520278930664,1.3120155334472656,1.4241807460784912,-0.5281438827514648,614.1537940502167
D4:22:CD:00:05:6E,-35.829803466796875,59.09085464477539,-26.168066024780273,-5.231139183044434,-18.363712310791016,12.01480484008789,614.1537940502167
D4:22:CD:00:05:5E,-117.60551452636719,-41.011505126953125,-88.37506866455078,-9.951812744140625,-5.245617866516113,-9.637659072875977,614.1537940502167
D4:22:CD:00:05:5D,-169.677001953125,-77.38389587402344,-129.28536987304688,0.20905211567878723,0.23494338989257812,0.3461885452270508,614.1838500499725
D4:22:CD:00:05:6B,-140.74969482421875,-82.30877685546875,25.79238510131836,-4.380279541015625,-3.662566661834717,1.0515718460083008,614.1838500499725
D4:22:CD:00:49:AA,165.11195373535156,-70.42156219482422,114.18494415283203,-2.0157551765441895,1.654810905456543,2.453120231628418,614.1838500499725
D4:22:CD:00:05:6E,1.7979145050048828,61.14698791503906,-4.114349842071533,-3.384366989135742,9.767778396606445,0.49497222900390625,614.1838500499725
D4:22:CD:00:05:5E,-129.45712280273438,-34.614742279052734,-75.16222381591797,-1.3353252410888672,-3.2424631118774414,-10.052667617797852,614.1838500499725
D4:22:CD:00:05:5D,-171.4533233642578,-75.0093994140625,-125.98591613769531,0.41569674015045166,0.5948948860168457,0.4829683303833008,614.2437407970428
D4:22:CD:00:05:6B,-138.29539489746094,-83.0550537109375,20.47984504699707,-2.8539085388183594,-7.133971214294434,-0.11199760437011719,614.2437407970428
D4:22:CD:00:49:AA,161.96852111816406,-70.1719741821289,116.23384094238281,-3.1184592247009277,0.8561234474182129,1.597233772277832,614.2437407970428
D4:22:CD:00:05:6E,26.809606552124023,53.03506851196289,22.121091842651367,10.796003341674805,-0.7406166791915894,1.3689079284667969,614.2437407970428
D4:22:CD:00:05:5E,-140.27284240722656,-30.13282012939453,-65.09249877929688,2.6366090774536133,-1.2079219818115234,-10.856000900268555,614.2437407970428
D4:22:CD:00:05:5D,-172.08807373046875,-73.09725189208984,-123.91170501708984,-0.9081306457519531,0.966279149055481,0.07544612884521484,614.2738246917725
D4:22:CD:00:05:6B,-132.90139770507812,-82.08370971679688,7.726937770843506,-3.1615781784057617,-3.342824935913086,-1.1180906295776367,614.2738246917725
D4:22:CD:00:49:AA,157.39048767089844,-70.43773651123047,119.10049438476562,-1.7791163921356201,0.7300761938095093,-0.10039615631103516,614.2738246917725
D4:22:CD:00:05:6E,50.528175354003906,37.750858306884766,35.1905403137207,6.3763275146484375,2.508297920227051,-13.55404281616211,614.2738246917725
D4:22:CD:00:05:5E,-151.04965209960938,-29.03726577758789,-57.95991897583008,-1.6099786758422852,-2.9607672691345215,-7.848346710205078,614.2738246917725
D4:22:CD:00:05:5D,-172.02410888671875,-71.28126525878906,-123.18399047851562,-0.46201157569885254,-0.07315869629383087,0.0865020751953125,614.3088274002075
D4:22:CD:00:05:6B,-128.98854064941406,-80.76580047607422,-1.194735050201416,-3.8046326637268066,0.7878475189208984,-1.29669189453125,614.3088274002075
D4:22:CD:00:49:AA,152.50189208984375,-70.00897216796875,122.67214965820312,-2.301164150238037,-0.5620874166488647,1.9609651565551758,614.3088274002075
D4:22:CD:00:05:6E,60.6063232421875,19.662738800048828,38.907039642333984,8.845836639404297,14.04088020324707,3.820249557495117,614.3088274002075
D4:22:CD:00:05:5E,-160.276123046875,-31.947120666503906,-52.13380813598633,9.69174575805664,-5.179749488830566,-3.071605682373047,614.3088274002075
D4:22:CD:00:05:5D,-171.8753204345703,-69.46019744873047,-122.63433837890625,1.9572062492370605,-1.425471305847168,-0.03131866455078125,614.3334150314331
D4:22:CD:00:05:6B,-124.70246887207031,-79.48341369628906,-8.157341003417969,-1.3926620483398438,3.0953869819641113,-0.9718894958496094,614.3334150314331
D4:22:CD:00:49:AA,147.76535034179688,-70.17924499511719,126.51351928710938,-2.148782253265381,-0.5577812194824219,-1.5515727996826172,614.3334150314331
D4:22:CD:00:05:6E,55.73775100708008,-1.077737808227539,40.58351516723633,14.915546417236328,5.097260475158691,-5.597845077514648,614.3334150314331
D4:22:CD:00:05:5E,-163.3363494873047,-39.4996452331543,-48.22737503051758,15.879560470581055,-10.142436981201172,-5.754911422729492,614.3334150314331
D4:22:CD:00:05:5D,-172.0521697998047,-67.92317962646484,-121.4771957397461,-0.0878242701292038,0.19892451167106628,0.27852439880371094,614.3637049198151
D4:22:CD:00:05:6B,-119.21484375,-77.72151947021484,-19.577592849731445,5.375418663024902,-1.1330790519714355,-2.289827346801758,614.3637049198151
D4:22:CD:00:49:AA,143.2978973388672,-70.05070495605469,130.5342559814453,-0.21915578842163086,-0.26385432481765747,-2.2421011924743652,614.3637049198151
D4:22:CD:00:05:6E,55.635501861572266,-23.220211029052734,43.22978591918945,23.191669464111328,16.730819702148438,8.623401641845703,614.3637049198151
D4:22:CD:00:05:5E,-164.52052307128906,-48.41400909423828,-44.88119888305664,-12.870431900024414,6.8475236892700195,27.881698608398438,614.3637049198151
D4:22:CD:00:05:5D,-172.92405700683594,-66.25442504882812,-120.28250122070312,-0.6762902736663818,-0.5825375318527222,0.4100942611694336,614.393009185791
D4:22:CD:00:05:6B,-114.20179748535156,-74.58885192871094,-37.63477325439453,1.7981715202331543,11.057868957519531,2.014462471008301,614.393009185791
D4:22:CD:00:49:AA,139.98733520507812,-69.64947509765625,135.14674377441406,-1.7936339378356934,-2.725466251373291,-1.881291389465332,614.393009185791
D4:22:CD:00:05:6E,52.85599136352539,-40.441551208496094,48.778656005859375,14.342281341552734,13.063627243041992,22.381900787353516,614.393009185791
D4:22:CD:00:05:5E,-167.90829467773438,-50.13393783569336,-41.74006271362305,5.842436790466309,9.527353286743164,-6.750019073486328,614.393009185791
D4:22:CD:00:05:5D,-174.4180145263672,-64.1142578125,-118.52103424072266,-2.188633918762207,-0.6207854747772217,4.765586853027344,614.4235713481903
D4:22:CD:00:05:6B,-99.48687744140625,-70.45706939697266,-55.63583755493164,1.071946620941162,8.27322769165039,3.680058479309082,614.4235713481903
D4:22:CD:00:49:AA,138.02859497070312,-69.4753646850586,139.10540771484375,-2.449538230895996,-0.8743859529495239,-3.375375747680664,614.4235713481903
D4:22:CD:00:05:6E,46.287635803222656,-44.8756217956543,49.22077178955078,8.02210807800293,5.802387237548828,-8.089752197265625,614.4235713481903
D4:22:CD:00:05:5E,-172.35276794433594,-51.86174774169922,-39.71860885620117,5.477591514587402,-0.6306500434875488,1.9270496368408203,614.4235713481903
D4:22:CD:00:05:5D,178.51385498046875,-63.54755401611328,-114.75068664550781,-5.041703224182129,-6.227717399597168,7.357761383056641,614.4535727500916
D4:22:CD:00:05:6B,-86.493896484375,-62.4556999206543,-68.03659057617188,-0.6317431926727295,8.709329605102539,8.652397155761719,614.4535727500916
D4:22:CD:00:49:AA,138.9026641845703,-69.11569213867188,140.68313598632812,-0.3104342222213745,0.6699353456497192,-2.080181121826172,614.4535727500916
D4:22:CD:00:05:6E,46.53013229370117,-46.33451461791992,45.87096405029297,7.743041038513184,-2.6292786598205566,-2.9356794357299805,614.4535727500916
D4:22:CD:00:05:5E,-175.2869110107422,-55.963321685791016,-37.882755279541016,4.8430681228637695,-4.403038024902344,5.832193374633789,614.4535727500916
D4:22:CD:00:05:5D,171.66470336914062,-59.703216552734375,-108.5194091796875,-3.8280372619628906,11.96377182006836,-15.525236129760742,614.4835765361786
D4:22:CD:00:05:6B,-77.30743408203125,-50.50848388671875,-74.14803314208984,-5.474242210388184,11.934288024902344,13.957487106323242,614.4835765361786
D4:22:CD:00:49:AA,140.07601928710938,-68.61865997314453,141.14907836914062,-2.210761547088623,4.761038780212402,2.558063507080078,614.4835765361786
D4:22:CD:00:05:6E,47.14140701293945,-47.21812438964844,47.691375732421875,3.9919166564941406,-3.995628833770752,-0.3634166717529297,614.4835765361786
D4:22:CD:00:05:5E,-177.3163604736328,-56.875328063964844,-37.46333694458008,0.4086740016937256,-8.340747833251953,6.650821685791016,614.4835765361786
D4:22:CD:00:05:5D,173.95462036132812,-57.930660247802734,-105.23787689208984,15.228008270263672,14.618610382080078,-17.18520736694336,614.5436997413635
D4:22:CD:00:05:6B,-71.30207824707031,-35.02368927001953,-73.9127197265625,-4.250077247619629,10.045938491821289,14.015924453735352,614.5436997413635
D4:22:CD:00:49:AA,137.5930633544922,-68.6164779663086,143.36257934570312,-1.3159902095794678,1.6952838897705078,5.257883071899414,614.5436997413635
D4:22:CD:00:05:6E,51.12738800048828,-47.52741241455078,50.111141204833984,7.284172058105469,2.599134922027588,-3.1976685523986816,614.5436997413635
D4:22:CD:00:05:5E,-174.52491760253906,-52.7089958190918,-39.77708435058594,5.386785507202148,-14.199014663696289,3.3254032135009766,614.5436997413635
D4:22:CD:00:05:5D,-179.3284149169922,-57.48838424682617,-105.9421615600586,10.202800750732422,-9.773015975952148,13.78889274597168,614.5736968517303
D4:22:CD:00:05:6B,-64.08892822265625,-16.157590866088867,-70.08635711669922,3.8713278770446777,4.00685977935791,18.61642837524414,614.5736968517303
D4:22:CD:00:49:AA,140.2269744873047,-67.36531066894531,140.072998046875,2.4866719245910645,-1.0419461727142334,3.8161745071411133,614.5736968517303
D4:22:CD:00:05:6E,55.47491455078125,-47.965850830078125,51.36159133911133,10.621267318725586,17.278411865234375,3.9942827224731445,614.5736968517303
D4:22:CD:00:05:5E,-166.66275024414062,-47.33928680419922,-41.92565155029297,7.148148536682129,-16.078041076660156,14.358112335205078,614.5736968517303
D4:22:CD:00:05:5D,178.86886596679688,-57.88814163208008,-105.12271881103516,1.8315660953521729,-0.8870503902435303,-2.123867988586426,614.6034605503082
D4:22:CD:00:05:6B,-46.41645812988281,4.161595344543457,-65.41594696044922,7.656583786010742,-8.930076599121094,14.839933395385742,614.6034605503082
D4:22:CD:00:49:AA,142.7344207763672,-65.6793212890625,135.86279296875,-5.7705793380737305,-1.8315799236297607,10.753650665283203,614.6034605503082
D4:22:CD:00:05:6E,58.42683792114258,-48.61290740966797,50.22947692871094,9.071401596069336,13.319192886352539,-2.060838222503662,614.6034605503082
D4:22:CD:00:05:5E,-160.83071899414062,-38.784549713134766,-43.52769470214844,4.424142837524414,-16.6358642578125,11.824333190917969,614.6034605503082
