Device,EulerX,EulerY,EulerZ,FreeAccX,FreeAccY,FreeAccZ,Timestamp
D4:22:CD:00:05:5D,147.63023376464844,-64.4338607788086,-71.31183624267578,-0.953590989112854,-0.3467879295349121,4.423358917236328,1447.8812265396118
D4:22:CD:00:05:6B,-20.526277542114258,15.457893371582031,-60.4921875,4.243538856506348,-12.714958190917969,-0.9101505279541016,1447.8812265396118
D4:22:CD:00:49:AA,132.80410766601562,-82.13507843017578,157.3538818359375,-3.9404358863830566,-1.8117125034332275,3.8460311889648438,1447.8812265396118
D4:22:CD:00:05:6E,155.2483367919922,-63.05266571044922,-0.31056302785873413,5.844040870666504,-9.941200256347656,0.12183570861816406,1447.8812265396118
D4:22:CD:00:05:5E,-162.82774353027344,-29.856966018676758,-138.1774444580078,-18.75347900390625,-17.111419677734375,6.844333648681641,1447.8812265396118
D4:22:CD:00:05:6B,-19.145381927490234,18.631793975830078,-44.68712615966797,5.782838821411133,-3.8764548301696777,3.8570032119750977,1447.8882386684418
D4:22:CD:00:49:AA,133.20950317382812,-81.70026397705078,156.99307250976562,-2.3893494606018066,-0.5717389583587646,1.5274696350097656,1447.8882386684418
D4:22:CD:00:05:6E,144.8223876953125,-58.674652099609375,-0.5768702030181885,12.79503059387207,-5.323265075683594,0.7485580444335938,1447.8882386684418
D4:22:CD:00:05:5E,-170.53395080566406,-25.024105072021484,-136.4542236328125,-0.6462550163269043,-7.557521820068359,0.40064430236816406,1447.8882386684418
D4:22:CD:00:05:5D,-137.5379180908203,-68.9480209350586,-127.76124572753906,-2.4428954124450684,1.1975677013397217,-0.6533193588256836,1447.8922340869904
D4:22:CD:00:05:6B,-16.971342086791992,20.8546085357666,-31.234161376953125,-3.961574077606201,4.450310707092285,1.7120361328125,1447.8922340869904
D4:22:CD:00:49:AA,137.57460021972656,-80.95165252685547,151.32302856445312,0.045111171901226044,-4.506135940551758,3.3655691146850586,1447.8922340869904
D4:22:CD:00:05:6E,132.93577575683594,-55.39315414428711,1.675963044166565,15.755104064941406,-0.7162200212478638,0.0851287841796875,1447.8922340869904
D4:22:CD:00:05:5E,-171.09210205078125,-23.86041831970215,-134.46978759765625,-5.280118942260742,-3.696323871612549,-0.7617511749267578,1447.8922340869904
D4:22:CD:00:05:5D,-157.8977508544922,-67.31444549560547,-105.87681579589844,-2.7834033966064453,0.47469455003738403,-0.0836935043334961,1447.8972265720367
D4:22:CD:00:05:6B,-72.41746520996094,-41.91902160644531,-77.8103256225586,0.5201108455657959,0.5474374294281006,-3.348149299621582,1447.8972265720367
D4:22:CD:00:49:AA,145.41348266601562,-80.0448989868164,141.5478057861328,4.299699783325195,3.7039928436279297,2.365476608276367,1447.8972265720367
D4:22:CD:00:05:6E,123.69145202636719,-51.98983383178711,5.566142559051514,10.184627532958984,2.5484695434570312,-0.8552875518798828,1447.8972265720367
D4:22:CD:00:05:5E,-172.80621337890625,-23.777172088623047,-132.04518127441406,-5.886934280395508,-5.581411361694336,-2.377851963043213,1447.8972265720367
D4:22:CD:00:05:5D,174.8106689453125,-55.044105529785156,-78.59121704101562,-1.2231855392456055,-0.09055313467979431,0.7178945541381836,1447.9042315483093
D4:22:CD:00:05:6B,-46.79573440551758,-27.15700912475586,-106.72491455078125,-4.729079246520996,-0.2849431037902832,14.275321960449219,1447.9042315483093
D4:22:CD:00:49:AA,124.30200958251953,-71.6522216796875,167.1896209716797,-6.631848335266113,1.626821517944336,4.702486991882324,1447.9042315483093
D4:22:CD:00:05:5D,173.0567169189453,-52.1735725402832,-77.46621704101562,-0.7973142862319946,0.8305023908615112,1.6761789321899414,1447.946747303009
D4:22:CD:00:05:6B,-46.07477951049805,-18.950946807861328,-103.78974914550781,5.179196357727051,-0.33538126945495605,17.588287353515625,1447.946747303009
D4:22:CD:00:49:AA,137.43548583984375,-77.90270233154297,153.0595703125,0.07034221291542053,0.23563361167907715,10.493928909301758,1447.946747303009
D4:22:CD:00:05:6E,-69.40924072265625,-57.65322494506836,-160.77735900878906,0.5915621519088745,3.991178512573242,15.64879035949707,1447.946747303009
D4:22:CD:00:05:5E,-179.63385009765625,-68.44386291503906,-35.95200729370117,1.728653907775879,-4.205222129821777,13.183341979980469,1447.946747303009
D4:22:CD:00:05:5D,172.9944610595703,-51.08261489868164,-78.52821350097656,-0.7495959997177124,0.8041566610336304,1.9125452041625977,1447.976937532425
D4:22:CD:00:05:6B,-39.991790771484375,-8.069136619567871,-99.71058654785156,6.972138404846191,-4.0642194747924805,25.33742904663086,1447.976937532425
D4:22:CD:00:49:AA,147.65554809570312,-79.67294311523438,142.62171936035156,2.4289698600769043,-2.115725517272949,8.219818115234375,1447.976937532425
D4:22:CD:00:05:6E,-72.91089630126953,-51.23545455932617,-153.60470581054688,-12.209821701049805,1.1046240329742432,10.947612762451172,1447.976937532425
D4:22:CD:00:05:5E,157.30242919921875,-75.95563507080078,-15.61873722076416,0.7356933355331421,0.32746410369873047,7.391750335693359,1447.976937532425
D4:22:CD:00:05:5D,173.75193786621094,-51.53824996948242,-80.2397689819336,0.3235340714454651,1.2114684581756592,2.038951873779297,1448.0069377422333
D4:22:CD:00:05:6B,-27.543405532836914,4.233031749725342,-94.2554931640625,3.9754605293273926,-9.431493759155273,15.525411605834961,1448.0069377422333
D4:22:CD:00:49:AA,156.05882263183594,-79.0624771118164,134.1686553955078,-1.0063531398773193,-0.8640384674072266,7.674417495727539,1448.0069377422333
D4:22:CD:00:05:6E,-83.52356719970703,-55.453033447265625,-135.8002471923828,-10.992868423461914,-2.4836206436157227,9.763290405273438,1448.0069377422333
D4:22:CD:00:05:5E,142.3140106201172,-78.21861267089844,-2.103220224380493,1.3969342708587646,0.482296884059906,4.0978899002075195,1448.0069377422333
D4:22:CD:00:05:5D,174.7272186279297,-53.513004302978516,-82.32913208007812,-1.1584367752075195,1.181135654449463,2.5987024307250977,1448.0669329166412
D4:22:CD:00:05:6B,-13.96213150024414,14.641642570495605,-87.17479705810547,0.14281415939331055,-8.627969741821289,6.298500061035156,1448.0669329166412
D4:22:CD:00:49:AA,166.2768096923828,-78.88190460205078,124.7631607055664,-1.9786162376403809,0.05171821266412735,7.290824890136719,1448.0669329166412
D4:22:CD:00:05:6E,-91.15452575683594,-57.36503982543945,-118.27214813232422,-10.650407791137695,-9.534639358520508,7.614860534667969,1448.0669329166412
D4:22:CD:00:05:5E,132.7058868408203,-81.07148742675781,8.103631973266602,2.85025691986084,6.783014297485352,0.46517372131347656,1448.0669329166412
D4:22:CD:00:05:5D,175.30491638183594,-57.170326232910156,-84.42948913574219,-0.23842373490333557,1.4790756702423096,2.9634265899658203,1448.0970814228058
D4:22:CD:00:05:6B,-1.5401829481124878,21.50165367126465,-80.8565902709961,-4.161965370178223,-8.763711929321289,2.711496353149414,1448.0970814228058
D4:22:CD:00:49:AA,177.19393920898438,-78.88683319091797,115.45784759521484,-2.460236072540283,0.49072265625,2.290069580078125,1448.0970814228058
D4:22:CD:00:05:6E,-95.89286041259766,-57.28593826293945,-105.14641571044922,-11.363323211669922,-14.733444213867188,3.24550724029541,1448.0970814228058
D4:22:CD:00:05:5E,117.1446304321289,-86.56869506835938,24.076730728149414,4.704256057739258,5.71308708190918,-2.8569440841674805,1448.0970814228058
D4:22:CD:00:05:5D,175.36656188964844,-62.51289749145508,-85.3713150024414,-1.6002562046051025,-1.7750298976898193,3.9949169158935547,1448.1266567707062
D4:22:CD:00:05:6B,12.077306747436523,27.109619140625,-78.10929107666016,-7.845277786254883,-7.300122261047363,-5.0882158279418945,1448.1266567707062
D4:22:CD:00:49:AA,-172.47787475585938,-78.81685638427734,107.78318786621094,-0.9592751264572144,0.1188431829214096,-4.1752214431762695,1448.1266567707062
D4:22:CD:00:05:6E,-102.14459228515625,-56.1856575012207,-92.70255279541016,-5.899736404418945,-14.854269027709961,-1.7618494033813477,1448.1266567707062
D4:22:CD:00:05:5E,-10.107637405395508,-84.97640991210938,152.65757751464844,4.890812873840332,5.413596153259277,-4.262822151184082,1448.1266567707062
D4:22:CD:00:05:5D,171.76622009277344,-69.71302032470703,-83.4078140258789,-5.0885820388793945,-6.177227020263672,2.3224868774414062,1448.1571681499481
D4:22:CD:00:05:6B,27.00919532775879,31.67294692993164,-77.86482238769531,-11.966728210449219,-3.0732789039611816,-9.495731353759766,1448.1571681499481
D4:22:CD:00:49:AA,-164.11392211914062,-77.59834289550781,103.3954086303711,-1.9161505699157715,-0.5898391008377075,-8.712989807128906,1448.1571681499481
D4:22:CD:00:05:6E,-106.72311401367188,-54.556861877441406,-82.50517272949219,-1.99220871925354,-11.909029006958008,-7.75914192199707,1448.1571681499481
D4:22:CD:00:05:5E,-14.092997550964355,-75.50894927978516,159.82225036621094,2.720241069793701,4.4260969161987305,-5.814379692077637,1448.1571681499481
D4:22:CD:00:05:5D,166.7130889892578,-72.61384582519531,-72.00065612792969,1.4575793743133545,-1.5083353519439697,-2.4906954765319824,1448.1871542930603
D4:22:CD:00:05:6B,42.1907958984375,34.94356155395508,-80.09156799316406,-7.403101921081543,1.4634907245635986,-10.561014175415039,1448.1871542930603
D4:22:CD:00:49:AA,-160.58787536621094,-76.39457702636719,103.1606674194336,1.471524953842163,0.832405686378479,-9.659440994262695,1448.1871542930603
D4:22:CD:00:05:6E,-108.4923095703125,-53.97970199584961,-75.01700592041016,-1.3593480587005615,-8.54745864868164,-10.427587509155273,1448.1871542930603
D4:22:CD:00:05:5E,-11.119124412536621,-65.67235565185547,158.2278289794922,-1.8076393604278564,3.3283891677856445,-8.382261276245117,1448.1871542930603
D4:22:CD:00:05:5D,162.29495239257812,-72.66290283203125,-61.550167083740234,2.290670871734619,1.429196834564209,-7.9906463623046875,1448.216957807541
D4:22:CD:00:05:6B,52.70701217651367,38.77577209472656,-86.09954071044922,-0.5190017223358154,1.0444045066833496,-9.407878875732422,1448.216957807541
D4:22:CD:00:49:AA,-160.73257446289062,-77.04841613769531,105.63175964355469,3.259267807006836,2.0710134506225586,-7.351897239685059,1448.216957807541
D4:22:CD:00:05:6E,-110.38558197021484,-54.42734146118164,-68.47947692871094,0.024829942733049393,-5.666196823120117,-11.286540985107422,1448.216957807541
D4:22:CD:00:05:5E,-12.883788108825684,-56.19261169433594,156.23587036132812,-6.227949142456055,5.045351028442383,-12.622718811035156,1448.216957807541
D4:22:CD:00:05:5D,160.14434814453125,-72.39810943603516,-54.33991241455078,7.888261795043945,-2.608700752258301,-8.914972305297852,1448.246681213379
D4:22:CD:00:05:6B,55.092369079589844,43.62861251831055,-96.3941879272461,1.8364384174346924,-1.553206205368042,-9.175485610961914,1448.246681213379
D4:22:CD:00:49:AA,-160.89402770996094,-79.34310913085938,108.00146484375,0.1471124291419983,1.3635709285736084,-5.599112510681152,1448.246681213379
D4:22:CD:00:05:6E,-110.78700256347656,-55.762081146240234,-62.807865142822266,3.103844165802002,-4.833483695983887,-9.004556655883789,1448.246681213379
D4:22:CD:00:05:5E,-17.77047348022461,-47.70453643798828,154.2205352783203,-13.778839111328125,8.61311149597168,-11.40782356262207,1448.246681213379
D4:22:CD:00:05:5D,161.94583129882812,-72.04177856445312,-52.410831451416016,0.39309006929397583,7.452425003051758,-1.1468496322631836,1448.2769718170166
D4:22:CD:00:05:6B,49.260841369628906,49.37291717529297,-111.9310073852539,5.268641471862793,-1.4823644161224365,-8.903837203979492,1448.2769718170166
D4:22:CD:00:49:AA,-160.7272491455078,-81.81767272949219,108.97660827636719,0.5339046716690063,1.3219950199127197,-1.5063304901123047,1448.2769718170166
D4:22:CD:00:05:6E,-107.78589630126953,-57.884029388427734,-58.77228927612305,3.9409303665161133,-6.547621726989746,-7.968207359313965,1448.2769718170166
D4:22:CD:00:05:5E,-27.6806640625,-42.99047088623047,154.83624267578125,-19.89232635498047,10.036298751831055,-15.663448333740234,1448.2769718170166
D4:22:CD:00:05:5D,162.97276306152344,-70.23575592041016,-52.03294372558594,3.4095516204833984,-0.33629703521728516,-1.2250699996948242,1448.3367087841034
D4:22:CD:00:05:6B,32.877288818359375,53.25069808959961,-136.54421997070312,-0.11397874355316162,-2.8921093940734863,-14.285558700561523,1448.3367087841034
D4:22:CD:00:49:AA,-164.6152801513672,-84.3359375,111.971923828125,1.327712059020996,2.064545154571533,1.5791997909545898,1448.3367087841034
D4:22:CD:00:05:6E,-104.7578353881836,-60.41305160522461,-55.812767028808594,5.60075569152832,-7.672046661376953,-6.083677291870117,1448.3367087841034
D4:22:CD:00:05:5E,-37.36783981323242,-43.099796295166016,157.52975463867188,-22.488765716552734,16.93365478515625,-30.571815490722656,1448.3367087841034
D4:22:CD:00:05:5D,162.72634887695312,-68.19609069824219,-50.144447326660156,-1.0435981750488281,-3.1473827362060547,2.0655393600463867,1448.3671488761902
D4:22:CD:00:05:6B,9.428933143615723,50.689239501953125,-163.7364501953125,-11.850481033325195,-1.6551623344421387,-25.828487396240234,1448.3671488761902
D4:22:CD:00:49:AA,-179.3504638671875,-87.35565948486328,123.89885711669922,-0.23306187987327576,-1.1082556247711182,2.753049850463867,1448.3671488761902
D4:22:CD:00:05:6E,-103.29300689697266,-62.687252044677734,-53.535377502441406,7.0048933029174805,-8.914913177490234,-6.151851654052734,1448.3671488761902
D4:22:CD:00:05:5E,-45.22456359863281,-49.93010711669922,163.06698608398438,-15.62137222290039,-1.5402843952178955,-12.074542999267578,1448.3671488761902
D4:22:CD:00:05:5D,161.4236602783203,-66.3271484375,-46.596649169921875,2.475046157836914,-0.3084217309951782,1.7947254180908203,1448.3971500396729
D4:22:CD:00:05:6B,-12.441726684570312,43.452266693115234,-178.77711486816406,3.083366870880127,1.874636173248291,-19.60476303100586,1448.3971500396729
D4:22:CD:00:49:AA,107.88167572021484,-89.29529571533203,-166.09210205078125,-3.326079845428467,-3.948483467102051,2.13114070892334,1448.3971500396729
D4:22:CD:00:05:6E,-105.04938507080078,-64.27674865722656,-51.48747634887695,7.972448348999023,-7.513589859008789,-4.807798385620117,1448.3971500396729
D4:22:CD:00:05:5E,-44.89310836791992,-56.65575408935547,166.96900939941406,-0.06993496417999268,-13.113664627075195,12.905879974365234,1448.3971500396729
D4:22:CD:00:05:5D,158.47735595703125,-64.91105651855469,-42.41620635986328,1.9093329906463623,-1.1164448261260986,4.34780216217041,1448.4271738529205
D4:22:CD:00:05:6B,-33.83614730834961,42.12841033935547,-173.6639404296875,6.769352912902832,-2.2370176315307617,-4.31965446472168,1448.4271738529205
D4:22:CD:00:49:AA,45.07897186279297,-89.05168151855469,-104.40377044677734,-3.596465587615967,-3.543684482574463,3.8755359649658203,1448.4271738529205
D4:22:CD:00:05:6E,-110.98248291015625,-65.7508316040039,-48.209537506103516,8.935096740722656,-8.006959915161133,-2.9742379188537598,1448.4271738529205
D4:22:CD:00:05:5E,-57.31489181518555,-62.29376983642578,177.27947998046875,-20.024810791015625,-10.051630020141602,-13.645696640014648,1448.4271738529205
D4:22:CD:00:05:5D,152.8718719482422,-63.95603561401367,-37.80564498901367,1.4395475387573242,-1.358546257019043,3.2465572357177734,1448.4567036628723
D4:22:CD:00:05:6B,-46.96661376953125,46.315773010253906,-163.7403564453125,-12.256437301635742,5.493775367736816,1.8422813415527344,1448.4567036628723
D4:22:CD:00:49:AA,24.47396469116211,-88.91088104248047,-84.3989028930664,2.4503254890441895,-2.980897903442383,2.228793144226074,1448.4567036628723
D4:22:CD:00:05:6E,-122.25970458984375,-67.02925109863281,-42.65122985839844,10.08329963684082,-7.38517951965332,1.704763412475586,1448.4567036628723
D4:22:CD:00:05:5E,-75.30146026611328,-65.85875701904297,-171.7925262451172,7.436687469482422,13.67765998840332,6.312227249145508,1448.4567036628723
D4:22:CD:00:05:5D,147.93099975585938,-63.51396942138672,-32.54645919799805,-1.2381987571716309,-0.6896494626998901,2.5155868530273438,1448.4869561195374
D4:22:CD:00:05:6B,-42.27741241455078,49.93482208251953,-152.46133422851562,-6.203925132751465,1.9608416557312012,-7.825596809387207,1448.4869561195374
D4:22:CD:00:49:AA,-4.359204292297363,-89.00025177001953,-55.04124450683594,-0.12251438200473785,0.821295976638794,-1.0943775177001953,1448.4869561195374
D4:22:CD:00:05:6E,-136.86109924316406,-69.0521240234375,-34.31412124633789,10.630088806152344,-2.953732967376709,4.616203308105469,1448.4869561195374
D4:22:CD:00:05:5E,-74.39566040039062,-67.97531127929688,-168.809814453125,-9.441854476928711,2.4913506507873535,-1.9795279502868652,1448.4869561195374
D4:22:CD:00:05:5D,141.56361389160156,-63.516151428222656,-27.33680534362793,1.670074462890625,0.7634742259979248,0.6492280960083008,1448.5169560909271
D4:22:CD:00:05:6B,-33.601932525634766,50.8416862487793,-136.70899963378906,-7.579832077026367,0.9611704349517822,-9.7501220703125,1448.5169560909271
D4:22:CD:00:49:AA,-73.08666229248047,-88.85945129394531,12.281601905822754,3.2547812461853027,5.243927955627441,-2.8835701942443848,1448.5169560909271
D4:22:CD:00:05:6E,-152.3572540283203,-71.9480209350586,-22.617454528808594,6.0126495361328125,1.9016218185424805,1.0795202255249023,1448.5169560909271
D4:22:CD:00:05:5E,-79.41474151611328,-70.52992248535156,-165.06248474121094,-5.5060014724731445,1.9189682006835938,-0.5515766143798828,1448.5169560909271
D4:22:CD:00:05:5D,134.0082550048828,-63.25688171386719,-23.03840446472168,5.129785537719727,1.1161258220672607,0.7450294494628906,1448.5468788146973
D4:22:CD:00:05:6B,-29.54957389831543,48.19327163696289,-119.60411071777344,-11.043231964111328,0.2665247917175293,0.6517372131347656,1448.5468788146973
D4:22:CD:00:49:AA,-138.0997772216797,-87.79008483886719,74.30806732177734,8.370378494262695,1.9020187854766846,-3.3742947578430176,1448.5468788146973
D4:22:CD:00:05:6E,-169.13621520996094,-73.92379760742188,-9.110215187072754,2.106449604034424,3.717801570892334,0.36615753173828125,1448.5468788146973
D4:22:CD:00:05:5E,-83.1448745727539,-72.71588897705078,-162.6758575439453,-4.763383865356445,3.177619457244873,-2.026273250579834,1448.5468788146973
D4:22:CD:00:05:5D,123.67363739013672,-63.613773345947266,-20.853504180908203,6.457308769226074,7.052544593811035,-1.1390857696533203,1448.576954126358
D4:22:CD:00:05:6B,-23.926132202148438,43.30583953857422,-106.4909439086914,-6.385409355163574,0.6708731651306152,6.501897811889648,1448.576954126358
D4:22:CD:00:49:AA,-159.6490936279297,-84.42884063720703,92.69862365722656,4.400984764099121,-0.8307795524597168,0.5678443908691406,1448.576954126358
D4:22:CD:00:05:6E,177.05003356933594,-74.69181823730469,-0.3244269788265228,1.7905750274658203,2.5774483680725098,2.3952245712280273,1448.576954126358
D4:22:CD:00:05:5E,-83.78411865234375,-74.501953125,-162.60546875,-4.647189140319824,2.7001309394836426,-0.3232278823852539,1448.576954126358
D4:22:CD:00:05:5D,119.4354476928711,-62.07395553588867,-29.021730422973633,11.545183181762695,16.753334045410156,2.3933305740356445,1448.63760304451
D4:22:CD:00:05:6B,-18.33161735534668,36.48495101928711,-95.38676452636719,-4.686954498291016,7.886150360107422,7.113025665283203,1448.63760304451
D4:22:CD:00:49:AA,-158.44639587402344,-81.44588470458984,89.41291809082031,0.928939700126648,-0.11603540182113647,1.7163887023925781,1448.63760304451
D4:22:CD:00:05:6E,166.38697814941406,-74.83435821533203,5.646655559539795,-1.5573184490203857,-0.024713434278964996,1.9542236328125,1448.63760304451
D4:22:CD:00:05:5E,-82.62472534179688,-76.18991088867188,-164.1072235107422,-4.7604265213012695,2.536649703979492,-0.7354068756103516,1448.63760304451
D4:22:CD:00:05:5D,125.54886627197266,-56.5751838684082,-44.091007232666016,10.39508056640625,15.230031967163086,8.549936294555664,1448.6667177677155
D4:22:CD:00:05:6B,-10.561347007751465,25.864519119262695,-83.84091186523438,-8.347026824951172,7.01885986328125,-2.630162239074707,1448.6667177677155
D4:22:CD:00:49:AA,-156.70555114746094,-80.36957550048828,87.82415771484375,3.955648422241211,1.7070136070251465,4.711286544799805,1448.6667177677155
D4:22:CD:00:05:6E,157.59429931640625,-74.552978515625,9.98911190032959,-3.107414722442627,2.1106948852539062,2.7520666122436523,1448.6667177677155
D4:22:CD:00:05:5E,-79.09243774414062,-77.82955932617188,-168.0500946044922,-4.874453544616699,2.3367514610290527,-0.5189838409423828,1448.6667177677155
D4:22:CD:00:05:5D,136.08267211914062,-48.00450134277344,-58.774139404296875,8.426183700561523,6.202236175537109,1.724696159362793,1448.6969788074493
D4:22:CD:00:05:6B,-0.6936461925506592,10.414015769958496,-72.05721282958984,1.5243785381317139,-5.992275238037109,-10.908037185668945,1448.6969788074493
D4:22:CD:00:49:AA,-155.84768676757812,-80.29518127441406,87.49481201171875,5.482970237731934,4.574920654296875,2.9398574829101562,1448.6969788074493
D4:22:CD:00:05:6E,154.160888671875,-75.34233856201172,11.974037170410156,-1.9078645706176758,3.3864002227783203,3.3495731353759766,1448.6969788074493
D4:22:CD:00:05:5E,-70.43621063232422,-79.1496810913086,-176.05223083496094,-5.834107398986816,0.6115045547485352,-0.16612529754638672,1448.6969788074493
D4:22:CD:00:05:5D,145.4326629638672,-39.12629699707031,-71.27947235107422,3.218417167663574,-1.613494873046875,-2.2153563499450684,1448.7269833087921
D4:22:CD:00:05:6B,1.1644850969314575,-6.2222185134887695,-60.80572509765625,20.51291275024414,-1.7086706161499023,-4.06854248046875,1448.7269833087921
D4:22:CD:00:49:AA,-155.34054565429688,-80.17280578613281,85.45761108398438,5.58613395690918,2.9253106117248535,-0.27141475677490234,1448.7269833087921
D4:22:CD:00:05:6E,155.29783630371094,-76.7189712524414,14.92799186706543,-2.9299206733703613,0.6133583784103394,1.1565570831298828,1448.7269833087921
D4:22:CD:00:05:5E,-38.0233268737793,-78.82154846191406,157.07107543945312,-1.3489949703216553,1.763054609298706,-1.5412187576293945,1448.7269833087921
D4:22:CD:00:05:5D,152.75030517578125,-31.085683822631836,-80.7978286743164,0.46151286363601685,-4.458803176879883,-7.747365951538086,1448.7577922344208
D4:22:CD:00:05:6B,-15.801793098449707,-20.522632598876953,-50.143829345703125,-1.2653944492340088,-6.372211456298828,-6.277185440063477,1448.7577922344208
D4:22:CD:00:49:AA,-156.42144775390625,-80.61695098876953,85.59941864013672,3.924567222595215,0.4827048182487488,-1.3140239715576172,1448.7577922344208
D4:22:CD:00:05:6E,155.1937713623047,-76.92552185058594,20.252880096435547,-0.5486148595809937,-1.8273353576660156,-1.2554588317871094,1448.7577922344208
D4:22:CD:00:05:5E,-37.31464385986328,-78.97759246826172,159.43858337402344,-3.7336254119873047,3.559504508972168,0.020585060119628906,1448.7577922344208
D4:22:CD:00:05:5D,159.63575744628906,-25.589637756347656,-88.04786682128906,-1.1603782176971436,-3.4847826957702637,-12.189130783081055,1448.7869391441345
D4:22:CD:00:05:6B,-24.795612335205078,-29.78298568725586,-41.2341423034668,-7.532102584838867,-5.157414436340332,8.050838470458984,1448.7869391441345
D4:22:CD:00:49:AA,-159.36721801757812,-81.2659912109375,88.19779968261719,1.7903754711151123,0.8106846809387207,-2.713667392730713,1448.7869391441345
D4:22:CD:00:05:6E,152.76611328125,-75.86978912353516,26.499217987060547,1.108750343322754,-2.5008606910705566,-3.0751819610595703,1448.7869391441345
D4:22:CD:00:05:5E,-50.26348114013672,-79.44769287109375,172.48828125,-3.5381765365600586,-0.9975994825363159,-0.9820766448974609,1448.7869391441345
D4:22:CD:00:05:5D,164.82870483398438,-24.582054138183594,-94.61604309082031,-6.145585060119629,-6.695034980773926,-14.062383651733398,1448.817402601242
D4:22:CD:00:05:6B,-24.202226638793945,-34.685611724853516,-37.682369232177734,0.6042702198028564,6.313946723937988,-2.2783737182617188,1448.817402601242
D4:22:CD:00:49:AA,-160.90846252441406,-81.67503356933594,88.94679260253906,1.8326327800750732,0.33329272270202637,-6.573464393615723,1448.817402601242
D4:22:CD:00:05:6E,149.81295776367188,-74.29193878173828,32.49958801269531,2.0137577056884766,-2.5880789756774902,-4.7700347900390625,1448.817402601242
D4:22:CD:00:05:5E,-72.41552734375,-78.788818359375,-165.17544555664062,-2.191429615020752,-0.4970080852508545,-3.4996142387390137,1448.817402601242
D4:22:CD:00:05:5D,165.2451934814453,-28.823097229003906,-100.72943878173828,-12.228963851928711,-11.423625946044922,-14.493770599365234,1448.8470945358276
D4:22:CD:00:05:6B,-23.847049713134766,-39.08652877807617,-39.51112747192383,0.7575198411941528,3.9274210929870605,-7.922578811645508,1448.8470945358276
D4:22:CD:00:49:AA,-161.0066680908203,-81.723388671875,88.2101058959961,2.4989676475524902,-0.3350057601928711,-11.278797149658203,1448.8470945358276
D4:22:CD:00:05:6E,144.61279296875,-72.82270812988281,40.609336853027344,3.446707248687744,-2.510986328125,-5.988630294799805,1448.8470945358276
D4:22:CD:00:05:5E,-96.87860870361328,-75.58531951904297,-144.68731689453125,-5.150439262390137,8.017080307006836,-10.598913192749023,1448.8470945358276
D4:22:CD:00:05:5D,163.09738159179688,-31.635879516601562,-105.02713775634766,-9.13347053527832,10.198957443237305,24.396068572998047,1448.8771555423737
D4:22:CD:00:05:6B,-21.843528747558594,-45.34276580810547,-44.890838623046875,5.062475204467773,3.3727335929870605,-8.661968231201172,1448.8771555423737
D4:22:CD:00:49:AA,-161.37278747558594,-80.63275909423828,87.19418334960938,1.7277538776397705,-0.4496513605117798,-7.2721710205078125,1448.8771555423737
D4:22:CD:00:05:6E,136.26364135742188,-71.16111755371094,53.18547439575195,3.9162282943725586,-2.0722317695617676,-6.506433486938477,1448.8771555423737
D4:22:CD:00:05:5E,-112.1496810913086,-71.62142181396484,-134.85682678222656,-8.690511703491211,4.231558799743652,-7.356431007385254,1448.8771555423737
D4:22:CD:00:05:5D,162.05763244628906,-31.14922523498535,-105.70446014404297,-3.512864589691162,-9.85987663269043,-5.76563835144043,1448.9373042583466
D4:22:CD:00:05:6B,-15.128519058227539,-52.151180267333984,-55.78981399536133,1.851588249206543,-0.40580976009368896,10.297843933105469,1448.9373042583466
D4:22:CD:00:49:AA,-158.40304565429688,-80.5829086303711,80.17088317871094,1.4017333984375,-0.5059430599212646,1.964949607849121,1448.9373042583466
D4:22:CD:00:05:6E,126.14295196533203,-67.55216217041016,67.11304473876953,3.005643844604492,-7.737541198730469,-2.9826817512512207,1448.9373042583466
D4:22:CD:00:05:5E,-121.38385772705078,-68.32989501953125,-128.98374938964844,-8.056890487670898,-2.1913247108459473,0.16150379180908203,1448.9373042583466
D4:22:CD:00:05:5D,164.1896514892578,-30.622350692749023,-105.0609359741211,-6.040104866027832,-16.09502410888672,-2.1760287284851074,1448.9672861099243
D4:22:CD:00:05:6B,2.5675578117370605,-57.26273727416992,-75.02957916259766,12.255970001220703,-20.290245056152344,32.21040344238281,1448.9672861099243
D4:22:CD:00:49:AA,-157.2115020751953,-80.20479583740234,75.00733184814453,-5.909366607666016,-3.807365894317627,-0.9450263977050781,1448.9672861099243
D4:22:CD:00:05:6E,110.56217193603516,-60.34214782714844,77.59969329833984,5.719025611877441,-20.068912506103516,16.767318725585938,1448.9672861099243
D4:22:CD:00:05:5E,-127.84229278564453,-64.62028503417969,-124.78721618652344,-3.7094430923461914,3.005117416381836,3.630862236022949,1448.9672861099243
D4:22:CD:00:05:5D,164.91477966308594,-29.12737274169922,-104.22124481201172,-11.972949981689453,-12.835405349731445,10.630815505981445,1448.9970157146454
D4:22:CD:00:05:6B,3.2475645542144775,-58.08708572387695,-82.5650405883789,14.256305694580078,-17.28316879272461,18.353961944580078,1448.9970157146454
D4:22:CD:00:49:AA,-163.63572692871094,-79.2582015991211,80.93304443359375,0.22096490859985352,-3.1017990112304688,11.533601760864258,1448.9970157146454
D4:22:CD:00:05:6E,85.34955596923828,-48.984642028808594,85.32693481445312,14.706964492797852,-3.5915188789367676,26.71966552734375,1448.9970157146454
D4:22:CD:00:05:5E,-131.59544372558594,-62.9965705871582,-122.95079803466797,-3.231442928314209,3.1622519493103027,4.678530693054199,1448.9970157146454
D4:22:CD:00:05:5D,161.6903533935547,-25.21415901184082,-104.75896453857422,-4.605338096618652,-19.081268310546875,12.411882400512695,1449.026867389679
D4:22:CD:00:05:6B,-18.354049682617188,-55.31419372558594,-71.49270629882812,0.46021413803100586,-13.329090118408203,8.4324951171875,1449.026867389679
D4:22:CD:00:49:AA,-163.9396209716797,-78.54338073730469,82.12799835205078,7.134238243103027,5.703769683837891,12.247480392456055,1449.026867389679
D4:22:CD:00:05:6E,72.61856842041016,-32.598026275634766,91.8790054321289,6.850257873535156,-0.4342641830444336,12.266862869262695,1449.026867389679
D4:22:CD:00:05:5E,-132.2667694091797,-64.42118835449219,-123.43500518798828,-4.603696823120117,3.560058116912842,1.6472759246826172,1449.026867389679
D4:22:CD:00:05:5D,159.90611267089844,-20.823577880859375,-106.58537292480469,-9.342449188232422,-15.068233489990234,3.4677248001098633,1449.057032585144
D4:22:CD:00:05:6B,-27.510791778564453,-50.78975296020508,-65.20266723632812,-4.788852691650391,-5.159404754638672,11.111896514892578,1449.057032585144
D4:22:CD:00:49:AA,-168.04429626464844,-78.35861206054688,84.5524673461914,4.677115440368652,3.164480209350586,8.469680786132812,1449.057032585144
D4:22:CD:00:05:6E,71.1138687133789,-14.356598854064941,93.63371276855469,10.10777473449707,-1.3446173667907715,3.5971784591674805,1449.057032585144
D4:22:CD:00:05:5E,-130.19139099121094,-67.87333679199219,-126.73384857177734,-4.561456680297852,4.0960798263549805,2.068881034851074,1449.057032585144
D4:22:CD:00:05:5D,160.01943969726562,-20.76255226135254,-108.43655395507812,-8.930938720703125,-7.863965034484863,-4.943733215332031,1449.0873231887817
D4:22:CD:00:05:6B,-28.791393280029297,-48.96416473388672,-66.69295501708984,-1.1808512210845947,-2.148733139038086,3.801976203918457,1449.0873231887817
D4:22:CD:00:49:AA,-171.49703979492188,-78.36805725097656,87.96865844726562,2.58138370513916,2.788715362548828,10.95987319946289,1449.0873231887817
D4:22:CD:00:05:6E,69.45230865478516,2.1653664112091064,92.76163482666016,11.672840118408203,-3.024836540222168,-0.2932729721069336,1449.0873231887817
D4:22:CD:00:05:5E,-121.80015563964844,-72.81932830810547,-136.15435791015625,-6.5739946365356445,3.0882110595703125,3.152568817138672,1449.0873231887817
D4:22:CD:00:05:5D,163.0349578857422,-24.9985408782959,-110.114501953125,-3.519961357116699,-0.7060742378234863,1.737375259399414,1449.1169452667236
D4:22:CD:00:05:6B,-34.30635452270508,-48.73206329345703,-68.75548553466797,-1.9380991458892822,-4.107964515686035,-1.7001867294311523,1449.1169452667236
D4:22:CD:00:49:AA,-172.56736755371094,-78.97530364990234,89.70623016357422,4.30173397064209,1.588602066040039,4.209249496459961,1449.1169452667236
D4:22:CD:00:05:6E,63.95330047607422,15.0990571975708,91.50528717041016,5.772705078125,-1.63087797164917,6.126276016235352,1449.1169452667236
D4:22:CD:00:05:5E,-98.74830627441406,-77.06912231445312,-159.22576904296875,-5.579893112182617,0.3635343909263611,4.992506980895996,1449.1169452667236
D4:22:CD:00:05:5D,168.01927185058594,-35.061729431152344,-113.06736755371094,-2.6323628425598145,-11.869312286376953,-14.855756759643555,1449.147248506546
D4:22:CD:00:05:6B,-39.36347198486328,-49.50517272949219,-70.21586608886719,-2.945767879486084,-3.986623764038086,2.080183982849121,1449.147248506546
D4:22:CD:00:49:AA,-174.92259216308594,-78.94308471679688,92.3299560546875,3.118225574493408,1.06559157371521,-2.745905876159668,1449.147248506546
D4:22:CD:00:05:6E,55.52790069580078,24.43206787109375,90.5612564086914,3.1800670623779297,6.994693756103516,9.221456527709961,1449.147248506546
D4:22:CD:00:05:5E,-54.839359283447266,-76.89486694335938,160.1836700439453,0.07715946435928345,-1.5329713821411133,-1.9252796173095703,1449.147248506546
D4:22:CD:00:05:5D,167.4661865234375,-49.95142364501953,-116.77432250976562,-7.988903999328613,-3.414834499359131,-2.046346664428711,1449.1772034168243
D4:22:CD:00:05:6B,-41.26673126220703,-49.71682357788086,-70.74140930175781,0.07669198513031006,-2.4814672470092773,-0.7588586807250977,1449.1772034168243
D4:22:CD:00:49:AA,-178.9685516357422,-78.2417984008789,96.20101928710938,1.1792216300964355,1.0525591373443604,-7.140546798706055,1449.1772034168243
D4:22:CD:00:05:6E,48.47462844848633,32.835880279541016,90.8160171508789,-0.25462281703948975,11.915939331054688,5.065670013427734,1449.1772034168243
D4:22:CD:00:05:5E,-36.80850601196289,-73.93157958984375,145.41485595703125,-5.813153266906738,3.6922121047973633,-11.0704345703125,1449.1772034168243
D4:22:CD:00:05:5D,163.8972930908203,-68.16282653808594,-121.83833312988281,-6.929152488708496,-2.342515468597412,7.248516082763672,1449.237381219864
D4:22:CD:00:05:6B,-43.58781051635742,-48.4510612487793,-69.76480865478516,1.5749413967132568,-2.015395164489746,-4.203676223754883,1449.237381219864
D4:22:CD:00:49:AA,177.30218505859375,-77.0350570678711,99.32768249511719,1.175853967666626,0.9358764886856079,-8.988548278808594,1449.237381219864
D4:22:CD:00:05:6E,39.930015563964844,41.472801208496094,91.10824584960938,-0.7203630208969116,8.481773376464844,-0.9041833877563477,1449.237381219864
D4:22:CD:00:05:5E,-31.941991806030273,-71.54643249511719,141.7480010986328,-1.1387779712677002,3.909946918487549,-8.355400085449219,1449.237381219864
D4:22:CD:00:05:5D,-174.6835174560547,-86.02359771728516,-148.7464141845703,2.860374927520752,-3.656592845916748,15.612037658691406,1449.267380952835
D4:22:CD:00:05:6B,-45.30048370361328,-45.81565856933594,-68.7099838256836,1.0413508415222168,-1.8286995887756348,-5.325745582580566,1449.267380952835
D4:22:CD:00:49:AA,174.8723907470703,-76.85930633544922,100.71733093261719,0.7503377199172974,1.397148847579956,-9.928295135498047,1449.267380952835
D4:22:CD:00:05:6E,33.345516204833984,48.96785354614258,91.14496612548828,1.2306921482086182,0.9943695068359375,-5.035694122314453,1449.267380952835
D4:22:CD:00:05:5E,-30.293176651000977,-70.15027618408203,139.79782104492188,-8.163541793823242,-0.23116737604141235,-10.694387435913086,1449.267380952835
D4:22:CD:00:05:5D,-31.288991928100586,-79.97159576416016,75.66935729980469,2.324378490447998,15.777816772460938,1.1226634979248047,1449.296809911728
D4:22:CD:00:05:6B,-45.261444091796875,-42.550174713134766,-68.5960693359375,1.6957898139953613,-1.3535716533660889,-6.843066215515137,1449.296809911728
D4:22:CD:00:49:AA,171.53184509277344,-77.76712036132812,102.01564025878906,0.27752935886383057,0.5590041875839233,-9.13737678527832,1449.296809911728
D4:22:CD:00:05:6E,33.65805435180664,53.271636962890625,93.76703643798828,-0.07458381354808807,-1.4720301628112793,-5.9643449783325195,1449.296809911728
D4:22:CD:00:05:5E,-33.44851303100586,-70.33560943603516,141.18453979492188,-3.683462619781494,-0.9975261688232422,-6.470223426818848,1449.296809911728
D4:22:CD:00:05:5D,-10.306195259094238,-73.33311462402344,63.66305160522461,6.365845680236816,15.356718063354492,-16.32141876220703,1449.3268361091614
D4:22:CD:00:05:6B,-45.35325622558594,-39.804901123046875,-69.18695068359375,0.46129047870635986,-0.595329999923706,-8.518903732299805,1449.3268361091614
D4:22:CD:00:49:AA,168.26206970214844,-78.10492706298828,102.02377319335938,1.3464043140411377,-2.2853527069091797,-6.5547027587890625,1449.3268361091614
D4:22:CD:00:05:6E,38.326324462890625,53.5390739440918,102.5364990234375,1.0528371334075928,0.5091677904129028,-7.348406791687012,1449.3268361091614
D4:22:CD:00:05:5E,-39.95986557006836,-71.30017852783203,146.68304443359375,-5.161774635314941,-1.878197431564331,-2.4716720581054688,1449.3268361091614
D4:22:CD:00:05:5D,3.209162473678589,-72.75970458984375,55.02032470703125,4.700664520263672,12.985260009765625,-14.241205215454102,1449.3573715686798
D4:22:CD:00:05:6B,-46.37018585205078,-38.73215866088867,-70.62618255615234,-0.6069753170013428,1.6858546733856201,-9.189071655273438,1449.3573715686798
D4:22:CD:00:49:AA,167.9305419921875,-78.13787841796875,99.97124481201172,1.5323646068572998,-0.6363844871520996,-1.0766468048095703,1449.3573715686798
D4:22:CD:00:05:6E,45.310123443603516,49.4575080871582,118.14201354980469,-4.405208587646484,2.1833572387695312,-9.980657577514648,1449.3573715686798
D4:22:CD:00:05:5E,-49.4266471862793,-71.96907806396484,153.3943634033203,-9.19448471069336,0.8890835046768188,5.607593536376953,1449.3573715686798
D4:22:CD:00:05:5D,19.189956665039062,-75.5396957397461,40.56267547607422,7.835899353027344,8.193523406982422,-4.558928489685059,1449.3873784542084
D4:22:CD:00:05:6B,-47.337242126464844,-40.60001754760742,-73.77373504638672,-1.9964778423309326,4.290818214416504,-8.65567398071289,1449.3873784542084
D4:22:CD:00:49:AA,167.08395385742188,-79.31165313720703,100.43545532226562,0.8487467765808105,2.6033935546875,3.5535755157470703,1449.3873784542084
D4:22:CD:00:05:6E,52.994041442871094,40.85185241699219,135.9164276123047,-15.850595474243164,14.177801132202148,-20.432403564453125,1449.3873784542084
D4:22:CD:00:05:5E,-53.970821380615234,-71.22579956054688,156.5189208984375,-2.45479679107666,3.9324941635131836,7.120548248291016,1449.3873784542084
D4:22:CD:00:05:5D,50.326480865478516,-77.68916320800781,13.078242301940918,7.410205841064453,7.083264350891113,-0.4488801956176758,1449.416876077652
D4:22:CD:00:05:6B,-47.07344055175781,-45.60672378540039,-78.54399108886719,-2.554623603820801,2.835021495819092,-6.56350040435791,1449.416876077652
D4:22:CD:00:49:AA,172.75221252441406,-80.4073486328125,95.79560852050781,7.01539421081543,2.097066879272461,7.909780502319336,1449.416876077652
D4:22:CD:00:05:6E,67.4690170288086,34.07664108276367,153.04066467285156,-14.631292343139648,3.6853723526000977,-32.709136962890625,1449.416876077652
D4:22:CD:00:05:5E,-54.14974594116211,-69.20030975341797,156.88296508789062,-2.8399529457092285,2.452822685241699,2.758467674255371,1449.416876077652
D4:22:CD:00:05:5D,88.92201232910156,-76.97705078125,-19.037792205810547,15.114765167236328,4.839696884155273,-1.131089210510254,1449.447001695633
D4:22:CD:00:05:6B,-45.26963424682617,-54.035648345947266,-84.7048110961914,-0.9115731716156006,-1.0920331478118896,-2.4228649139404297,1449.447001695633
D4:22:CD:00:49:AA,-177.55661010742188,-81.37263488769531,87.44314575195312,7.069355010986328,-0.5172744989395142,5.528101921081543,1449.447001695633
D4:22:CD:00:05:6E,89.92198181152344,37.55184555053711,155.40621948242188,4.088881492614746,-7.650822639465332,6.297891616821289,1449.447001695633
D4:22:CD:00:05:5E,-50.46625518798828,-65.9803695678711,155.4713592529297,-5.565365791320801,0.6193727254867554,0.9805335998535156,1449.447001695633
D4:22:CD:00:05:5D,110.11648559570312,-76.30792236328125,-36.616764068603516,2.0382776260375977,-6.078083038330078,0.12064361572265625,1449.4774503707886
D4:22:CD:00:05:6B,-46.49212646484375,-66.12715911865234,-90.43181610107422,0.3692626953125,-9.41166877746582,12.283744812011719,1449.4774503707886
D4:22:CD:00:49:AA,-175.2615966796875,-82.38519287109375,86.73250579833984,-3.2344322204589844,-0.2829369902610779,-2.0571556091308594,1449.4774503707886
D4:22:CD:00:05:6E,106.88072204589844,50.741455078125,151.67140197753906,-17.198436737060547,1.0547068119049072,-6.554455757141113,1449.4774503707886
D4:22:CD:00:05:5E,-46.410057067871094,-62.748382568359375,155.12789916992188,-5.931467056274414,-0.788605809211731,-2.289937973022461,1449.4774503707886
D4:22:CD:00:05:5D,119.24659729003906,-78.39250946044922,-50.26249694824219,1.353212594985962,-4.426178932189941,5.818110466003418,1449.5373332500458
D4:22:CD:00:05:6B,-56.35036087036133,-76.54011535644531,-85.37482452392578,9.976757049560547,2.077530860900879,23.903034210205078,1449.5373332500458
D4:22:CD:00:49:AA,-178.3679962158203,-81.74895477294922,92.26606750488281,-1.2519097328186035,-4.836519241333008,-1.0783748626708984,1449.5373332500458
D4:22:CD:00:05:6E,101.60082244873047,65.69093322753906,140.6909637451172,-15.778921127319336,7.209704399108887,-6.683812141418457,1449.5373332500458
D4:22:CD:00:05:5E,-46.54887390136719,-60.11322784423828,159.09371948242188,-11.545940399169922,-1.7533118724822998,0.45743656158447266,1449.5373332500458
D4:22:CD:00:05:5D,132.3328094482422,-78.55462646484375,-59.95458221435547,-1.7000234127044678,-6.740292549133301,10.439048767089844,1449.567364692688
D4:22:CD:00:05:6B,-32.07122039794922,-78.68070983886719,-87.07451629638672,-7.2585649490356445,-4.85771369934082,3.5689382553100586,1449.567364692688
D4:22:CD:00:49:AA,179.154296875,-80.51348876953125,98.51778411865234,-2.5063815116882324,-0.827609658241272,-2.0598931312561035,1449.567364692688
D4:22:CD:00:05:6E,60.92280960083008,75.49137115478516,102.47309875488281,-2.9430718421936035,-1.8529083728790283,-7.04879093170166,1449.567364692688
D4:22:CD:00:05:5E,-47.497257232666016,-58.9113655090332,166.00546264648438,-23.397716522216797,16.139110565185547,-12.50836181640625,1449.567364692688
D4:22:CD:00:05:5D,146.59226989746094,-77.98733520507812,-68.07403564453125,-4.134746551513672,4.456684112548828,1.3055810928344727,1449.5965144634247
D4:22:CD:00:05:6B,-19.46467399597168,-76.67726135253906,-82.381103515625,11.333904266357422,-10.385187149047852,-3.5345726013183594,1449.5965144634247
D4:22:CD:00:49:AA,175.28182983398438,-77.49337768554688,107.17955017089844,-5.910365104675293,3.8735475540161133,-1.0600299835205078,1449.5965144634247
D4:22:CD:00:05:6E,8.769105911254883,69.82659912109375,49.262489318847656,3.2891335487365723,-6.2096662521362305,-7.525455474853516,1449.5965144634247
D4:22:CD:00:05:5E,-55.74721145629883,-61.76314926147461,-179.99783325195312,-21.86310577392578,17.973896026611328,-8.354621887207031,1449.5965144634247
D4:22:CD:00:05:5D,154.98544311523438,-77.81864166259766,-76.88709259033203,-1.3409199714660645,0.5479180812835693,1.7594099044799805,1449.6275415420532
D4:22:CD:00:05:6B,-39.44582748413086,-74.69586181640625,-69.93878936767578,-4.360233306884766,-3.8303756713867188,-0.8612833023071289,1449.6275415420532
D4:22:CD:00:49:AA,175.56253051757812,-75.11164093017578,110.68083953857422,-1.725872278213501,1.9288444519042969,3.7927169799804688,1449.6275415420532
D4:22:CD:00:05:6E,-2.871319532394409,56.103790283203125,29.94049644470215,8.26335334777832,-11.23830795288086,-7.668898582458496,1449.6275415420532
D4:22:CD:00:05:5E,-69.76961517333984,-65.17700958251953,-158.84034729003906,-14.178926467895508,8.968761444091797,-5.57515811920166,1449.6275415420532
D4:22:CD:00:05:5D,162.56410217285156,-78.01861572265625,-84.4317398071289,0.7577627897262573,1.077470302581787,0.7040853500366211,1449.6570675373077
D4:22:CD:00:05:6B,-43.66035079956055,-74.869384765625,-72.73966979980469,-6.498671531677246,2.124722480773926,-1.741964340209961,1449.6570675373077
D4:22:CD:00:49:AA,176.02503967285156,-73.53441619873047,111.54161834716797,1.1663379669189453,2.950599193572998,4.895689964294434,1449.6570675373077
D4:22:CD:00:05:6E,7.8640289306640625,44.60356140136719,21.656436920166016,24.706893920898438,-23.801780700683594,1.0169486999511719,1449.6570675373077
D4:22:CD:00:05:5E,-89.67464447021484,-66.78844451904297,-132.78392028808594,-9.01708984375,0.8589510917663574,-7.697802543640137,1449.6570675373077
D4:22:CD:00:05:5D,170.04429626464844,-78.68632507324219,-91.28982543945312,0.5422341823577881,1.556943655014038,0.9359331130981445,1449.6871645450592
D4:22:CD:00:05:6B,-33.36812973022461,-77.692138671875,-87.37467956542969,-5.789694786071777,0.8177337646484375,-2.013122081756592,1449.6871645450592
D4:22:CD:00:49:AA,174.1605987548828,-72.8377456665039,114.19385528564453,-3.3996129035949707,0.8434795141220093,1.3022174835205078,1449.6871645450592
D4:22:CD:00:05:6E,47.281822204589844,40.0137939453125,25.48314666748047,-5.363373756408691,-20.09534454345703,-22.421092987060547,1449.6871645450592
D4:22:CD:00:05:5E,-112.69224548339844,-65.72127532958984,-107.25103759765625,-2.4258460998535156,-2.0185790061950684,-8.866138458251953,1449.6871645450592
D4:22:CD:00:05:5D,176.2005157470703,-79.60073852539062,-97.8416976928711,-0.39369434118270874,0.5100094079971313,0.4738321304321289,1449.7171795368195
D4:22:CD:00:05:6B,-17.895294189453125,-81.46949005126953,-110.51246643066406,-5.120671272277832,-1.0342133045196533,-1.605900764465332,1449.7171795368195
D4:22:CD:00:49:AA,171.98399353027344,-73.35787200927734,117.5067367553711,-4.472476005554199,-0.5354692935943604,-0.36817359924316406,1449.7171795368195
D4:22:CD:00:05:6E,73.9185562133789,31.818740844726562,34.90221405029297,-7.383425712585449,18.796070098876953,5.569226264953613,1449.7171795368195
D4:22:CD:00:05:5E,-132.6901092529297,-62.92903518676758,-87.68380737304688,0.12471385300159454,-1.9934213161468506,-9.055540084838867,1449.7171795368195
D4:22:CD:00:05:5D,-176.83840942382812,-80.34559631347656,-105.62940979003906,-0.16690582036972046,-0.8776508569717407,-0.2746315002441406,1449.7470080852509
D4:22:CD:00:05:6B,10.062328338623047,-84.2224349975586,-148.88668823242188,-4.140007972717285,2.8999385833740234,-0.9130439758300781,1449.7470080852509
D4:22:CD:00:49:AA,170.3531494140625,-73.86061096191406,120.41262817382812,-1.933316707611084,0.03132601082324982,-3.6613082885742188,1449.7470080852509
D4:22:CD:00:05:6E,76.68711853027344,19.201988220214844,39.87609100341797,-0.7421811819076538,-3.5477466583251953,0.987727165222168,1449.7470080852509
D4:22:CD:00:05:5E,-148.9972381591797,-60.50283432006836,-73.80200958251953,0.6896737813949585,-1.4643728733062744,-7.799895286560059,1449.7470080852509
D4:22:CD:00:05:5D,-169.78948974609375,-80.40359497070312,-113.15270233154297,0.9362387657165527,-2.188997268676758,-0.8500900268554688,1449.7770886421204
D4:22:CD:00:05:6B,33.2391242980957,-84.43010711669922,178.96145629882812,-2.7587103843688965,5.530927658081055,-1.6331787109375,1449.7770886421204
D4:22:CD:00:49:AA,167.25352478027344,-74.18231201171875,124.81574249267578,0.38798975944519043,0.2594016194343567,-5.334575653076172,1449.7770886421204
D4:22:CD:00:05:6E,79.44971466064453,3.505202293395996,41.43948745727539,8.282182693481445,-2.904092311859131,-4.893533706665039,1449.7770886421204
D4:22:CD:00:05:5E,-162.28794860839844,-59.680904388427734,-63.2696418762207,0.847614049911499,-1.642348051071167,-5.044536590576172,1449.7770886421204
D4:22:CD:00:05:5D,-169.56240844726562,-79.22544860839844,-113.33452606201172,2.0883522033691406,-3.3981804847717285,-1.5972251892089844,1449.8372497558594
D4:22:CD:00:05:6B,22.761241912841797,-84.10881805419922,-176.1152801513672,-2.804839611053467,3.8521647453308105,-2.5827484130859375,1449.8372497558594
D4:22:CD:00:49:AA,161.29820251464844,-74.0858383178711,130.8987579345703,1.6283824443817139,-0.21444708108901978,-6.011770248413086,1449.8372497558594
D4:22:CD:00:05:6E,85.807861328125,-15.411527633666992,40.5681037902832,12.253499984741211,8.065153121948242,-0.8162479400634766,1449.8372497558594
D4:22:CD:00:05:5E,-170.9661102294922,-61.41213607788086,-55.28520965576172,9.916500091552734,-5.1126203536987305,-3.6794400215148926,1449.8372497558594
D4:22:CD:00:05:5D,-176.0090789794922,-76.15713500976562,-105.69989013671875,3.6567811965942383,-3.6551051139831543,-1.7378559112548828,1449.866956949234
D4:22:CD:00:05:6B,-13.827040672302246,-81.90238189697266,-144.06797790527344,-0.6908609867095947,3.8315725326538086,-1.6927146911621094,1449.866956949234
D4:22:CD:00:49:AA,154.59979248046875,-73.56411743164062,135.86013793945312,2.8715882301330566,0.16137000918388367,-7.0821533203125,1449.866956949234
D4:22:CD:00:05:6E,88.12454986572266,-37.02617263793945,40.237632751464844,21.716007232666016,13.283052444458008,22.67969512939453,1449.866956949234
D4:22:CD:00:05:5E,-170.82070922851562,-66.34774780273438,-49.357421875,-3.6579346656799316,17.768795013427734,12.82545280456543,1449.866956949234
D4:22:CD:00:05:5D,177.5196990966797,-71.34073638916016,-96.68373107910156,0.5209096670150757,-2.026811122894287,-1.374384880065918,1449.8971281051636
D4:22:CD:00:05:6B,-38.227901458740234,-75.20610809326172,-124.85870361328125,-1.1469619274139404,5.131003379821777,-0.11890888214111328,1449.8971281051636
D4:22:CD:00:49:AA,148.9755096435547,-73.30247497558594,139.2425537109375,1.728438377380371,2.1749138832092285,-5.3236083984375,1449.8971281051636
D4:22:CD:00:05:6E,81.81040954589844,-53.05290603637695,43.28578567504883,8.020050048828125,8.785764694213867,25.918132781982422,1449.8971281051636
D4:22:CD:00:05:5E,-170.0601348876953,-66.74190521240234,-47.74577713012695,13.545101165771484,-17.75406265258789,2.6596384048461914,1449.8971281051636
D4:22:CD:00:05:5D,174.00741577148438,-65.55622863769531,-89.62352752685547,4.763507843017578,0.312741219997406,-2.6878466606140137,1449.9272618293762
D4:22:CD:00:05:6B,-48.76105499267578,-64.69441986083984,-118.7996826171875,-1.553076982498169,4.133596420288086,2.820380210876465,1449.9272618293762
D4:22:CD:00:49:AA,140.92160034179688,-73.503662109375,146.43077087402344,-4.403785705566406,2.125960350036621,1.0202140808105469,1449.9272618293762
D4:22:CD:00:05:6E,78.05502319335938,-52.407203674316406,35.08536911010742,10.8338623046875,-0.3062754273414612,-9.929229736328125,1449.9272618293762
D4:22:CD:00:05:5E,-171.29937744140625,-66.68733978271484,-49.49565124511719,6.899655342102051,-10.26093864440918,10.593669891357422,1449.9272618293762
D4:22:CD:00:05:5D,173.79544067382812,-60.78364944458008,-85.97315216064453,-2.543128490447998,1.7376067638397217,2.756192207336426,1449.9567503929138
D4:22:CD:00:05:6B,-53.74266815185547,-50.96616744995117,-117.22901153564453,0.03809237480163574,6.019587516784668,9.929351806640625,1449.9567503929138
D4:22:CD:00:49:AA,135.61050415039062,-72.00716400146484,151.81578063964844,-3.680027484893799,-1.105137825012207,4.103358268737793,1449.9567503929138
D4:22:CD:00:05:6E,79.7470703125,-50.62504577636719,30.909648895263672,23.00057601928711,2.1903109550476074,-8.600311279296875,1449.9567503929138
D4:22:CD:00:05:5E,-171.1874542236328,-65.17308807373047,-54.265602111816406,5.784668922424316,-2.9238014221191406,17.253265380859375,1449.9567503929138
D4:22:CD:00:05:5D,172.69161987304688,-57.03632354736328,-82.6300048828125,-2.023502826690674,0.6895204782485962,1.0297679901123047,1449.9869513511658
D4:22:CD:00:05:6B,-54.93168258666992,-36.20558166503906,-117.11026000976562,4.106800079345703,11.263664245605469,15.472770690917969,1449.9869513511658
D4:22:CD:00:49:AA,136.38681030273438,-70.63264465332031,151.163818359375,-1.373121738433838,-1.7985427379608154,9.339225769042969,1449.9869513511658
D4:22:CD:00:05:6E,80.4711685180664,-52.800724029541016,34.08053970336914,10.597845077514648,4.529733657836914,-1.1860456466674805,1449.9869513511658
D4:22:CD:00:05:5E,-167.82559204101562,-62.803138732910156,-55.002986907958984,-0.9972481727600098,-9.408050537109375,19.492237091064453,1449.9869513511658
D4:22:CD:00:05:5D,173.16468811035156,-54.530887603759766,-81.34059143066406,-2.4007883071899414,1.183016300201416,1.7767887115478516,1450.0172939300537
D4:22:CD:00:05:6B,-52.81873321533203,-20.25986099243164,-113.87564849853516,15.804393768310547,12.072929382324219,28.459728240966797,1450.0172939300537
D4:22:CD:00:49:AA,138.31410217285156,-69.9935073852539,149.24758911132812,1.4172146320343018,-0.6867741346359253,10.744325637817383,1450.0172939300537
D4:22:CD:00:05:6E,83.87800598144531,-53.59382247924805,34.04464340209961,17.192623138427734,13.523710250854492,5.7854509353637695,1450.0172939300537
D4:22:CD:00:05:5E,-164.40126037597656,-59.01081848144531,-54.130252838134766,2.9363884925842285,-8.051252365112305,11.812580108642578,1450.0172939300537
D4:22:CD:00:05:5D,174.82342529296875,-53.774208068847656,-82.34427642822266,-3.798295497894287,1.8691737651824951,3.0813817977905273,1450.0469624996185
D4:22:CD:00:05:6B,-40.46601104736328,-1.230220079421997,-106.91018676757812,2.716918468475342,-2.468275547027588,34.72611999511719,1450.0469624996185
D4:22:CD:00:49:AA,142.27708435058594,-68.71929168701172,144.51785278320312,-1.6453680992126465,-2.3155460357666016,10.729890823364258,1450.0469624996185
D4:22:CD:00:05:6E,90.34532165527344,-54.58538055419922,30.52035903930664,11.555553436279297,10.550212860107422,9.949289321899414,1450.0469624996185
D4:22:CD:00:05:5E,-165.9944305419922,-55.520320892333984,-54.40434646606445,0.12276537716388702,-7.981511116027832,7.550376892089844,1450.0469624996185
D4:22:CD:00:05:5D,177.4722137451172,-55.16289520263672,-85.19405364990234,-1.7641010284423828,2.1433324813842773,3.040116310119629,1450.0771083831787
D4:22:CD:00:05:6B,-20.08611488342285,16.53594398498535,-95.85462188720703,-11.222177505493164,-7.611417770385742,10.772905349731445,1450.0771083831787
D4:22:CD:00:49:AA,145.75360107421875,-68.37670135498047,140.4870147705078,-2.7295103073120117,-1.342310905456543,11.138179779052734,1450.0771083831787
D4:22:CD:00:05:6E,94.3265609741211,-58.27805709838867,26.55230140686035,6.030000686645508,6.949209213256836,14.780887603759766,1450.0771083831787
D4:22:CD:00:05:5E,-169.50613403320312,-56.21577453613281,-53.32323455810547,3.0487565994262695,2.4442319869995117,6.74932861328125,1450.0771083831787
D4:22:CD:00:05:5D,-179.4201202392578,-58.690128326416016,-89.01903533935547,0.7034927606582642,2.482621669769287,2.4644641876220703,1450.1367197036743
D4:22:CD:00:05:6B,-1.0437133312225342,28.490509033203125,-81.35395050048828,-12.497678756713867,-11.828645706176758,0.4581489562988281,1450.1367197036743
D4:22:CD:00:49:AA,146.89361572265625,-69.84842681884766,139.134033203125,-4.41729736328125,1.3527624607086182,7.295560836791992,1450.1367197036743
D4:22:CD:00:05:6E,100.79214477539062,-63.308982849121094,22.157339096069336,3.9351139068603516,3.7508254051208496,10.81216812133789,1450.1367197036743
D4:22:CD:00:05:5E,-167.4079132080078,-61.470767974853516,-55.31879425048828,1.4483466148376465,0.011358872056007385,-1.3191089630126953,1450.1367197036743
D4:22:CD:00:05:5D,-175.9595947265625,-64.3856201171875,-92.95283508300781,1.258939504623413,3.356919765472412,2.9058752059936523,1450.1670169830322
D4:22:CD:00:05:6B,19.961959838867188,36.733154296875,-68.11692810058594,-8.067811965942383,-10.958654403686523,-9.528942108154297,1450.1670169830322
D4:22:CD:00:49:AA,152.3858184814453,-71.55490112304688,135.5125732421875,-6.65352725982666,0.13524365425109863,0.4521465301513672,1450.1670169830322
D4:22:CD:00:05:6E,117.25892639160156,-68.4308090209961,15.127047538757324,-0.6405924558639526,1.3216941356658936,6.5550384521484375,1450.1670169830322
D4:22:CD:00:05:5E,-161.77456665039062,-69.26801300048828,-62.877479553222656,4.60130500793457,2.7318220138549805,-2.961470127105713,1450.1670169830322
D4:22:CD:00:05:5D,-171.14881896972656,-72.15249633789062,-98.04341888427734,-2.160090446472168,-0.31760430335998535,5.8245849609375,1450.197015762329
D4:22:CD:00:05:6B,39.27248001098633,42.772865295410156,-57.16132736206055,-0.6720385551452637,-3.747025966644287,-12.067546844482422,1450.197015762329
D4:22:CD:00:49:AA,164.54483032226562,-72.37175750732422,127.97877502441406,-5.926013946533203,-1.651184320449829,-7.30122184753418,1450.197015762329
D4:22:CD:00:05:6E,144.042236328125,-72.3172378540039,1.6719958782196045,-3.5348424911499023,-2.8894829750061035,2.8880701065063477,1450.197015762329
D4:22:CD:00:05:5E,-142.61495971679688,-77.70429229736328,-83.58330535888672,3.33154296875,4.646663665771484,-5.765349388122559,1450.197015762329
D4:22:CD:00:05:5D,-160.05636596679688,-80.47509002685547,-113.08055877685547,-1.4034404754638672,-10.967575073242188,8.265539169311523,1450.2272107601166
D4:22:CD:00:05:6B,50.01707458496094,46.00249099731445,-48.79833984375,-1.2947041988372803,-1.6434881687164307,-11.367246627807617,1450.2272107601166
D4:22:CD:00:49:AA,179.37222290039062,-71.26362609863281,119.38490295410156,-0.20483139157295227,-1.0264451503753662,-7.555551528930664,1450.2272107601166
D4:22:CD:00:05:6E,175.35830688476562,-73.46003723144531,-15.741803169250488,-3.660046100616455,-5.099956512451172,-3.487311363220215,1450.2272107601166
D4:22:CD:00:05:5E,-83.3814926147461,-81.11095428466797,-143.7038116455078,-0.7775769233703613,6.284711837768555,-8.794927597045898,1450.2272107601166
D4:22:CD:00:05:5D,-147.8031005859375,-84.24360656738281,-128.69773864746094,2.3099656105041504,6.161036491394043,-11.225275039672852,1450.2570247650146
D4:22:CD:00:05:6B,56.542171478271484,48.35588073730469,-45.9970817565918,-4.136723518371582,-0.5365668535232544,-10.983787536621094,1450.2570247650146
D4:22:CD:00:49:AA,-175.09381103515625,-69.98040771484375,117.05292510986328,6.556460380554199,6.728693962097168,-8.148603439331055,1450.2570247650146
D4:22:CD:00:05:6E,-156.6197509765625,-72.48355865478516,-30.031740188598633,-2.0085768699645996,-4.828492164611816,-6.4090576171875,1450.2570247650146
D4:22:CD:00:05:5E,-44.791351318359375,-74.8489990234375,173.50772094726562,-4.187411308288574,7.483151435852051,-8.267522811889648,1450.2570247650146
D4:22:CD:00:05:5D,-175.6294708251953,-82.08721923828125,-99.83333587646484,3.423809051513672,9.103769302368164,-8.228523254394531,1450.286768913269
D4:22:CD:00:05:6B,61.60586929321289,50.64979934692383,-49.15237045288086,-2.524318218231201,-0.4577297568321228,-11.405975341796875,1450.286768913269
D4:22:CD:00:49:AA,-173.82330322265625,-70.27202606201172,116.04113006591797,2.971865177154541,2.1526522636413574,-8.524337768554688,1450.286768913269
D4:22:CD:00:05:6E,-135.93341064453125,-71.11663055419922,-38.619110107421875,0.028444677591323853,-5.5478410720825195,-9.093698501586914,1450.286768913269
D4:22:CD:00:05:5E,-37.97432327270508,-66.72789001464844,159.64222717285156,-8.135354995727539,9.988689422607422,-8.147724151611328,1450.286768913269
