Device,EulerX,EulerY,EulerZ,FreeAccX,FreeAccY,FreeAccZ,Timestamp
D4:22:CD:00:05:5D,175.99807739257812,-63.47467803955078,-119.61425018310547,1.3805887699127197,-0.06525571644306183,0.3420238494873047,1473.080581188202
D4:22:CD:00:05:6B,-32.378440856933594,3.4099295139312744,-64.3125228881836,-1.5711653232574463,-0.9022743701934814,7.953020095825195,1473.080581188202
D4:22:CD:00:49:AA,139.1685333251953,-73.96318054199219,141.1859588623047,-1.5290544033050537,-1.176581859588623,1.039750099182129,1473.080581188202
D4:22:CD:00:05:6E,90.1778564453125,-57.045066833496094,64.79685974121094,-5.948469161987305,7.354872703552246,-0.7642354965209961,1473.080581188202
D4:22:CD:00:05:5E,175.47293090820312,-65.34388732910156,-11.22467041015625,7.3108978271484375,-0.5132019519805908,5.94001579284668,1473.080581188202
D4:22:CD:00:05:6B,-16.302282333374023,12.359959602355957,-61.53641891479492,-6.348751068115234,-1.9165561199188232,1.763864517211914,1473.092580318451
D4:22:CD:00:49:AA,139.37059020996094,-74.70372772216797,142.87799072265625,-1.3041822910308838,0.654492974281311,-1.3737764358520508,1473.092580318451
D4:22:CD:00:05:6E,97.21129608154297,-65.69303894042969,62.35456848144531,-1.6332666873931885,3.8829116821289062,3.0806703567504883,1473.092580318451
D4:22:CD:00:05:5E,-176.00425720214844,-64.58139038085938,-15.144074440002441,3.7148914337158203,2.0242342948913574,3.23117733001709,1473.092580318451
D4:22:CD:00:05:5D,-161.04234313964844,-75.14903259277344,-138.5313720703125,-0.42109525203704834,3.080249786376953,-0.10728263854980469,1473.099796295166
D4:22:CD:00:49:AA,142.24392700195312,-76.2118148803711,142.4852752685547,-2.1344780921936035,1.1720762252807617,-1.1085081100463867,1473.099796295166
D4:22:CD:00:05:6E,114.67015838623047,-75.73085021972656,51.242088317871094,-2.411661148071289,0.26420503854751587,4.344625473022461,1473.099796295166
D4:22:CD:00:05:5E,-170.21961975097656,-65.3712387084961,-20.147029876708984,2.2261033058166504,3.725346088409424,-1.3226566314697266,1473.099796295166
D4:22:CD:00:05:5D,-178.52903747558594,-68.49803924560547,-120.740478515625,0.5085277557373047,-0.3364707827568054,-0.2928323745727539,1473.105776309967
D4:22:CD:00:05:6B,-80.22212219238281,-48.70939254760742,-66.65534973144531,1.6929452419281006,1.4630701541900635,2.5660629272460938,1473.105776309967
D4:22:CD:00:05:6E,-171.86233520507812,-82.49943542480469,-12.312411308288574,-2.392503261566162,-4.363002777099609,6.715969085693359,1473.105776309967
D4:22:CD:00:05:5E,-163.76898193359375,-68.38886260986328,-27.207462310791016,1.2823915481567383,3.297276020050049,-5.67048454284668,1473.105776309967
D4:22:CD:00:05:5D,174.76431274414062,-57.56644821166992,-111.61448669433594,-0.6415954828262329,0.8648022413253784,1.808279037475586,1473.108783006668
D4:22:CD:00:05:6B,-67.35470581054688,-23.79198455810547,-71.74696350097656,-0.18877702951431274,0.5403108596801758,18.39519500732422,1473.108783006668
D4:22:CD:00:49:AA,119.5344009399414,-78.43101501464844,169.14129638671875,-1.6331439018249512,-3.7757997512817383,7.001752853393555,1473.108783006668
D4:22:CD:00:05:6E,119.23417663574219,-83.01042938232422,20.68082046508789,0.1048281341791153,2.072328567504883,12.87088394165039,1473.108783006668
D4:22:CD:00:05:5D,175.19004821777344,-56.72038269042969,-111.59860229492188,0.17573639750480652,1.6303317546844482,1.4351625442504883,1473.146828174591
D4:22:CD:00:05:6B,-62.75065612792969,-12.933279991149902,-68.2690658569336,3.413628578186035,-0.9756119251251221,22.678653717041016,1473.146828174591
D4:22:CD:00:49:AA,147.62759399414062,-80.0014877319336,140.59756469726562,0.04977096617221832,-3.537343978881836,6.1522626876831055,1473.146828174591
D4:22:CD:00:05:6E,122.65660858154297,-80.55313110351562,20.528093338012695,0.5238844156265259,2.810242176055908,12.010610580444336,1473.146828174591
D4:22:CD:00:05:5E,-155.1490020751953,-84.95135498046875,-18.280231475830078,-1.8519706726074219,-0.5501874685287476,5.083398818969727,1473.146828174591
D4:22:CD:00:05:5D,175.68313598632812,-57.37604904174805,-111.26888275146484,2.017157554626465,-0.2366763949394226,0.6140317916870117,1473.1761565208435
D4:22:CD:00:05:6B,-45.36807632446289,-0.5167672038078308,-64.48208618164062,7.814659118652344,-10.055683135986328,22.581069946289062,1473.1761565208435
D4:22:CD:00:49:AA,164.11911010742188,-79.00452423095703,124.46662139892578,1.3000977039337158,-0.15317431092262268,1.4975767135620117,1473.1761565208435
D4:22:CD:00:05:6E,128.88929748535156,-77.59733581542969,24.421062469482422,-3.461751937866211,-0.6175546646118164,6.626104354858398,1473.1761565208435
D4:22:CD:00:05:5E,-158.79014587402344,-79.59941864013672,-13.78664779663086,-0.42186397314071655,0.982398271560669,2.299990653991699,1473.1761565208435
D4:22:CD:00:05:5D,176.7168426513672,-59.16104507446289,-110.48786163330078,0.18359911441802979,-0.9860531091690063,0.7900962829589844,1473.2068741321564
D4:22:CD:00:05:6B,-17.73945426940918,10.72535514831543,-60.32611083984375,6.135068893432617,-11.315448760986328,3.35030460357666,1473.2068741321564
D4:22:CD:00:49:AA,169.94308471679688,-78.96661376953125,119.10851287841797,-1.000577688217163,1.2425475120544434,1.0622920989990234,1473.2068741321564
D4:22:CD:00:05:6E,133.3876190185547,-73.27946472167969,27.3922119140625,-7.33990478515625,-3.819636821746826,0.06397628784179688,1473.2068741321564
D4:22:CD:00:05:5E,-141.31878662109375,-78.99211883544922,-30.32209587097168,3.147761821746826,8.726665496826172,0.29184913635253906,1473.2068741321564
D4:22:CD:00:05:5D,178.37322998046875,-61.65254592895508,-109.2173843383789,-0.005248530767858028,0.07523021101951599,0.572352409362793,1473.2668812274933
D4:22:CD:00:05:6B,7.133053779602051,19.12812614440918,-52.9459114074707,-1.0317156314849854,-8.138214111328125,2.9755067825317383,1473.2668812274933
D4:22:CD:00:49:AA,175.06333923339844,-80.09381103515625,114.80046844482422,-2.3611602783203125,0.9512702226638794,0.15670299530029297,1473.2668812274933
D4:22:CD:00:05:6E,132.31993103027344,-70.44703674316406,29.05550193786621,-0.8182944059371948,-3.495567798614502,-5.236733436584473,1473.2668812274933
D4:22:CD:00:05:5E,-88.91883850097656,-76.54853820800781,-77.45977783203125,-1.0099339485168457,5.809467315673828,-2.357006072998047,1473.2668812274933
D4:22:CD:00:05:5D,-179.5181121826172,-64.6939926147461,-108.2671127319336,-0.7849068641662598,1.3478777408599854,0.7830162048339844,1473.296659708023
D4:22:CD:00:05:6B,31.70730209350586,24.407676696777344,-45.89610290527344,-10.029521942138672,-9.865354537963867,-1.9984540939331055,1473.296659708023
D4:22:CD:00:49:AA,-177.3826904296875,-81.66436004638672,108.4234848022461,0.5204286575317383,0.6523362398147583,-2.6493945121765137,1473.296659708023
D4:22:CD:00:05:6E,128.26205444335938,-73.21290588378906,34.81053161621094,-0.3422994017601013,-1.1185765266418457,-10.036630630493164,1473.296659708023
D4:22:CD:00:05:5E,-56.800132751464844,-68.67062377929688,-106.31866455078125,-0.9151066541671753,1.6959946155548096,-4.935799598693848,1473.296659708023
D4:22:CD:00:05:5D,-178.43038940429688,-67.76799774169922,-108.31784057617188,-2.6521105766296387,0.19904163479804993,0.007550239562988281,1473.326946258545
D4:22:CD:00:05:6B,51.766597747802734,27.665292739868164,-40.69984436035156,-12.061624526977539,-7.5065765380859375,-7.189023017883301,1473.326946258545
D4:22:CD:00:49:AA,-166.9984893798828,-82.63459777832031,99.87187194824219,0.6149876117706299,0.9908114671707153,-3.6720962524414062,1473.326946258545
D4:22:CD:00:05:6E,123.54918670654297,-80.63590240478516,44.3885612487793,-1.6833066940307617,-3.003647804260254,-9.415292739868164,1473.326946258545
D4:22:CD:00:05:5E,-41.158138275146484,-59.02585220336914,-123.3033447265625,-3.0067062377929688,-2.2031912803649902,-5.2644853591918945,1473.326946258545
D4:22:CD:00:05:5D,-177.27825927734375,-70.64102172851562,-109.44313049316406,-1.2922301292419434,-0.5985933542251587,-0.23092269897460938,1473.3570053577423
D4:22:CD:00:05:6B,62.578773498535156,31.042339324951172,-39.11756134033203,-1.6320579051971436,3.1724438667297363,-4.8060760498046875,1473.3570053577423
D4:22:CD:00:49:AA,-157.67852783203125,-83.0528793334961,92.19674682617188,-0.25575536489486694,0.6558362245559692,-3.2673401832580566,1473.3570053577423
D4:22:CD:00:05:6E,24.023435592651367,-87.72221374511719,149.12301635742188,-1.4006977081298828,-4.935568809509277,-7.074127197265625,1473.3570053577423
D4:22:CD:00:05:5E,-36.600189208984375,-49.870140075683594,-134.85020446777344,-9.16743278503418,-6.364080429077148,-9.35080337524414,1473.3570053577423
D4:22:CD:00:05:5D,-176.4137725830078,-73.23622131347656,-110.63108825683594,-0.3024688959121704,-0.903010368347168,-0.42821693420410156,1473.386731147766
D4:22:CD:00:05:6B,61.984130859375,35.176490783691406,-43.043251037597656,1.4522643089294434,0.6340217590332031,-6.714627265930176,1473.386731147766
D4:22:CD:00:49:AA,-152.90380859375,-83.46025085449219,88.4498519897461,-0.5635366439819336,-0.6882566213607788,-3.8303980827331543,1473.386731147766
D4:22:CD:00:05:6E,-24.455772399902344,-78.41852569580078,-155.3451385498047,-1.1163456439971924,-6.99858283996582,-3.8880982398986816,1473.386731147766
D4:22:CD:00:05:5E,-40.18058776855469,-43.820194244384766,-143.58216857910156,-17.08342742919922,-9.822996139526367,-12.511476516723633,1473.386731147766
D4:22:CD:00:05:5D,-177.4398956298828,-75.26038360595703,-110.2369155883789,0.6428477764129639,-2.23109769821167,-1.4756784439086914,1473.416738986969
D4:22:CD:00:05:6B,58.48158264160156,42.254913330078125,-52.66455078125,4.940238952636719,0.4236733913421631,-7.782386779785156,1473.416738986969
D4:22:CD:00:49:AA,-149.1346893310547,-84.03152465820312,84.76283264160156,-0.041050612926483154,-1.2374062538146973,-4.004408836364746,1473.416738986969
D4:22:CD:00:05:6E,-20.891925811767578,-69.21759033203125,-148.6253204345703,-2.4818873405456543,-8.653264999389648,-5.415051460266113,1473.416738986969
D4:22:CD:00:05:5E,-50.75761413574219,-42.8358154296875,-148.13607788085938,-22.447376251220703,-6.709123611450195,-17.63312530517578,1473.416738986969
D4:22:CD:00:05:5D,178.6220245361328,-76.28073120117188,-106.7325668334961,-0.3958054184913635,-2.1492533683776855,-0.9234142303466797,1473.4471099376678
D4:22:CD:00:05:6B,45.35650634765625,50.637062072753906,-71.89384460449219,10.537874221801758,-0.6771130561828613,-10.353790283203125,1473.4471099376678
D4:22:CD:00:49:AA,-148.02186584472656,-84.59981536865234,83.1877670288086,-0.826872706413269,-1.004234790802002,-2.131112575531006,1473.4471099376678
D4:22:CD:00:05:6E,-16.64592170715332,-61.976890563964844,-142.55259704589844,-1.6369788646697998,-9.099905014038086,-7.414825439453125,1473.4471099376678
D4:22:CD:00:05:5E,-58.240936279296875,-45.952301025390625,-148.68087768554688,-21.365215301513672,1.3724565505981445,-22.97223663330078,1473.4471099376678
D4:22:CD:00:05:5D,171.85626220703125,-76.18406677246094,-100.38932037353516,0.2456829845905304,-2.1098570823669434,-0.7323226928710938,1473.4768843650818
D4:22:CD:00:05:6B,15.738819122314453,54.341453552246094,-103.54625701904297,2.0014824867248535,-10.063274383544922,-24.870750427246094,1473.4768843650818
D4:22:CD:00:49:AA,-152.33383178710938,-84.90434265136719,86.15357971191406,-0.447731077671051,-0.6931142807006836,-0.38962841033935547,1473.4768843650818
D4:22:CD:00:05:6E,-15.164698600769043,-57.028564453125,-134.27113342285156,-0.2022177278995514,-9.011604309082031,-6.944952964782715,1473.4768843650818
D4:22:CD:00:05:5E,-71.63590240478516,-52.24227523803711,-140.27130126953125,-12.83458137512207,-8.222270965576172,-10.096565246582031,1473.4768843650818
D4:22:CD:00:05:5D,164.04351806640625,-74.92550659179688,-92.30664825439453,0.7694039344787598,-1.7971646785736084,-0.2728137969970703,1473.5071489810944
D4:22:CD:00:05:6B,-20.24317169189453,47.09788131713867,-132.03672790527344,-5.923123359680176,-4.595272064208984,-41.57939910888672,1473.5071489810944
D4:22:CD:00:49:AA,-152.63681030273438,-84.99504852294922,84.03011322021484,-0.5736632347106934,-1.2458479404449463,0.9591102600097656,1473.5071489810944
D4:22:CD:00:05:6E,-16.324947357177734,-54.34820556640625,-124.00950622558594,1.8548994064331055,-10.489295959472656,-4.584715843200684,1473.5071489810944
D4:22:CD:00:05:5E,-78.02509307861328,-58.55326461791992,-132.29290771484375,7.327925682067871,-14.545520782470703,2.27646541595459,1473.5071489810944
D4:22:CD:00:05:5D,156.38247680664062,-73.2936019897461,-84.27810668945312,-0.23236742615699768,0.9625676870346069,0.9637374877929688,1473.5666542053223
D4:22:CD:00:05:6B,-43.431148529052734,43.53456115722656,-133.8070068359375,-2.9423470497131348,8.173189163208008,-2.272057056427002,1473.5666542053223
D4:22:CD:00:49:AA,-149.3688507080078,-84.63896942138672,78.23393249511719,-2.040703773498535,-0.10336601734161377,-0.1310863494873047,1473.5666542053223
D4:22:CD:00:05:6E,-21.706600189208984,-53.422203063964844,-113.68475341796875,3.7606163024902344,-13.393884658813477,-2.076559543609619,1473.5666542053223
D4:22:CD:00:05:5E,-95.19123840332031,-62.719886779785156,-119.4363784790039,-7.080436706542969,-9.572965621948242,2.6515560150146484,1473.5666542053223
D4:22:CD:00:05:5D,149.03123474121094,-72.4020767211914,-76.62638092041016,-1.6639378070831299,2.90208101272583,1.932358741760254,1473.596703529358
D4:22:CD:00:05:6B,-41.1900749206543,46.98061752319336,-128.62718200683594,-16.58230972290039,-6.773069381713867,0.4922170639038086,1473.596703529358
D4:22:CD:00:49:AA,-149.36709594726562,-83.86007690429688,75.6832275390625,2.1602745056152344,-1.137063980102539,0.6284914016723633,1473.596703529358
D4:22:CD:00:05:6E,-32.185665130615234,-54.6734733581543,-106.19474792480469,3.510702133178711,-14.813440322875977,-0.9447393417358398,1473.596703529358
D4:22:CD:00:05:5E,-109.55169677734375,-65.43043518066406,-108.3186264038086,-0.1396009922027588,5.039632797241211,2.7923336029052734,1473.596703529358
D4:22:CD:00:05:5D,140.9982147216797,-72.50028228759766,-69.21937561035156,0.045021094381809235,0.5907350778579712,2.404294967651367,1473.626702785492
D4:22:CD:00:05:6B,-22.72046661376953,53.22904968261719,-116.48796081542969,1.1897196769714355,1.836927890777588,-10.157905578613281,1473.626702785492
D4:22:CD:00:49:AA,-149.5335235595703,-82.31172943115234,72.95695495605469,4.638766288757324,-0.8593677282333374,3.075545310974121,1473.626702785492
D4:22:CD:00:05:6E,-46.58774185180664,-57.70594787597656,-101.68058013916016,0.04138612002134323,-12.040422439575195,2.016572952270508,1473.626702785492
D4:22:CD:00:05:5E,-117.52764129638672,-67.50699615478516,-100.31471252441406,-4.963931083679199,-4.147815704345703,0.8844738006591797,1473.626702785492
D4:22:CD:00:05:5D,131.884033203125,-72.99146270751953,-62.735939025878906,2.564185619354248,-0.37874090671539307,3.5667343139648438,1473.6567578315735
D4:22:CD:00:05:6B,-1.2991396188735962,54.69076156616211,-88.60696411132812,-11.67642593383789,-6.808897972106934,-10.955949783325195,1473.6567578315735
D4:22:CD:00:49:AA,-147.94729614257812,-82.16398620605469,68.34011840820312,6.962191581726074,1.8394572734832764,1.4824647903442383,1473.6567578315735
D4:22:CD:00:05:6E,-58.49354934692383,-61.38134765625,-98.64468383789062,-0.9639049768447876,-2.45943546295166,1.0562162399291992,1473.6567578315735
D4:22:CD:00:05:5E,-122.44709777832031,-68.91141510009766,-95.861083984375,-4.960226058959961,-3.4173455238342285,-0.8433866500854492,1473.6567578315735
D4:22:CD:00:05:5D,117.8970718383789,-75.3038330078125,-55.601318359375,6.051015853881836,1.6058971881866455,-0.03873634338378906,1473.6867966651917
D4:22:CD:00:05:6B,18.042112350463867,46.74092483520508,-65.96229553222656,-4.102190017700195,-1.0829129219055176,-2.235940933227539,1473.6867966651917
D4:22:CD:00:49:AA,-155.01040649414062,-81.67487335205078,73.57372283935547,1.6606733798980713,0.19771909713745117,2.2357969284057617,1473.6867966651917
D4:22:CD:00:05:6E,-66.33719635009766,-63.98001480102539,-95.91019439697266,0.6393938064575195,-2.222266674041748,1.6183958053588867,1473.6867966651917
D4:22:CD:00:05:5E,-124.12323760986328,-70.50924682617188,-94.71871185302734,-3.462562084197998,-2.828428268432617,0.4877328872680664,1473.6867966651917
D4:22:CD:00:05:5D,115.99687194824219,-75.61701202392578,-65.56763458251953,11.239364624023438,16.045726776123047,4.061173439025879,1473.7168130874634
D4:22:CD:00:05:6B,25.75935173034668,34.216304779052734,-51.124324798583984,-0.07099103927612305,5.317706108093262,2.5051870346069336,1473.7168130874634
D4:22:CD:00:49:AA,-156.38388061523438,-81.66436004638672,74.55009460449219,0.022758983075618744,1.0063254833221436,1.1919097900390625,1473.7168130874634
D4:22:CD:00:05:6E,-71.69194793701172,-65.40505981445312,-94.80320739746094,1.1097314357757568,-3.902146339416504,1.7668914794921875,1473.7168130874634
D4:22:CD:00:05:5E,-119.74987030029297,-73.19676971435547,-97.96267700195312,-3.567729949951172,-1.9405663013458252,-0.2473430633544922,1473.7168130874634
D4:22:CD:00:05:5D,132.0565643310547,-69.20890808105469,-88.7061538696289,15.709299087524414,5.903194427490234,7.509706497192383,1473.7470161914825
D4:22:CD:00:05:6B,24.4694881439209,19.10001564025879,-39.63035202026367,-3.068589687347412,5.8862504959106445,-6.388542175292969,1473.7470161914825
D4:22:CD:00:49:AA,-154.77682495117188,-81.99592590332031,73.3794174194336,5.2728681564331055,2.203494071960449,0.009448051452636719,1473.7470161914825
D4:22:CD:00:05:6E,-73.30352020263672,-66.83946990966797,-96.20167541503906,-1.3644094467163086,-4.352781295776367,0.8021974563598633,1473.7470161914825
D4:22:CD:00:05:5E,-112.71016693115234,-75.855712890625,-103.65676879882812,-2.4750638008117676,-2.1996421813964844,-0.13762474060058594,1473.7470161914825
D4:22:CD:00:05:5D,145.73672485351562,-58.29658126831055,-103.89266967773438,6.509671211242676,1.4183664321899414,5.968581199645996,1473.7772257328033
D4:22:CD:00:05:6B,20.84037971496582,1.5296664237976074,-28.131046295166016,8.14072036743164,5.227078437805176,-1.7336912155151367,1473.7772257328033
D4:22:CD:00:49:AA,-157.04173278808594,-82.07447052001953,76.18230438232422,5.952143669128418,1.0306510925292969,-0.09961605072021484,1473.7772257328033
D4:22:CD:00:05:6E,-71.60784912109375,-68.6985092163086,-99.0473861694336,-3.0303783416748047,-4.084439277648926,0.4578714370727539,1473.7772257328033
D4:22:CD:00:05:5E,-104.6141128540039,-77.97708892822266,-110.10736846923828,-2.5762863159179688,-3.066725730895996,-1.1500463485717773,1473.7772257328033
D4:22:CD:00:05:5D,151.465087890625,-47.21474838256836,-113.27061462402344,-1.0334975719451904,-2.3627138137817383,0.7861089706420898,1473.80730342865
D4:22:CD:00:05:6B,6.480807304382324,-13.680814743041992,-15.485562324523926,5.7766923904418945,16.125289916992188,-3.12636137008667,1473.80730342865
D4:22:CD:00:49:AA,-160.0665283203125,-82.65290069580078,79.22936248779297,2.2984228134155273,0.12010468542575836,-0.6384449005126953,1473.80730342865
D4:22:CD:00:05:6E,-66.70346069335938,-70.70645904541016,-103.48014068603516,-4.107495307922363,-2.345248222351074,-1.7266244888305664,1473.80730342865
D4:22:CD:00:05:5E,-98.43335723876953,-79.24906158447266,-114.88880920410156,-3.24765682220459,-2.8766698837280273,-1.6947059631347656,1473.80730342865
D4:22:CD:00:05:5D,152.27178955078125,-37.3642463684082,-119.8249740600586,-3.7833900451660156,-3.8738174438476562,-5.235513687133789,1473.8668234348297
D4:22:CD:00:05:6B,-15.149867057800293,-24.566953659057617,-4.457134246826172,2.340365409851074,-3.420686721801758,-3.700359344482422,1473.8668234348297
D4:22:CD:00:49:AA,-160.59619140625,-83.47994995117188,79.82933807373047,0.9802767038345337,-0.2634757161140442,-2.5455522537231445,1473.8668234348297
D4:22:CD:00:05:6E,-58.59189224243164,-72.54634857177734,-109.17813110351562,-3.5972657203674316,-2.870314121246338,-3.2867660522460938,1473.8668234348297
D4:22:CD:00:05:5E,-97.50288391113281,-79.63024139404297,-114.96428680419922,-2.406269073486328,-4.304884910583496,-3.0242042541503906,1473.8668234348297
D4:22:CD:00:05:5D,151.68862915039062,-29.433624267578125,-124.48115539550781,-4.069476127624512,-1.774043321609497,-10.490102767944336,1473.8966529369354
D4:22:CD:00:05:6B,-20.75746726989746,-30.01946449279785,0.8194822072982788,-2.2878360748291016,0.4118090271949768,2.971935272216797,1473.8966529369354
D4:22:CD:00:49:AA,-159.57223510742188,-84.02459716796875,79.36565399169922,1.0380523204803467,-0.41580671072006226,-4.394927978515625,1473.8966529369354
D4:22:CD:00:05:6E,-47.09285354614258,-74.18904113769531,-117.0680923461914,-2.8941688537597656,-3.342775344848633,-4.011375427246094,1473.8966529369354
D4:22:CD:00:05:5E,-103.75891876220703,-78.98495483398438,-108.38030242919922,-2.9211020469665527,-4.578280448913574,-3.0663113594055176,1473.8966529369354
D4:22:CD:00:05:5D,152.69979858398438,-24.090991973876953,-127.92794036865234,-3.903294086456299,-1.3824076652526855,-14.392814636230469,1473.9276967048645
D4:22:CD:00:05:6B,-17.242156982421875,-32.43366622924805,-0.9462343454360962,-4.428882598876953,7.105707168579102,-7.140515327453613,1473.9276967048645
D4:22:CD:00:49:AA,-159.1645965576172,-84.1968765258789,79.90631103515625,1.3134880065917969,0.6352968215942383,-5.140715599060059,1473.9276967048645
D4:22:CD:00:05:6E,-32.373069763183594,-75.48500061035156,-128.08091735839844,-1.25584077835083,-3.257749557495117,-4.56117057800293,1473.9276967048645
D4:22:CD:00:05:5E,-114.14968872070312,-77.12841033935547,-98.35922241210938,-3.8748421669006348,-6.5099029541015625,-4.6396942138671875,1473.9276967048645
D4:22:CD:00:05:5D,154.68629455566406,-22.05842399597168,-130.7726287841797,-4.354753494262695,-1.7199337482452393,-11.870769500732422,1473.9569540023804
D4:22:CD:00:05:6B,-16.16095733642578,-36.214820861816406,-6.382497310638428,-3.8048324584960938,6.424661636352539,-10.947517395019531,1473.9569540023804
D4:22:CD:00:49:AA,-159.9971466064453,-84.08805084228516,81.22570037841797,3.15250825881958,0.9863938093185425,-3.4703121185302734,1473.9569540023804
D4:22:CD:00:05:6E,-14.731372833251953,-76.21119689941406,-142.20535278320312,-0.38928717374801636,-3.212770462036133,-5.058587074279785,1473.9569540023804
D4:22:CD:00:05:5E,-123.79790496826172,-74.20978546142578,-89.86849975585938,-3.138014793395996,-1.9306244850158691,0.24693965911865234,1473.9569540023804
D4:22:CD:00:05:5D,156.149169921875,-24.060075759887695,-132.77694702148438,-8.642484664916992,-4.4333600997924805,-12.477474212646484,1473.9864325523376
D4:22:CD:00:05:6B,-19.10468101501465,-44.519775390625,-15.131381034851074,4.4534711837768555,2.6826171875,-12.58411979675293,1473.9864325523376
D4:22:CD:00:49:AA,-157.6827850341797,-84.53130340576172,77.85903930664062,7.02412223815918,1.4669010639190674,0.4476280212402344,1473.9864325523376
D4:22:CD:00:05:6E,0.8364787101745605,-76.17066192626953,-156.51266479492188,0.4716947674751282,-9.272455215454102,-4.715130805969238,1473.9864325523376
D4:22:CD:00:05:5E,-127.89847564697266,-71.7903823852539,-86.08895874023438,-2.9744315147399902,-2.473761558532715,-0.5873517990112305,1473.9864325523376
D4:22:CD:00:05:5D,158.6849365234375,-29.067020416259766,-133.42221069335938,2.236776351928711,-4.300420761108398,11.91557502746582,1474.0167260169983
D4:22:CD:00:05:6B,-8.153401374816895,-58.372314453125,-35.484134674072266,7.3392181396484375,-15.00338363647461,15.723028182983398,1474.0167260169983
D4:22:CD:00:49:AA,-157.51205444335938,-85.01807403564453,75.6067886352539,-1.2929270267486572,2.7178378105163574,-1.7974414825439453,1474.0167260169983
D4:22:CD:00:05:6E,1.9579260349273682,-75.896240234375,-167.886962890625,-1.27217435836792,-12.920345306396484,0.679835319519043,1474.0167260169983
D4:22:CD:00:05:5E,-130.4939727783203,-70.27826690673828,-83.50888061523438,-3.1727027893066406,-0.7938995361328125,2.055501937866211,1474.0167260169983
D4:22:CD:00:05:5D,162.90782165527344,-30.996095657348633,-132.87461853027344,-7.281280517578125,-0.17575135827064514,17.187973022460938,1474.0468487739563
D4:22:CD:00:05:6B,32.10647964477539,-62.94500732421875,-75.6019287109375,-8.089330673217773,-17.048538208007812,60.287376403808594,1474.0468487739563
D4:22:CD:00:49:AA,-168.74497985839844,-83.95610046386719,87.3307113647461,-6.298031806945801,2.0423436164855957,5.445269584655762,1474.0468487739563
D4:22:CD:00:05:6E,-2.09024977684021,-75.1719970703125,-179.1873321533203,0.3622642755508423,-9.396324157714844,10.643960952758789,1474.0468487739563
D4:22:CD:00:05:5E,-130.20266723632812,-70.94405364990234,-83.10455322265625,-3.991379737854004,-0.23427554965019226,1.8518190383911133,1474.0468487739563
D4:22:CD:00:05:5D,161.8389892578125,-31.449708938598633,-131.7763671875,-13.611892700195312,-12.154001235961914,5.295201301574707,1474.0776064395905
D4:22:CD:00:05:6B,26.20587158203125,-64.28311157226562,-60.426780700683594,37.034942626953125,16.30465316772461,7.139225006103516,1474.0776064395905
D4:22:CD:00:49:AA,-167.592529296875,-82.86534881591797,87.91295623779297,4.064909934997559,0.8595879077911377,11.55874252319336,1474.0776064395905
D4:22:CD:00:05:6E,14.191278457641602,-71.42286682128906,159.43849182128906,-0.1971127688884735,-3.523679733276367,12.122201919555664,1474.0776064395905
D4:22:CD:00:05:5E,-129.10096740722656,-72.85575103759766,-84.08649444580078,-4.032046318054199,-2.0366382598876953,-0.054528236389160156,1474.0776064395905
D4:22:CD:00:05:5D,161.80638122558594,-30.217632293701172,-131.3957061767578,-16.820465087890625,-8.721878051757812,7.44877815246582,1474.1371541023254
D4:22:CD:00:05:6B,-28.441286087036133,-57.77960205078125,-17.45693588256836,4.307271957397461,-6.258840560913086,31.60684585571289,1474.1371541023254
D4:22:CD:00:49:AA,-167.90367126464844,-80.8548355102539,88.71139526367188,2.2613725662231445,-0.23090675473213196,1.424422264099121,1474.1371541023254
D4:22:CD:00:05:6E,37.51530075073242,-62.43290328979492,136.70391845703125,1.9567713737487793,-17.715694427490234,18.73544692993164,1474.1371541023254
D4:22:CD:00:05:5E,-128.0682830810547,-74.49175262451172,-86.4007568359375,-4.302768707275391,-2.459256172180176,-0.5120878219604492,1474.1371541023254
D4:22:CD:00:05:5D,161.89495849609375,-27.17807388305664,-130.27651977539062,-12.206001281738281,-7.479124069213867,3.6107873916625977,1474.1672706604004
D4:22:CD:00:05:6B,-35.38964080810547,-43.24436950683594,-4.562454700469971,15.030956268310547,-1.8389430046081543,10.501951217651367,1474.1672706604004
D4:22:CD:00:49:AA,-170.06234741210938,-80.65021514892578,92.04520416259766,0.925201416015625,1.9406373500823975,3.781705856323242,1474.1672706604004
D4:22:CD:00:05:6E,44.720638275146484,-50.17027282714844,124.9103775024414,6.558346748352051,-13.232446670532227,17.83502960205078,1474.1672706604004
D4:22:CD:00:05:5E,-122.59117126464844,-76.14629364013672,-92.86547088623047,-3.797435760498047,-3.009333610534668,-0.6296501159667969,1474.1672706604004
D4:22:CD:00:05:5D,164.1160125732422,-24.25511360168457,-129.08299255371094,-7.992968559265137,-6.822848320007324,2.2478952407836914,1474.1967976093292
D4:22:CD:00:05:6B,-30.432331085205078,-31.995882034301758,-1.2383311986923218,14.166900634765625,5.358460426330566,-7.458085060119629,1474.1967976093292
D4:22:CD:00:49:AA,-174.58811950683594,-80.94661712646484,96.96707916259766,3.272322177886963,0.7457077503204346,0.9053287506103516,1474.1967976093292
D4:22:CD:00:05:6E,44.38234329223633,-35.23579788208008,116.7423324584961,5.378437042236328,-4.589317321777344,11.175077438354492,1474.1967976093292
D4:22:CD:00:05:5E,-111.74673461914062,-77.9058609008789,-104.51343536376953,-3.2884416580200195,-2.856895923614502,-0.6572198867797852,1474.1967976093292
D4:22:CD:00:05:5D,162.25897216796875,-22.976707458496094,-128.14096069335938,-8.488420486450195,-1.1306955814361572,-0.7428197860717773,1474.2270321846008
D4:22:CD:00:05:6B,-36.39176559448242,-23.368743896484375,0.17376990616321564,5.404397010803223,2.7497897148132324,-11.762245178222656,1474.2270321846008
D4:22:CD:00:49:AA,179.14976501464844,-81.30101013183594,102.81282043457031,2.974769115447998,1.2480814456939697,-3.5610804557800293,1474.2270321846008
D4:22:CD:00:05:6E,39.156307220458984,-19.814237594604492,109.90425109863281,1.1812283992767334,1.4597158432006836,6.707834243774414,1474.2270321846008
D4:22:CD:00:05:5E,-97.44916534423828,-79.15149688720703,-119.33977508544922,-2.1570396423339844,-2.726503849029541,-1.5530967712402344,1474.2270321846008
D4:22:CD:00:05:5D,157.67762756347656,-23.45871925354004,-126.55470275878906,-6.341744422912598,-0.8947306871414185,-8.393842697143555,1474.2570328712463
D4:22:CD:00:05:6B,-46.408180236816406,-18.088233947753906,0.03938388079404831,-0.03897912800312042,0.46516573429107666,-7.618721961975098,1474.2570328712463
D4:22:CD:00:49:AA,171.82199096679688,-81.28985595703125,109.74290466308594,0.5564525127410889,1.3139479160308838,-4.453269004821777,1474.2570328712463
D4:22:CD:00:05:6E,28.710737228393555,-6.584763050079346,104.5443344116211,1.29848051071167,1.876957654953003,-0.34183692932128906,1474.2570328712463
D4:22:CD:00:05:5E,-83.65775299072266,-79.4400405883789,-132.80335998535156,-2.277923583984375,-4.308297157287598,-3.2622785568237305,1474.2570328712463
D4:22:CD:00:05:5D,154.749755859375,-26.534025192260742,-124.43659210205078,-4.571070671081543,-2.1160101890563965,-15.034940719604492,1474.2872581481934
D4:22:CD:00:05:6B,-51.22567367553711,-16.191030502319336,-2.1146888732910156,-0.554712176322937,1.779496192932129,-4.966214179992676,1474.2872581481934
D4:22:CD:00:49:AA,166.58694458007812,-80.81398010253906,114.66080474853516,0.12114457786083221,0.5086623430252075,-4.39241886138916,1474.2872581481934
D4:22:CD:00:05:6E,18.277849197387695,3.5384650230407715,100.26885986328125,-5.407395362854004,-1.891646146774292,-3.538785457611084,1474.2872581481934
D4:22:CD:00:05:5E,-79.90250396728516,-78.93567657470703,-136.7047882080078,-2.709543228149414,-6.257484436035156,-4.337325096130371,1474.2872581481934
D4:22:CD:00:05:5D,153.5782470703125,-33.10438919067383,-121.9498062133789,-4.410118103027344,-2.035097599029541,-13.763103485107422,1474.3192212581635
D4:22:CD:00:05:6B,-50.698951721191406,-17.072969436645508,-6.096834182739258,0.5675803422927856,2.5770092010498047,-7.594581604003906,1474.3192212581635
D4:22:CD:00:49:AA,163.55320739746094,-80.54667663574219,117.51400756835938,0.9968781471252441,-0.7075842618942261,-3.756788730621338,1474.3192212581635
D4:22:CD:00:05:6E,8.300159454345703,11.018445014953613,97.39960479736328,-10.192035675048828,-3.686244487762451,-6.894448280334473,1474.3192212581635
D4:22:CD:00:05:5E,-85.70222473144531,-77.87580871582031,-131.22215270996094,-1.1270112991333008,-4.286031723022461,-1.340956687927246,1474.3192212581635
D4:22:CD:00:05:5D,151.49583435058594,-43.40232467651367,-118.5419921875,-3.3446192741394043,-3.68550443649292,-8.93447494506836,1474.346943616867
D4:22:CD:00:05:6B,-49.55104446411133,-19.907470703125,-11.340208053588867,0.020169556140899658,1.5496010780334473,-9.112970352172852,1474.346943616867
D4:22:CD:00:49:AA,162.91175842285156,-80.40101623535156,117.98819732666016,2.662179470062256,0.4684065580368042,-1.4882984161376953,1474.346943616867
D4:22:CD:00:05:6E,1.4762011766433716,17.480175018310547,97.3671875,-0.4213729500770569,-1.8343501091003418,-8.679244995117188,1474.346943616867
D4:22:CD:00:05:5E,-95.6165771484375,-76.12230682373047,-121.05493927001953,-2.4037179946899414,-4.030576705932617,-2.3956828117370605,1474.346943616867
D4:22:CD:00:05:5D,146.89654541015625,-56.506011962890625,-112.20870208740234,-2.566823959350586,-4.979480743408203,-1.3796501159667969,1474.3764646053314
D4:22:CD:00:05:6B,-50.747413635253906,-24.506135940551758,-17.311264038085938,0.2104954719543457,1.4678494930267334,-8.98514175415039,1474.3764646053314
D4:22:CD:00:49:AA,164.27821350097656,-80.5316162109375,116.15511322021484,3.6404776573181152,0.8942676782608032,-1.6129283905029297,1474.3764646053314
D4:22:CD:00:05:6E,2.523179531097412,24.243356704711914,101.84896087646484,-2.382568359375,-4.930871963500977,-13.469404220581055,1474.3764646053314
D4:22:CD:00:05:5E,-105.87335968017578,-73.36128997802734,-110.03853607177734,-3.1163854598999023,-4.4688310623168945,-2.2847847938537598,1474.3764646053314
D4:22:CD:00:05:5D,134.97962951660156,-70.65579223632812,-97.072998046875,6.411708831787109,-5.643342018127441,10.766891479492188,1474.4369349479675
D4:22:CD:00:05:6B,-54.30476760864258,-30.426557540893555,-23.722368240356445,-0.28421682119369507,0.9106762409210205,-6.247101783752441,1474.4369349479675
D4:22:CD:00:49:AA,168.30953979492188,-80.68962097167969,112.50443267822266,2.342568874359131,0.07789202034473419,-1.736607551574707,1474.4369349479675
D4:22:CD:00:05:6E,0.03183791786432266,28.997800827026367,112.5459213256836,2.013068199157715,-1.3998527526855469,-7.911345481872559,1474.4369349479675
D4:22:CD:00:05:5E,-112.8812484741211,-70.33954620361328,-102.39839172363281,-2.915738105773926,-0.5698163509368896,1.3569812774658203,1474.4369349479675
D4:22:CD:00:05:5D,103.18997192382812,-79.3879623413086,-56.621559143066406,17.392269134521484,5.955731391906738,10.457956314086914,1474.4670193195343
D4:22:CD:00:05:6B,-58.51060485839844,-37.761009216308594,-30.06991195678711,-0.9214315414428711,1.8551952838897705,-5.842690467834473,1474.4670193195343
D4:22:CD:00:49:AA,171.4046173095703,-81.73233795166016,110.67582702636719,2.7805018424987793,-0.5628319978713989,-1.2677583694458008,1474.4670193195343
D4:22:CD:00:05:6E,1.6426324844360352,32.66500473022461,130.06591796875,-10.160526275634766,4.6796979904174805,-15.268156051635742,1474.4670193195343
D4:22:CD:00:05:5E,-114.65326690673828,-67.95748138427734,-99.80457305908203,-5.611952781677246,-0.2280300259590149,0.5028553009033203,1474.4670193195343
D4:22:CD:00:05:5D,79.77586364746094,-79.04448699951172,-24.043325424194336,15.385688781738281,24.648502349853516,-4.828946113586426,1474.4966807365417
D4:22:CD:00:05:6B,-60.8687744140625,-46.50788879394531,-35.21026611328125,-1.0607101917266846,4.047780990600586,-5.3790693283081055,1474.4966807365417
D4:22:CD:00:49:AA,170.48568725585938,-82.65701293945312,111.64720153808594,5.456027984619141,0.4495779871940613,0.4285888671875,1474.4966807365417
D4:22:CD:00:05:6E,4.667625904083252,31.515457153320312,149.87437438964844,-20.079681396484375,3.5530853271484375,-24.016803741455078,1474.4966807365417
D4:22:CD:00:05:5E,-111.45097351074219,-66.41248321533203,-102.96361541748047,-5.087888717651367,-1.8934786319732666,1.7173070907592773,1474.4966807365417
D4:22:CD:00:05:5D,98.21382141113281,-77.3509521484375,-37.11824035644531,14.827054977416992,10.720809936523438,-1.422475814819336,1474.5267684459686
D4:22:CD:00:05:6B,-60.415348052978516,-57.06834030151367,-38.468788146972656,0.04093480110168457,4.155919075012207,-2.4746952056884766,1474.5267684459686
D4:22:CD:00:49:AA,166.24856567382812,-81.75350189208984,113.87135314941406,6.909212112426758,1.6543562412261963,6.277626037597656,1474.5267684459686
D4:22:CD:00:05:6E,1.1247882843017578,33.34443664550781,157.27757263183594,4.669040679931641,6.047224044799805,-7.826169013977051,1474.5267684459686
D4:22:CD:00:05:5E,-104.65064239501953,-65.36211395263672,-110.55796813964844,-5.3414106369018555,-2.954953193664551,2.4878625869750977,1474.5267684459686
D4:22:CD:00:05:5D,120.3317642211914,-75.16525268554688,-56.57182312011719,-0.3883349895477295,-12.887582778930664,2.825857162475586,1474.5588247776031
D4:22:CD:00:05:6B,-57.45268249511719,-70.04644775390625,-41.31516647338867,1.149345874786377,0.9485630989074707,5.686867713928223,1474.5588247776031
D4:22:CD:00:49:AA,165.48272705078125,-81.08406066894531,113.99185943603516,-0.27063459157943726,-1.0969221591949463,3.9906816482543945,1474.5588247776031
D4:22:CD:00:05:6E,15.738510131835938,34.88719177246094,149.35382080078125,0.19482499361038208,-3.212707996368408,-3.9691643714904785,1474.5588247776031
D4:22:CD:00:05:5E,-92.21034240722656,-64.99858856201172,-122.9064712524414,-3.389535427093506,-6.952446937561035,3.015347480773926,1474.5588247776031
D4:22:CD:00:05:5D,132.707763671875,-73.77176666259766,-66.36726379394531,1.7548859119415283,0.35636836290359497,3.3428220748901367,1474.5873374938965
D4:22:CD:00:05:6B,-49.5620002746582,-85.56279754638672,-49.7386474609375,0.6793340444564819,-4.794211387634277,24.946319580078125,1474.5873374938965
D4:22:CD:00:49:AA,167.8336944580078,-80.68451690673828,115.54248809814453,-3.691100597381592,-1.574467658996582,0.3954753875732422,1474.5873374938965
D4:22:CD:00:05:6E,34.21769714355469,36.96142578125,136.25216674804688,-4.841274261474609,-9.052391052246094,-6.516763687133789,1474.5873374938965
D4:22:CD:00:05:5E,-74.96844482421875,-63.7672004699707,-136.7628936767578,-7.759420394897461,-5.576875686645508,-2.663504123687744,1474.5873374938965
D4:22:CD:00:05:5D,143.5303192138672,-74.00874328613281,-74.68103790283203,-6.890470504760742,5.2237701416015625,3.571805000305176,1474.6164000034332
D4:22:CD:00:05:6B,115.38297271728516,-83.15995025634766,139.4298095703125,4.285503387451172,4.282186508178711,19.10836410522461,1474.6164000034332
D4:22:CD:00:49:AA,169.26844787597656,-79.30587005615234,117.31009674072266,-3.85673189163208,1.1780285835266113,0.19329833984375,1474.6164000034332
D4:22:CD:00:05:6E,42.31951904296875,36.409358978271484,120.9170913696289,-10.179834365844727,-8.494922637939453,-2.3774008750915527,1474.6164000034332
D4:22:CD:00:05:5E,-70.61824798583984,-62.45448684692383,-138.00537109375,-21.575443267822266,4.988204002380371,-6.2975053787231445,1474.6164000034332
D4:22:CD:00:05:5D,151.1573028564453,-74.27325439453125,-81.58118438720703,1.5500469207763672,-0.07471926510334015,0.5174713134765625,1474.6469395160675
D4:22:CD:00:05:6B,119.8963623046875,-79.8956298828125,133.23960876464844,-6.351871490478516,8.519622802734375,0.10309123992919922,1474.6469395160675
D4:22:CD:00:49:AA,172.12985229492188,-77.86742401123047,116.93119812011719,-2.7046360969543457,0.01753682643175125,0.6288175582885742,1474.6469395160675
D4:22:CD:00:05:6E,37.1270866394043,31.034143447875977,106.33572387695312,-6.194765090942383,-9.51231575012207,-2.8524632453918457,1474.6469395160675
D4:22:CD:00:05:5E,-85.70850372314453,-61.419185638427734,-122.00230407714844,-22.571765899658203,-0.8907771110534668,-6.317904472351074,1474.6469395160675
D4:22:CD:00:05:5D,158.56336975097656,-74.38333892822266,-86.20365142822266,2.445657253265381,0.895616888999939,0.8578205108642578,1474.676838874817
D4:22:CD:00:05:6B,134.55560302734375,-80.7977294921875,126.80537414550781,-1.1534230709075928,-1.5251433849334717,2.007661819458008,1474.676838874817
D4:22:CD:00:49:AA,173.66859436035156,-76.63811492919922,117.33306121826172,-2.3359122276306152,-0.2798270583152771,1.3889093399047852,1474.676838874817
D4:22:CD:00:05:6E,30.890483856201172,20.797027587890625,94.05074310302734,1.6365375518798828,-10.903799057006836,-14.23321533203125,1474.676838874817
D4:22:CD:00:05:5E,-109.51557922363281,-57.06621551513672,-99.71968841552734,-14.12932014465332,-7.07565975189209,0.2104959487915039,1474.676838874817
D4:22:CD:00:05:5D,163.8447723388672,-74.9786148071289,-89.62442016601562,-2.5115461349487305,2.217222213745117,1.4420042037963867,1474.7365560531616
D4:22:CD:00:05:6B,158.19210815429688,-82.72711181640625,108.14727783203125,-1.835853099822998,-3.103407382965088,1.6643848419189453,1474.7365560531616
D4:22:CD:00:49:AA,172.56475830078125,-76.1240463256836,120.38836669921875,-2.9433131217956543,0.3854062557220459,-0.38415050506591797,1474.7365560531616
D4:22:CD:00:05:6E,31.445863723754883,6.024439811706543,82.49016571044922,-7.283614158630371,-0.7992386817932129,-16.19845962524414,1474.7365560531616
D4:22:CD:00:05:5E,-126.86673736572266,-51.153507232666016,-82.1595230102539,-5.356524467468262,-8.364368438720703,-3.0073695182800293,1474.7365560531616
D4:22:CD:00:05:5D,169.4708709716797,-76.35891723632812,-94.97443389892578,-0.6109614372253418,0.04975733160972595,0.14770221710205078,1474.7669773101807
D4:22:CD:00:05:6B,175.03602600097656,-83.14517211914062,89.37640380859375,-0.17747682332992554,-1.4279954433441162,-2.354231357574463,1474.7669773101807
D4:22:CD:00:49:AA,171.42465209960938,-75.7365493774414,123.05892181396484,-1.91339111328125,0.49369698762893677,-1.3584489822387695,1474.7669773101807
D4:22:CD:00:05:6E,27.191768646240234,-9.356285095214844,69.08125305175781,-3.077071189880371,10.575645446777344,-6.265530586242676,1474.7669773101807
D4:22:CD:00:05:5E,-136.40675354003906,-46.75225830078125,-68.99414825439453,-1.9821488857269287,-7.727719306945801,-6.7925920486450195,1474.7669773101807
D4:22:CD:00:05:5D,177.64939880371094,-77.88607025146484,-103.34148406982422,-0.8003334999084473,0.12689456343650818,0.31282615661621094,1474.7974972724915
D4:22:CD:00:05:6B,171.87069702148438,-83.46112060546875,84.71566009521484,-3.8044662475585938,-1.274585247039795,-4.301304817199707,1474.7974972724915
D4:22:CD:00:49:AA,171.46768188476562,-75.45217895507812,123.57037353515625,-0.15695905685424805,0.9560182094573975,-0.27144718170166016,1474.7974972724915
D4:22:CD:00:05:6E,23.616853713989258,-20.754680633544922,52.81874084472656,16.54157257080078,4.611264228820801,2.3328752517700195,1474.7974972724915
D4:22:CD:00:05:5E,-141.38502502441406,-44.255821228027344,-58.58647918701172,0.22691527009010315,-5.191247940063477,-7.389133453369141,1474.7974972724915
D4:22:CD:00:05:5D,-173.8060302734375,-79.1058120727539,-113.35944366455078,0.511996865272522,-0.488750159740448,-0.03288841247558594,1474.8264977931976
D4:22:CD:00:05:6B,155.59091186523438,-83.7347183227539,91.9540023803711,-6.416181564331055,-2.659557819366455,-5.4255828857421875,1474.8264977931976
D4:22:CD:00:49:AA,170.23292541503906,-75.27743530273438,125.19676971435547,-1.2978606224060059,0.4339328408241272,-1.6960229873657227,1474.8264977931976
D4:22:CD:00:05:6E,33.40191650390625,-23.56015968322754,39.14647674560547,24.099788665771484,-21.369068145751953,4.092879295349121,1474.8264977931976
D4:22:CD:00:05:5E,-145.46136474609375,-43.210731506347656,-49.930511474609375,-0.6257723569869995,-4.655511856079102,-8.927995681762695,1474.8264977931976
D4:22:CD:00:05:5D,-165.90069580078125,-79.66995239257812,-122.4935302734375,0.7549221515655518,-1.9458134174346924,-0.5939674377441406,1474.8570675849915
D4:22:CD:00:05:6B,138.06594848632812,-83.22563934326172,103.41822814941406,-5.43244743347168,-0.08271360397338867,-3.864500045776367,1474.8570675849915
D4:22:CD:00:49:AA,167.16539001464844,-75.08068084716797,128.8379364013672,-1.6062004566192627,-0.2711338400840759,-3.2357397079467773,1474.8570675849915
D4:22:CD:00:05:6E,56.892356872558594,-19.43596076965332,35.43888854980469,5.982134819030762,-9.374101638793945,-7.5829925537109375,1474.8570675849915
D4:22:CD:00:05:5E,-152.60560607910156,-43.16050720214844,-41.556396484375,-1.508498191833496,-3.6861085891723633,-6.253403663635254,1474.8570675849915
D4:22:CD:00:05:5D,-160.390869140625,-79.42422485351562,-127.855224609375,1.0295495986938477,-1.615870475769043,-0.7135181427001953,1474.8873777389526
D4:22:CD:00:05:6B,122.33900451660156,-82.64590454101562,115.05139923095703,-3.924234390258789,-0.7632392644882202,-2.6643805503845215,1474.8873777389526
D4:22:CD:00:49:AA,163.33607482910156,-74.50361633300781,132.34503173828125,-0.7772054672241211,-0.3284267783164978,-3.153883934020996,1474.8873777389526
D4:22:CD:00:05:6E,76.29515838623047,-13.662385940551758,37.947750091552734,-8.173385620117188,-0.1347528100013733,0.29636669158935547,1474.8873777389526
D4:22:CD:00:05:5E,-160.59950256347656,-44.425933837890625,-33.113380432128906,1.0269644260406494,-4.508207321166992,-3.6491475105285645,1474.8873777389526
D4:22:CD:00:05:5D,-160.11282348632812,-78.46664428710938,-128.31080627441406,1.9507675170898438,-3.0597968101501465,-1.2687244415283203,1474.9167621135712
D4:22:CD:00:05:6B,110.57811737060547,-82.91548156738281,121.89423370361328,-4.323225021362305,-1.587287187576294,-2.9791293144226074,1474.9167621135712
D4:22:CD:00:49:AA,158.61624145507812,-73.65646362304688,136.1746368408203,-0.12748250365257263,-0.21962928771972656,-4.593482971191406,1474.9167621135712
D4:22:CD:00:05:6E,85.73933410644531,-9.737820625305176,41.92353820800781,-4.573637008666992,-2.949934482574463,-4.435794830322266,1474.9167621135712
D4:22:CD:00:05:5E,-167.32424926757812,-47.298187255859375,-25.0274658203125,10.188264846801758,-2.153719425201416,-6.211263656616211,1474.9167621135712
D4:22:CD:00:05:5D,-167.01499938964844,-76.23042297363281,-121.49124145507812,0.3723663091659546,-4.259434700012207,-0.5262260437011719,1474.9470610618591
D4:22:CD:00:05:6B,100.92989349365234,-84.44981384277344,128.6076202392578,-3.6367053985595703,1.8160271644592285,-2.3856253623962402,1474.9470610618591
D4:22:CD:00:49:AA,153.80447387695312,-72.75382995605469,139.84320068359375,0.008830884471535683,-0.9819241762161255,-4.561061859130859,1474.9470610618591
D4:22:CD:00:05:6E,93.19393157958984,-10.784564971923828,46.926055908203125,-0.997995138168335,-5.130653381347656,-13.535001754760742,1474.9470610618591
D4:22:CD:00:05:5E,-167.32066345214844,-53.16365432739258,-19.97429847717285,9.655065536499023,14.050418853759766,-3.5017833709716797,1474.9470610618591
D4:22:CD:00:05:5D,-174.05975341796875,-72.746826171875,-113.55621337890625,0.3174744248390198,-0.33798712491989136,-1.7043981552124023,1475.0062019824982
D4:22:CD:00:05:6B,86.68756866455078,-87.02448272705078,140.79425048828125,-2.9773054122924805,2.930842399597168,-1.7656898498535156,1475.0062019824982
D4:22:CD:00:49:AA,149.0679168701172,-72.35506439208984,144.27821350097656,-4.561311721801758,-0.3930158019065857,-0.9755592346191406,1475.0062019824982
D4:22:CD:00:05:6E,102.30350494384766,-20.251190185546875,50.292781829833984,-2.1722240447998047,-1.1139187812805176,-6.459271430969238,1475.0062019824982
D4:22:CD:00:05:5E,-163.95846557617188,-56.235816955566406,-17.590755462646484,-26.16263198852539,1.1563537120819092,28.24041748046875,1475.0062019824982
D4:22:CD:00:05:5D,-178.83055114746094,-69.01354217529297,-107.80213165283203,-2.1596322059631348,2.9904890060424805,-1.0772333145141602,1475.0368564128876
D4:22:CD:00:05:6B,0.5767191052436829,-88.515625,-134.62437438964844,-1.5427916049957275,5.925965309143066,-0.6944704055786133,1475.0368564128876
D4:22:CD:00:49:AA,144.1862335205078,-72.30888366699219,150.54934692382812,-3.638385772705078,-0.8331847190856934,-0.5392961502075195,1475.0368564128876
D4:22:CD:00:05:6E,98.60803985595703,-38.630592346191406,50.603431701660156,-4.115466117858887,0.28767991065979004,13.795927047729492,1475.0368564128876
D4:22:CD:00:05:5E,-168.82827758789062,-56.1042366027832,-15.985391616821289,7.93696403503418,1.4913225173950195,4.3655242919921875,1475.0368564128876
D4:22:CD:00:05:5D,177.92430114746094,-65.41969299316406,-104.25086212158203,-0.35982948541641235,-0.6727688312530518,1.4165706634521484,1475.0663287639618
D4:22:CD:00:05:6B,-49.354618072509766,-84.30853271484375,-86.32823181152344,-0.9912195205688477,9.18592643737793,2.6564035415649414,1475.0663287639618
D4:22:CD:00:49:AA,141.21694946289062,-71.69751739501953,154.25689697265625,3.212158679962158,5.2566680908203125,1.0399236679077148,1475.0663287639618
D4:22:CD:00:05:6E,64.9280776977539,-61.669517517089844,55.766502380371094,-3.255862236022949,11.741456985473633,33.102149963378906,1475.0663287639618
D4:22:CD:00:05:5E,-170.3177947998047,-57.073509216308594,-15.096085548400879,9.753904342651367,4.060298919677734,8.420978546142578,1475.0663287639618
D4:22:CD:00:05:5D,175.6588134765625,-62.17915344238281,-101.53369140625,0.0009103682823479176,2.1474905014038086,0.40421199798583984,1475.0972323417664
D4:22:CD:00:05:6B,-58.965919494628906,-75.77668762207031,-78.8947982788086,0.017566680908203125,12.531482696533203,8.554153442382812,1475.0972323417664
D4:22:CD:00:49:AA,138.55335998535156,-71.28897857666016,155.55859375,2.191237449645996,3.7702512741088867,8.131181716918945,1475.0972323417664
D4:22:CD:00:05:6E,11.804384231567383,-70.16724395751953,78.88407897949219,23.86595916748047,0.8175915479660034,18.328540802001953,1475.0972323417664
D4:22:CD:00:05:5E,-168.84205627441406,-57.70003128051758,-14.488588333129883,6.292108535766602,-4.90580940246582,9.267330169677734,1475.0972323417664
D4:22:CD:00:05:5D,174.57635498046875,-59.952510833740234,-100.9159164428711,-0.011854009702801704,0.41626983880996704,1.072488784790039,1475.1272337436676
D4:22:CD:00:05:6B,-62.576568603515625,-63.081703186035156,-77.17180633544922,2.1478562355041504,8.555843353271484,13.259794235229492,1475.1272337436676
D4:22:CD:00:49:AA,136.41860961914062,-71.0613021850586,155.28704833984375,-4.923705101013184,-0.439164936542511,8.762645721435547,1475.1272337436676
D4:22:CD:00:05:6E,25.53544807434082,-68.67804718017578,67.38252258300781,29.480281829833984,-8.608682632446289,6.948308944702148,1475.1272337436676
D4:22:CD:00:05:5E,-168.2831268310547,-57.03160095214844,-14.7601957321167,9.486766815185547,-2.556924343109131,11.15145492553711,1475.1272337436676
D4:22:CD:00:05:5D,174.81527709960938,-58.81703567504883,-101.46206665039062,-0.5323506593704224,2.0663509368896484,1.7357454299926758,1475.1574585437775
D4:22:CD:00:05:6B,-68.31262969970703,-47.88478088378906,-75.73248291015625,3.4416861534118652,11.376184463500977,16.008220672607422,1475.1574585437775
D4:22:CD:00:49:AA,135.9088592529297,-71.13456726074219,154.220947265625,-4.310546875,-0.2512766122817993,5.564879417419434,1475.1574585437775
D4:22:CD:00:05:6E,74.04122161865234,-61.53146743774414,57.04118728637695,11.032291412353516,21.856037139892578,-2.17952299118042,1475.1574585437775
D4:22:CD:00:05:5E,-160.72122192382812,-55.913814544677734,-17.406904220581055,13.531892776489258,-3.170438766479492,4.390966415405273,1475.1574585437775
D4:22:CD:00:05:5D,175.39276123046875,-59.07598876953125,-102.36548614501953,-0.25053250789642334,1.5177392959594727,1.9914436340332031,1475.187067747116
D4:22:CD:00:05:6B,-65.81184387207031,-32.716495513916016,-75.7139663696289,5.053709983825684,7.793913841247559,20.471824645996094,1475.187067747116
D4:22:CD:00:49:AA,136.39076232910156,-71.0896987915039,152.465576171875,-1.710050344467163,-0.81131911277771,4.752856254577637,1475.187067747116
D4:22:CD:00:05:6E,102.95453643798828,-56.377071380615234,58.71620559692383,-13.481880187988281,-2.871551513671875,15.197315216064453,1475.187067747116
D4:22:CD:00:05:5E,-158.76927185058594,-51.10319137573242,-21.513813018798828,5.174341201782227,-8.040937423706055,5.643394470214844,1475.187067747116
D4:22:CD:00:05:5D,176.13633728027344,-60.52162551879883,-103.12714385986328,1.242690086364746,0.1587403416633606,0.2738456726074219,1475.2171030044556
D4:22:CD:00:05:6B,-54.74428176879883,-17.038637161254883,-75.45486450195312,3.7502379417419434,-1.9995558261871338,19.18445587158203,1475.2171030044556
D4:22:CD:00:49:AA,135.55625915527344,-71.28157043457031,152.4565887451172,-1.8857102394104004,-0.7749117612838745,0.9140625,1475.2171030044556
D4:22:CD:00:05:6E,103.18400573730469,-58.188480377197266,61.689735412597656,-3.5658369064331055,-0.26751840114593506,3.0056095123291016,1475.2171030044556
D4:22:CD:00:05:5E,-157.66383361816406,-47.61187744140625,-26.55776596069336,11.434623718261719,2.1010851860046387,3.421772003173828,1475.2171030044556
D4:22:CD:00:05:5D,177.31735229492188,-62.56380844116211,-103.7403793334961,1.0466344356536865,0.1863267719745636,0.3050079345703125,1475.247094631195
D4:22:CD:00:05:6B,-38.7612190246582,-1.1167110204696655,-73.79500579833984,1.618656873703003,-9.968303680419922,8.181461334228516,1475.247094631195
D4:22:CD:00:49:AA,135.9427947998047,-71.98015594482422,152.71652221679688,-4.386678695678711,-0.6768468618392944,-0.6889410018920898,1475.247094631195
D4:22:CD:00:05:6E,98.03046417236328,-65.4565658569336,62.30704879760742,0.7430599927902222,2.482921600341797,-2.512362480163574,1475.247094631195
D4:22:CD:00:05:5E,-150.48757934570312,-46.462135314941406,-34.577781677246094,5.708377838134766,0.14940732717514038,0.3977088928222656,1475.247094631195
D4:22:CD:00:05:5D,178.4342498779297,-65.14488220214844,-104.1280517578125,0.8719946146011353,0.5314481258392334,0.48271942138671875,1475.276733160019
D4:22:CD:00:05:6B,-23.052978515625,13.203902244567871,-70.47974395751953,-1.775670051574707,-9.286520004272461,-0.6999979019165039,1475.276733160019
D4:22:CD:00:49:AA,139.17581176757812,-72.7824935913086,151.25755310058594,-2.4535470008850098,0.2352212369441986,-0.7761774063110352,1475.276733160019
D4:22:CD:00:05:6E,95.50318908691406,-75.64421081542969,60.86514663696289,4.74385929107666,0.3273187279701233,1.6717643737792969,1475.276733160019
D4:22:CD:00:05:5E,-142.52757263183594,-47.12299728393555,-44.44155502319336,2.2193031311035156,-0.68695068359375,-4.155238151550293,1475.276733160019
D4:22:CD:00:05:5D,179.34109497070312,-68.11211395263672,-104.28742218017578,0.9213402271270752,0.14364328980445862,0.047275543212890625,1475.3369607925415
D4:22:CD:00:05:6B,-9.412424087524414,23.74360466003418,-66.4566650390625,-3.9582338333129883,-4.148921012878418,-6.177698135375977,1475.3369607925415
D4:22:CD:00:49:AA,144.4442596435547,-73.369140625,148.39935302734375,-0.17593932151794434,1.3314390182495117,-1.9646821022033691,1475.3369607925415
D4:22:CD:00:05:6E,102.78302001953125,-87.38641357421875,54.55908203125,3.25346040725708,-1.9086315631866455,5.699557304382324,1475.3369607925415
D4:22:CD:00:05:5E,-133.58639526367188,-49.456974029541016,-56.13597106933594,0.8463106155395508,-2.4704208374023438,-7.464179039001465,1475.3369607925415
D4:22:CD:00:05:5D,-179.86485290527344,-71.13178253173828,-104.60094451904297,-0.6124621629714966,0.27382928133010864,-0.013399124145507812,1475.3666379451752
D4:22:CD:00:05:6B,-4.011991500854492,30.254846572875977,-62.72671127319336,-1.4083561897277832,2.4655632972717285,-8.513853073120117,1475.3666379451752
D4:22:CD:00:49:AA,149.36172485351562,-73.62520599365234,145.4371337890625,0.8516141176223755,1.424964427947998,-3.5839319229125977,1475.3666379451752
D4:22:CD:00:05:6E,-76.29927825927734,-80.26205444335938,-120.07553100585938,-0.17496231198310852,-3.3318586349487305,6.02491569519043,1475.3666379451752
D4:22:CD:00:05:5E,-120.91017150878906,-53.48604965209961,-70.8112564086914,-2.6952428817749023,-3.5679078102111816,-5.647405624389648,1475.3666379451752
D4:22:CD:00:05:5D,-179.25360107421875,-73.78751373291016,-105.16702270507812,-0.38806629180908203,-0.7387858629226685,-0.5718374252319336,1475.3966462612152
D4:22:CD:00:05:6B,-8.689970970153809,33.67927551269531,-62.88691329956055,-1.2702991962432861,0.280678927898407,-8.370279312133789,1475.3966462612152
D4:22:CD:00:49:AA,152.21485900878906,-73.61666870117188,143.52479553222656,0.38077443838119507,1.151087999343872,-3.209606170654297,1475.3966462612152
D4:22:CD:00:05:6E,-66.15655517578125,-69.0802993774414,-119.68731689453125,-3.5204386711120605,-6.352679252624512,2.079836845397949,1475.3966462612152
D4:22:CD:00:05:5E,-105.37174987792969,-57.52157974243164,-89.28888702392578,-8.29702377319336,-6.0804853439331055,-6.797737121582031,1475.3966462612152
D4:22:CD:00:05:5D,-178.8778839111328,-75.74588012695312,-105.48100280761719,-0.05895042419433594,-1.3962509632110596,-0.7661170959472656,1475.426192522049
D4:22:CD:00:05:6B,-12.951597213745117,35.150508880615234,-68.91807556152344,-1.7794904708862305,-3.329822063446045,-5.858041763305664,1475.426192522049
D4:22:CD:00:49:AA,152.28636169433594,-73.2365951538086,143.30255126953125,-0.2717360854148865,0.9448220729827881,-2.3684511184692383,1475.426192522049
D4:22:CD:00:05:6E,-54.420379638671875,-60.625587463378906,-117.97103881835938,-3.6601595878601074,-8.71794319152832,-0.851008415222168,1475.426192522049
D4:22:CD:00:05:5E,-93.55699157714844,-59.81245803833008,-108.79389190673828,-15.70709228515625,-6.670965194702148,-4.301155090332031,1475.426192522049
D4:22:CD:00:05:5D,179.65122985839844,-76.64311981201172,-104.26862335205078,0.43448078632354736,-2.0944061279296875,-0.8598012924194336,1475.4567911624908
D4:22:CD:00:05:6B,-12.151894569396973,35.707305908203125,-80.70093536376953,-1.7187201976776123,0.16963821649551392,-6.722153663635254,1475.4567911624908
D4:22:CD:00:49:AA,149.37933349609375,-72.8052749633789,144.81822204589844,-0.3794052004814148,-0.2163296937942505,-2.538219451904297,1475.4567911624908
D4:22:CD:00:05:6E,-41.46245193481445,-54.58656311035156,-117.22685241699219,-0.6267192363739014,-12.564714431762695,-4.171292304992676,1475.4567911624908
D4:22:CD:00:05:5E,-90.10569763183594,-60.270599365234375,-123.06759643554688,-23.546741485595703,-3.512502670288086,-5.207363128662109,1475.4567911624908
D4:22:CD:00:05:5D,175.5966033935547,-76.34851837158203,-100.93682098388672,-0.526115894317627,-1.249053955078125,-0.7286863327026367,1475.486317396164
D4:22:CD:00:05:6B,-9.51644229888916,34.59707260131836,-97.75664520263672,1.1680326461791992,0.3418657183647156,-9.657672882080078,1475.486317396164
D4:22:CD:00:49:AA,145.02767944335938,-72.86499786376953,146.68214416503906,-1.226212501525879,-1.3995065689086914,-3.141526222229004,1475.486317396164
D4:22:CD:00:05:6E,-33.05464553833008,-49.71138000488281,-116.84325408935547,0.4760528802871704,-11.828176498413086,-7.176166534423828,1475.486317396164
D4:22:CD:00:05:5E,-93.99288177490234,-59.716434478759766,-127.0987319946289,-23.22321319580078,7.310677528381348,-10.067411422729492,1475.486317396164
