Device,EulerX,EulerY,EulerZ,FreeAccX,FreeAccY,FreeAccZ,Timestamp
D4:22:CD:00:05:5D,157.7517547607422,-64.84244537353516,-76.8795166015625,-2.35197114944458,3.0063557624816895,4.912117958068848,1568.9907689094543
D4:22:CD:00:05:6B,-55.47869873046875,28.542287826538086,-91.37401580810547,-4.059453010559082,-5.816457748413086,0.12589645385742188,1568.9907689094543
D4:22:CD:00:49:AA,135.93756103515625,-75.18419647216797,151.7632598876953,-10.449617385864258,-1.6904399394989014,6.757404327392578,1568.9907689094543
D4:22:CD:00:05:6E,-76.64991760253906,-64.12871551513672,-85.98705291748047,6.683602333068848,-5.270153999328613,1.5409355163574219,1568.9907689094543
D4:22:CD:00:05:5E,-122.01846313476562,-39.99894714355469,-154.0311737060547,-6.615050315856934,-0.2878956198692322,0.1806049346923828,1568.9907689094543
D4:22:CD:00:05:5D,153.39852905273438,-64.85783386230469,-73.77455139160156,0.1310860812664032,2.345384120941162,3.164888381958008,1569.0027928352356
D4:22:CD:00:05:6B,-28.468366622924805,25.000091552734375,-77.40897369384766,-7.087207794189453,-4.999119758605957,-9.440807342529297,1569.0027928352356
D4:22:CD:00:49:AA,137.35122680664062,-73.27615356445312,148.5816650390625,2.0572619438171387,0.1555062234401703,7.407724380493164,1569.0027928352356
D4:22:CD:00:05:6E,-71.35702514648438,-66.95182037353516,-82.81056213378906,8.0904541015625,-10.15866470336914,1.8478374481201172,1569.0027928352356
D4:22:CD:00:05:5E,-125.00806427001953,-41.584659576416016,-150.67849731445312,-0.9473938941955566,2.867772102355957,1.224726676940918,1569.0027928352356
D4:22:CD:00:05:6B,-20.731204986572266,14.201971054077148,-65.3985595703125,-8.048223495483398,11.984724044799805,-7.415414810180664,1569.0092928409576
D4:22:CD:00:49:AA,141.9224395751953,-72.4229507446289,144.74290466308594,2.3199462890625,-0.04285525530576706,3.0935049057006836,1569.0092928409576
D4:22:CD:00:05:6E,-70.92802429199219,-70.99375915527344,-80.41673278808594,6.540069580078125,-6.977740287780762,4.4878034591674805,1569.0092928409576
D4:22:CD:00:05:5E,-125.99270629882812,-44.85049057006836,-149.61685180664062,-10.142282485961914,-0.6950899362564087,-1.856064796447754,1569.0092928409576
D4:22:CD:00:05:5D,-115.41984558105469,-78.22393035888672,-157.781494140625,2.1130990982055664,-2.6547608375549316,-1.226454734802246,1569.015370130539
D4:22:CD:00:05:6B,-16.003511428833008,-3.8801958560943604,-58.472347259521484,-12.630578994750977,10.658048629760742,-16.008403778076172,1569.015370130539
D4:22:CD:00:49:AA,144.1055908203125,-73.33594512939453,144.5143585205078,3.4466652870178223,4.72528076171875,0.9540166854858398,1569.015370130539
D4:22:CD:00:05:6E,-78.20486450195312,-75.95635986328125,-76.89288330078125,1.9785852432250977,1.928093671798706,-0.9761276245117188,1569.015370130539
D4:22:CD:00:05:5E,-126.4186782836914,-47.92403030395508,-149.93910217285156,-9.328191757202148,1.2752792835235596,-4.640000343322754,1569.015370130539
D4:22:CD:00:05:5D,-177.6529541015625,-59.325931549072266,-90.2940673828125,-0.23826512694358826,3.164384365081787,0.8317947387695312,1569.0198953151703
D4:22:CD:00:05:6B,-53.60292434692383,14.302595138549805,-70.24605560302734,6.4435014724731445,-5.659701347351074,31.51987075805664,1569.0198953151703
D4:22:CD:00:49:AA,157.98843383789062,-64.90894317626953,124.5350570678711,-0.572409987449646,-0.30776768922805786,9.67027473449707,1569.0198953151703
D4:22:CD:00:05:5D,-179.48435974121094,-56.44373321533203,-87.4292984008789,-0.07502725720405579,2.0958523750305176,1.0363636016845703,1569.0561892986298
D4:22:CD:00:05:6B,-36.47755432128906,28.602333068847656,-62.13652801513672,8.302223205566406,-10.63113021850586,22.625503540039062,1569.0561892986298
D4:22:CD:00:49:AA,160.9883575439453,-66.98643493652344,122.35917663574219,1.3864574432373047,1.7043111324310303,4.507681846618652,1569.0561892986298
D4:22:CD:00:05:6E,95.16117858886719,-68.49386596679688,41.43388748168945,-3.5305166244506836,-0.9150736331939697,16.289676666259766,1569.0561892986298
D4:22:CD:00:05:5E,170.88662719726562,-55.485748291015625,-29.469728469848633,3.443082332611084,5.0342254638671875,14.098714828491211,1569.0561892986298
D4:22:CD:00:05:5D,179.55184936523438,-55.01137161254883,-85.03201293945312,-0.40837109088897705,1.0432045459747314,1.1681365966796875,1569.0867137908936
D4:22:CD:00:05:6B,-10.044093132019043,36.28646469116211,-45.0948486328125,3.337825298309326,-11.521932601928711,8.834783554077148,1569.0867137908936
D4:22:CD:00:49:AA,159.28013610839844,-69.67439270019531,124.22097778320312,0.9735441207885742,2.310718059539795,2.933140754699707,1569.0867137908936
D4:22:CD:00:05:6E,97.53118133544922,-60.42695236206055,39.276432037353516,-1.4659276008605957,0.19962120056152344,14.340106964111328,1569.0867137908936
D4:22:CD:00:05:5E,-174.76617431640625,-51.57389450073242,-41.52841567993164,0.8725850582122803,7.168002128601074,9.688268661499023,1569.0867137908936
D4:22:CD:00:05:5D,179.1165008544922,-54.727622985839844,-82.88593292236328,-0.24442505836486816,1.8839941024780273,0.5848302841186523,1569.116640329361
D4:22:CD:00:05:6B,14.99433708190918,36.80280303955078,-26.197668075561523,-4.178987503051758,-8.69923210144043,1.6980819702148438,1569.116640329361
D4:22:CD:00:49:AA,159.30389404296875,-72.29023742675781,124.3923110961914,-3.958146572113037,1.1836493015289307,3.5378541946411133,1569.116640329361
D4:22:CD:00:05:6E,95.51546478271484,-52.1484489440918,42.834266662597656,-2.3200531005859375,-1.7027368545532227,5.279827117919922,1569.116640329361
D4:22:CD:00:05:5E,-159.3412628173828,-38.53107833862305,-54.83586883544922,-3.094043254852295,9.316774368286133,0.03463935852050781,1569.116640329361
D4:22:CD:00:05:5D,178.32504272460938,-55.18421173095703,-80.96243286132812,-2.3370795249938965,0.738311767578125,0.7288541793823242,1569.1461222171783
D4:22:CD:00:05:6B,32.25571060180664,34.64405059814453,-12.80309772491455,-7.441790580749512,-10.506645202636719,-0.5558443069458008,1569.1461222171783
D4:22:CD:00:49:AA,166.1208953857422,-75.48927307128906,119.40670776367188,-4.963919639587402,3.4524130821228027,5.342035293579102,1569.1461222171783
D4:22:CD:00:05:6E,90.99647521972656,-47.640037536621094,50.16423797607422,-2.4155516624450684,-4.945498466491699,0.0873422622680664,1569.1461222171783
D4:22:CD:00:05:5E,-149.7820281982422,-27.043048858642578,-61.69551467895508,-2.2944283485412598,14.283973693847656,-7.787473678588867,1569.1461222171783
D4:22:CD:00:05:5D,177.75584411621094,-56.06352996826172,-80.29481506347656,-3.524968147277832,-0.13207334280014038,1.7306947708129883,1569.176560640335
D4:22:CD:00:05:6B,42.87843704223633,33.33570861816406,-5.686284065246582,-6.884245872497559,-9.318256378173828,-0.6204833984375,1569.176560640335
D4:22:CD:00:49:AA,-178.65444946289062,-79.40199279785156,106.90726470947266,-2.3641481399536133,3.3614487648010254,8.046537399291992,1569.176560640335
D4:22:CD:00:05:6E,86.13544464111328,-45.94028854370117,61.048728942871094,-0.8336763381958008,-3.9953360557556152,-4.598727226257324,1569.176560640335
D4:22:CD:00:05:5E,-137.4749298095703,-18.914552688598633,-69.26739501953125,-0.2644810676574707,13.559469223022461,-11.57377815246582,1569.176560640335
D4:22:CD:00:05:5D,176.9144287109375,-57.8812370300293,-80.3965072631836,0.5076566934585571,1.2006888389587402,4.19378662109375,1569.2069885730743
D4:22:CD:00:05:6B,47.93590545654297,34.28114318847656,-2.9838545322418213,-2.3451461791992188,-6.832301139831543,-2.6129331588745117,1569.2069885730743
D4:22:CD:00:49:AA,-148.74710083007812,-82.25425720214844,79.88409423828125,1.6349852085113525,2.560305595397949,5.913865089416504,1569.2069885730743
D4:22:CD:00:05:6E,83.7300033569336,-47.605228424072266,74.56483459472656,-5.364138603210449,-5.33964729309082,-4.6624755859375,1569.2069885730743
D4:22:CD:00:05:5E,-127.06448364257812,-12.91804027557373,-77.51082611083984,2.4641170501708984,11.91743278503418,-13.090301513671875,1569.2069885730743
D4:22:CD:00:05:5D,175.1990203857422,-60.85941696166992,-79.47824096679688,5.608096122741699,-2.6341991424560547,10.577878952026367,1569.2365157604218
D4:22:CD:00:05:6B,51.64773178100586,38.101768493652344,-3.5672953128814697,-0.7166619300842285,-2.4175148010253906,-5.475503921508789,1569.2365157604218
D4:22:CD:00:49:AA,-120.11366271972656,-82.99274444580078,53.01315689086914,3.151289939880371,2.029294967651367,-3.607940673828125,1569.2365157604218
D4:22:CD:00:05:6E,83.3583984375,-50.94704818725586,87.2266845703125,-4.041084289550781,-7.3753509521484375,-4.379717826843262,1569.2365157604218
D4:22:CD:00:05:5E,-120.14883422851562,-7.987748146057129,-85.80052947998047,2.5675740242004395,9.761621475219727,-12.981447219848633,1569.2365157604218
D4:22:CD:00:05:5D,171.98956298828125,-65.47869873046875,-76.82516479492188,1.2901275157928467,-7.854108810424805,1.7681398391723633,1569.2665152549744
D4:22:CD:00:05:6B,53.6497917175293,44.2739143371582,-8.033914566040039,0.7810845375061035,4.562709808349609,-4.371323585510254,1569.2665152549744
D4:22:CD:00:49:AA,-114.61943817138672,-83.38019561767578,47.64350891113281,2.0646395683288574,0.45128053426742554,-6.375737190246582,1569.2665152549744
D4:22:CD:00:05:6E,84.98169708251953,-55.38724136352539,99.10145568847656,-1.1675114631652832,-4.656713485717773,-6.861774444580078,1569.2665152549744
D4:22:CD:00:05:5E,-118.8528060913086,-4.038206577301025,-93.97178649902344,2.460103988647461,4.275656700134277,-13.539052963256836,1569.2665152549744
D4:22:CD:00:05:5D,165.4971160888672,-68.12830352783203,-73.62086486816406,-2.331705093383789,0.3423234820365906,-4.584334373474121,1569.3261635303497
D4:22:CD:00:05:6B,48.88642501831055,51.570556640625,-19.38377571105957,5.183989524841309,10.325355529785156,-1.3665599822998047,1569.3261635303497
D4:22:CD:00:49:AA,-115.58619689941406,-84.0658187866211,46.773834228515625,-0.5226172208786011,-0.5245009660720825,-8.301170349121094,1569.3261635303497
D4:22:CD:00:05:6E,90.5663833618164,-61.147315979003906,110.178466796875,-1.6438326835632324,-3.18271541595459,-7.445133209228516,1569.3261635303497
D4:22:CD:00:05:5E,-120.07688903808594,-2.128730535507202,-101.76529693603516,-0.38642019033432007,0.8720682859420776,-9.188714981079102,1569.3261635303497
D4:22:CD:00:05:5D,171.35870361328125,-68.04324340820312,-70.2393798828125,7.240381240844727,-3.836057186126709,-13.481256484985352,1569.35622549057
D4:22:CD:00:05:6B,29.981552124023438,56.217899322509766,-41.281524658203125,6.910514831542969,7.552507400512695,-7.262007713317871,1569.35622549057
D4:22:CD:00:49:AA,-114.4195556640625,-84.26311492919922,43.98841857910156,-0.8859944343566895,0.6891986131668091,-9.995969772338867,1569.35622549057
D4:22:CD:00:05:6E,100.6258544921875,-67.77896881103516,118.12403869628906,0.1016182005405426,-4.193830490112305,-7.165314674377441,1569.35622549057
D4:22:CD:00:05:5E,-122.25118255615234,-3.571073532104492,-109.2938232421875,1.661062240600586,-2.0017123222351074,-11.736722946166992,1569.35622549057
D4:22:CD:00:05:5D,175.3785858154297,-71.90679931640625,-71.46558380126953,-18.349533081054688,10.268787384033203,-7.689140319824219,1569.3861556053162
D4:22:CD:00:05:6B,-0.4960484206676483,53.4907112121582,-72.18416595458984,4.021868705749512,-1.9706127643585205,-18.87420654296875,1569.3861556053162
D4:22:CD:00:49:AA,-102.16393280029297,-85.21312713623047,31.688161849975586,-0.9967254400253296,0.371395468711853,-7.88912296295166,1569.3861556053162
D4:22:CD:00:05:6E,114.90042114257812,-74.38835906982422,118.59004974365234,5.236845016479492,-5.847336769104004,-7.688868522644043,1569.3861556053162
D4:22:CD:00:05:5E,-122.98541259765625,-8.337286949157715,-116.75833892822266,-6.176117897033691,-3.5165953636169434,-10.289936065673828,1569.3861556053162
D4:22:CD:00:05:5D,171.72642517089844,-71.94232940673828,-70.45542907714844,-5.724820137023926,7.286019325256348,-3.6829752922058105,1569.4158380031586
D4:22:CD:00:05:6B,-25.06229591369629,41.620357513427734,-97.33170318603516,-8.775733947753906,-23.457866668701172,-30.49102020263672,1569.4158380031586
D4:22:CD:00:49:AA,-83.65310668945312,-85.9772720336914,13.511283874511719,-0.5128427743911743,0.03934967517852783,-5.38664436340332,1569.4158380031586
D4:22:CD:00:05:6E,133.4759979248047,-80.58708953857422,103.92839050292969,9.878747940063477,-6.190034866333008,-6.793735504150391,1569.4158380031586
D4:22:CD:00:05:5E,-128.1475067138672,-15.265742301940918,-122.84629821777344,-18.544334411621094,-6.8637895584106445,-5.057974815368652,1569.4158380031586
D4:22:CD:00:05:5D,171.09490966796875,-71.07414245605469,-65.77125549316406,0.9442600011825562,-1.43216872215271,0.09558486938476562,1569.446392774582
D4:22:CD:00:05:6B,-17.612545013427734,33.70951461791992,-114.40526580810547,-25.256855010986328,6.025596618652344,-12.586771011352539,1569.446392774582
D4:22:CD:00:49:AA,-74.31729888916016,-86.94898986816406,4.470165252685547,0.4378812909126282,-0.5391733646392822,-0.5134210586547852,1569.446392774582
D4:22:CD:00:05:6E,168.2528839111328,-84.56127166748047,59.06031036376953,8.27973747253418,-8.368606567382812,-2.6656670570373535,1569.446392774582
D4:22:CD:00:05:5E,-138.43704223632812,-21.959047317504883,-125.3332748413086,-30.831317901611328,-6.629939079284668,5.382462501525879,1569.446392774582
D4:22:CD:00:05:5D,168.57269287109375,-70.21949005126953,-60.386619567871094,2.465963363647461,-0.4703800678253174,0.33670997619628906,1569.4764943122864
D4:22:CD:00:05:6B,-10.424880981445312,33.58757400512695,-112.07498931884766,7.001659393310547,-3.5216927528381348,-12.249227523803711,1569.4764943122864
D4:22:CD:00:49:AA,-47.2065315246582,-88.36290740966797,-24.31773567199707,-1.4926190376281738,-1.9556150436401367,-0.8231449127197266,1569.4764943122864
D4:22:CD:00:05:6E,-155.2102813720703,-84.2269515991211,4.65304708480835,-0.5285826921463013,-5.62831974029541,1.0838661193847656,1569.4764943122864
D4:22:CD:00:05:5E,-146.3408966064453,-23.91099739074707,-122.7567367553711,-18.010311126708984,-4.776567459106445,16.167144775390625,1569.4764943122864
D4:22:CD:00:05:5D,164.16250610351562,-69.5629653930664,-54.52302551269531,3.4911556243896484,-2.1148619651794434,5.635843276977539,1569.5059795379639
D4:22:CD:00:05:6B,-12.884810447692871,34.526126861572266,-97.87125396728516,-12.371650695800781,-0.2370753288269043,-9.14381217956543,1569.5059795379639
D4:22:CD:00:49:AA,-29.981386184692383,-88.94279479980469,-44.597843170166016,-5.830904006958008,-4.711368560791016,0.09072303771972656,1569.5059795379639
D4:22:CD:00:05:6E,-149.80650329589844,-81.91847229003906,-14.529973030090332,2.3230080604553223,0.5848888158798218,8.242904663085938,1569.5059795379639
D4:22:CD:00:05:5E,-149.16653442382812,-25.422197341918945,-119.07904815673828,-6.128408432006836,-9.513874053955078,-14.793603897094727,1569.5059795379639
D4:22:CD:00:05:5D,157.71990966796875,-67.92385864257812,-48.977294921875,3.096640110015869,-6.073308944702148,10.096569061279297,1569.5368020534515
D4:22:CD:00:05:6B,-5.795526504516602,30.16046905517578,-79.66940307617188,-8.0589599609375,-2.8161072731018066,-10.093437194824219,1569.5368020534515
D4:22:CD:00:49:AA,-144.73187255859375,-88.64059448242188,67.55076599121094,1.5084340572357178,-4.804356575012207,7.050209045410156,1569.5368020534515
D4:22:CD:00:05:6E,-158.3321533203125,-80.64088439941406,-10.758508682250977,10.68714714050293,-0.08270235359668732,7.184299468994141,1569.5368020534515
D4:22:CD:00:05:5E,-151.36392211914062,-25.86587142944336,-116.27132415771484,-3.0134544372558594,-12.907320022583008,-1.7626333236694336,1569.5368020534515
D4:22:CD:00:05:5D,152.49754333496094,-65.60880279541016,-47.889747619628906,3.7414422035217285,-6.210026741027832,12.226070404052734,1569.5657970905304
D4:22:CD:00:05:6B,0.597137987613678,19.5400447845459,-65.52123260498047,-8.191160202026367,-1.2543306350708008,-5.395957946777344,1569.5657970905304
D4:22:CD:00:49:AA,-163.9938507080078,-86.91523742675781,83.75933074951172,7.336672782897949,-2.8068647384643555,0.9812707901000977,1569.5657970905304
D4:22:CD:00:05:6E,174.19960021972656,-79.61026000976562,15.267315864562988,7.57865047454834,-2.8476815223693848,5.024486541748047,1569.5657970905304
D4:22:CD:00:05:5E,-157.11119079589844,-24.631534576416016,-114.03430938720703,-7.876603126525879,-13.868579864501953,-2.186102867126465,1569.5657970905304
D4:22:CD:00:05:5D,147.50320434570312,-64.3833236694336,-50.032588958740234,7.626852035522461,-1.098834753036499,2.9063949584960938,1569.6261990070343
D4:22:CD:00:05:6B,6.386717796325684,7.282230854034424,-54.57861328125,-4.397210121154785,0.3617115020751953,-4.478952407836914,1569.6261990070343
D4:22:CD:00:49:AA,-164.5808868408203,-83.77824401855469,79.05435943603516,5.723355293273926,-0.444091260433197,-1.6277399063110352,1569.6261990070343
D4:22:CD:00:05:6E,147.3661346435547,-77.06954956054688,31.866329193115234,-0.25967586040496826,3.3420352935791016,1.9025545120239258,1569.6261990070343
D4:22:CD:00:05:5E,-162.23727416992188,-21.98399543762207,-112.19535064697266,-4.547922134399414,-9.556697845458984,-4.503506660461426,1569.6261990070343
D4:22:CD:00:05:5D,146.8406524658203,-63.80873489379883,-55.301979064941406,6.393462181091309,23.04983139038086,3.9287109375,1569.656393289566
D4:22:CD:00:05:6B,14.92545223236084,-4.07295036315918,-41.6077880859375,-4.8971405029296875,-9.356557846069336,-5.981451034545898,1569.656393289566
D4:22:CD:00:49:AA,-156.1392059326172,-81.02256774902344,71.01531219482422,-2.3534369468688965,-3.2771167755126953,2.0913257598876953,1569.656393289566
D4:22:CD:00:05:6E,132.27418518066406,-75.67323303222656,29.426206588745117,-0.11348642408847809,16.131694793701172,-8.061456680297852,1569.656393289566
D4:22:CD:00:05:5E,-163.27037048339844,-19.831270217895508,-110.66033935546875,-4.30879020690918,-2.0340099334716797,-2.090033531188965,1569.656393289566
D4:22:CD:00:05:5D,152.18609619140625,-57.995975494384766,-63.95951843261719,3.9004831314086914,22.46581268310547,4.301778793334961,1569.6864461898804
D4:22:CD:00:05:6B,21.860219955444336,-13.845756530761719,-24.23322868347168,16.091896057128906,13.182395935058594,2.0575122833251953,1569.6864461898804
D4:22:CD:00:49:AA,-153.31637573242188,-80.2490005493164,71.9690933227539,0.03602469712495804,3.380342483520508,-5.255877494812012,1569.6864461898804
D4:22:CD:00:05:6E,137.9761199951172,-75.80091094970703,19.326967239379883,-2.3659839630126953,5.793231964111328,-0.6204853057861328,1569.6864461898804
D4:22:CD:00:05:5E,-163.3229522705078,-19.155357360839844,-109.1710433959961,-3.2439517974853516,-8.3717041015625,-2.604292392730713,1569.6864461898804
D4:22:CD:00:05:5D,157.13319396972656,-48.316558837890625,-73.39818572998047,1.9818592071533203,12.579936981201172,-0.1486806869506836,1569.7162120342255
D4:22:CD:00:05:6B,3.8907339572906494,-19.511457443237305,-5.922129154205322,-0.4744081497192383,35.6231689453125,-7.374505996704102,1569.7162120342255
D4:22:CD:00:49:AA,-154.00950622558594,-78.685302734375,72.41434478759766,4.071998596191406,4.370893478393555,-2.3212685585021973,1569.7162120342255
D4:22:CD:00:05:6E,148.70289611816406,-77.44104766845703,7.591261863708496,-8.997602462768555,-4.3678483963012695,0.7265090942382812,1569.7162120342255
D4:22:CD:00:05:5E,-163.69253540039062,-18.169198989868164,-107.90853118896484,-3.8954954147338867,-6.208685874938965,-2.5415143966674805,1569.7162120342255
D4:22:CD:00:05:5D,158.9459686279297,-36.82493591308594,-81.38391876220703,-1.140578269958496,4.276555061340332,-6.648560523986816,1569.7464382648468
D4:22:CD:00:05:6B,-21.93950080871582,-20.912649154663086,7.291028022766113,-4.603907585144043,-8.536556243896484,-1.5362606048583984,1569.7464382648468
D4:22:CD:00:49:AA,-150.80560302734375,-77.37053680419922,69.32815551757812,2.2756214141845703,-1.9918079376220703,1.378066062927246,1569.7464382648468
D4:22:CD:00:05:6E,158.54000854492188,-77.9840087890625,-3.638920783996582,-5.915244102478027,-0.20557814836502075,-0.9730672836303711,1569.7464382648468
D4:22:CD:00:05:5E,-164.13070678710938,-17.181413650512695,-106.7798080444336,-3.340475559234619,-6.638127326965332,-1.8192858695983887,1569.7464382648468
D4:22:CD:00:05:5D,161.1148681640625,-24.705886840820312,-86.7878646850586,-2.6622061729431152,0.22457009553909302,-12.277538299560547,1569.7766518592834
D4:22:CD:00:05:6B,-27.201847076416016,-19.652570724487305,13.04075813293457,-5.4433698654174805,3.2244391441345215,3.4939165115356445,1569.7766518592834
D4:22:CD:00:49:AA,-150.47007751464844,-76.42186737060547,70.75353240966797,2.768890380859375,1.1161127090454102,1.8401079177856445,1569.7766518592834
D4:22:CD:00:05:6E,166.9171600341797,-77.92578125,-11.40428352355957,-1.402937650680542,-0.08806030452251434,1.576101303100586,1569.7766518592834
D4:22:CD:00:05:5E,-164.34005737304688,-16.45859718322754,-105.98112487792969,-5.19406795501709,-5.619335174560547,-3.3394775390625,1569.7766518592834
D4:22:CD:00:05:5D,166.93185424804688,-13.008747100830078,-90.1917953491211,-3.6870532035827637,-0.9059134721755981,-13.512491226196289,1569.8064954280853
D4:22:CD:00:05:6B,-29.114770889282227,-19.316730499267578,13.19711685180664,-9.146574020385742,10.441736221313477,-6.388552665710449,1569.8064954280853
D4:22:CD:00:49:AA,-149.68341064453125,-75.5318374633789,71.23686218261719,3.5073742866516113,3.5545473098754883,2.975539207458496,1569.8064954280853
D4:22:CD:00:05:6E,175.90684509277344,-78.21855926513672,-15.406537055969238,0.5776665210723877,-0.01790841668844223,3.6143627166748047,1569.8064954280853
D4:22:CD:00:05:5E,-165.05801391601562,-15.710660934448242,-105.42340087890625,-4.6454973220825195,-6.795588493347168,-3.422691822052002,1569.8064954280853
D4:22:CD:00:05:5D,172.6015167236328,-4.742733001708984,-93.37918853759766,-6.286986351013184,1.0255153179168701,-13.02353286743164,1569.837209701538
D4:22:CD:00:05:6B,-37.027587890625,-22.551774978637695,12.312605857849121,-7.615137100219727,1.332451581954956,-2.9358205795288086,1569.837209701538
D4:22:CD:00:49:AA,-149.31390380859375,-75.69499969482422,71.22061157226562,4.725992202758789,2.8947858810424805,2.0473527908325195,1569.837209701538
D4:22:CD:00:05:6E,-176.07315063476562,-78.69364166259766,-13.309391975402832,0.6661065816879272,-1.1480567455291748,1.5833520889282227,1569.837209701538
D4:22:CD:00:05:5E,-165.3872528076172,-14.939654350280762,-104.98873901367188,-5.130692481994629,-6.272878646850586,-3.9438743591308594,1569.837209701538
D4:22:CD:00:05:5D,173.68435668945312,-1.5835537910461426,-97.39041137695312,-5.40262508392334,-0.4807743430137634,-15.593271255493164,1569.866494178772
D4:22:CD:00:05:6B,-43.759620666503906,-31.028589248657227,11.274767875671387,-0.8976311683654785,-2.1086349487304688,-2.33482027053833,1569.866494178772
D4:22:CD:00:49:AA,-151.31336975097656,-75.95488739013672,73.0457763671875,5.210977554321289,1.0928940773010254,-1.1485624313354492,1569.866494178772
D4:22:CD:00:05:6E,-172.42532348632812,-78.82714080810547,-5.025639533996582,2.855525493621826,-3.670940399169922,0.24201679229736328,1569.866494178772
D4:22:CD:00:05:5E,-165.05233764648438,-13.720440864562988,-105.08381652832031,-5.310090065002441,-5.582780838012695,-5.184603691101074,1569.866494178772
D4:22:CD:00:05:5D,171.96986389160156,-4.6871113777160645,-101.52330017089844,-5.615091323852539,-6.667840003967285,-11.316347122192383,1569.9259150028229
D4:22:CD:00:05:6B,-48.49696350097656,-48.72116470336914,10.171719551086426,13.982345581054688,-6.279903411865234,4.032273292541504,1569.9259150028229
D4:22:CD:00:49:AA,-153.43133544921875,-76.4094467163086,75.11773681640625,1.341989278793335,0.5674818754196167,-4.065057754516602,1569.9259150028229
D4:22:CD:00:05:6E,-174.0501708984375,-79.29207611083984,6.957080841064453,6.493084907531738,-6.255348205566406,-0.8931655883789062,1569.9259150028229
D4:22:CD:00:05:5E,-164.75909423828125,-12.010001182556152,-105.65035247802734,-3.4766359329223633,-5.768138885498047,-2.5812201499938965,1569.9259150028229
D4:22:CD:00:05:5D,169.74847412109375,-12.728949546813965,-104.28754425048828,-8.37868881225586,-16.495136260986328,-6.974972724914551,1569.9559814929962
D4:22:CD:00:05:6B,-39.511348724365234,-70.5477523803711,0.4251195192337036,-0.7458655834197998,7.009398460388184,77.50662231445312,1569.9559814929962
D4:22:CD:00:49:AA,-158.5330047607422,-76.84430694580078,79.45941925048828,1.851219892501831,0.024331729859113693,-1.2554521560668945,1569.9559814929962
D4:22:CD:00:05:6E,175.48277282714844,-81.35293579101562,23.52211570739746,6.771633148193359,-3.6520118713378906,-2.5355358123779297,1569.9559814929962
D4:22:CD:00:05:5E,-165.07986450195312,-10.192814826965332,-106.4571762084961,-4.210942268371582,-5.994502067565918,-3.3740735054016113,1569.9559814929962
D4:22:CD:00:05:5D,172.8842315673828,-20.853919982910156,-104.46815490722656,-4.775270462036133,-7.378384590148926,48.23491668701172,1569.9859988689423
D4:22:CD:00:05:6B,-4.422469615936279,-72.05489349365234,-18.71133804321289,4.387814521789551,-5.132709503173828,7.96055793762207,1569.9859988689423
D4:22:CD:00:49:AA,-161.2396697998047,-77.13567352294922,80.96951293945312,2.2330522537231445,-2.1057662963867188,-0.4315958023071289,1569.9859988689423
D4:22:CD:00:05:6E,137.51675415039062,-83.5304946899414,64.33284759521484,6.640981674194336,-1.8442301750183105,-1.9521145820617676,1569.9859988689423
D4:22:CD:00:05:5E,-165.77365112304688,-8.686908721923828,-107.07676696777344,-4.701272010803223,-6.745854377746582,-2.7798070907592773,1569.9859988689423
D4:22:CD:00:05:5D,176.79673767089844,-20.064640045166016,-100.13866424560547,-11.002050399780273,-21.13109588623047,14.055257797241211,1570.016765832901
D4:22:CD:00:05:6B,-5.55027961730957,-63.59494400024414,-2.3169050216674805,21.743797302246094,25.495220184326172,-1.739100456237793,1570.016765832901
D4:22:CD:00:49:AA,-161.9845428466797,-76.01287078857422,80.95899200439453,3.5159363746643066,-2.0960488319396973,2.9182634353637695,1570.016765832901
D4:22:CD:00:05:6E,92.21947479248047,-78.7609634399414,114.13008880615234,5.512416839599609,-0.4905253052711487,2.030057907104492,1570.016765832901
D4:22:CD:00:05:5E,-166.23670959472656,-8.127202987670898,-107.2061538696289,-4.235126495361328,-6.8279876708984375,-2.711866855621338,1570.016765832901
D4:22:CD:00:05:5D,175.79161071777344,-14.123364448547363,-95.92240142822266,-4.518362045288086,-18.518878936767578,19.60320281982422,1570.0464675426483
D4:22:CD:00:05:6B,-38.55039596557617,-50.5874137878418,15.303008079528809,18.408226013183594,-3.92708683013916,12.724946975708008,1570.0464675426483
D4:22:CD:00:49:AA,-165.9470672607422,-73.90547180175781,83.16292572021484,-0.5295799970626831,-1.8649446964263916,9.585189819335938,1570.0464675426483
D4:22:CD:00:05:6E,83.26242065429688,-67.58822631835938,127.10755157470703,11.111883163452148,-11.159805297851562,19.526771545410156,1570.0464675426483
D4:22:CD:00:05:5E,-166.68582153320312,-8.32473087310791,-106.83405303955078,-4.554091453552246,-6.551881790161133,-2.797138214111328,1570.0464675426483
D4:22:CD:00:05:5D,170.7515869140625,-5.484701156616211,-93.9510269165039,1.1588163375854492,-18.267871856689453,10.765439987182617,1570.0765845775604
D4:22:CD:00:05:6B,-46.337745666503906,-35.815792083740234,16.03271484375,13.26318359375,3.167358875274658,10.774066925048828,1570.0765845775604
D4:22:CD:00:49:AA,-165.79087829589844,-76.20282745361328,81.86991882324219,-1.3078176975250244,3.0283565521240234,5.653080940246582,1570.0765845775604
D4:22:CD:00:05:6E,78.7697982788086,-52.8509407043457,131.23440551757812,17.088462829589844,-0.5711404085159302,31.16503143310547,1570.0765845775604
D4:22:CD:00:05:5E,-167.04977416992188,-9.435697555541992,-106.34596252441406,-4.91043758392334,-6.475313186645508,-1.4984960556030273,1570.0765845775604
D4:22:CD:00:05:5D,169.36502075195312,2.507094383239746,-94.4779052734375,0.10244090855121613,-10.839239120483398,0.19840621948242188,1570.1060853004456
D4:22:CD:00:05:6B,-44.65503692626953,-24.305770874023438,10.849442481994629,12.022605895996094,2.3632006645202637,-1.853971004486084,1570.1060853004456
D4:22:CD:00:49:AA,-169.32321166992188,-77.3744888305664,85.55860900878906,6.1986846923828125,3.897989273071289,9.17481803894043,1570.1060853004456
D4:22:CD:00:05:6E,79.08968353271484,-33.28818130493164,131.97584533691406,6.908090591430664,6.377409934997559,20.797710418701172,1570.1060853004456
D4:22:CD:00:05:5E,-167.52024841308594,-11.956542015075684,-106.39363098144531,-6.160305976867676,-5.933352470397949,-0.7611026763916016,1570.1060853004456
D4:22:CD:00:05:5D,169.57620239257812,6.587244033813477,-96.41769409179688,-3.5034170150756836,-2.481398582458496,-7.692873001098633,1570.1361954212189
D4:22:CD:00:05:6B,-47.31808853149414,-17.969135284423828,5.917831897735596,5.157588005065918,-1.5962753295898438,-10.569080352783203,1570.1361954212189
D4:22:CD:00:49:AA,-177.93106079101562,-78.14715576171875,92.68011474609375,6.136553764343262,2.9374470710754395,7.97380256652832,1570.1361954212189
D4:22:CD:00:05:6E,85.50811004638672,-12.865836143493652,130.66358947753906,1.9087729454040527,12.850814819335938,9.165231704711914,1570.1361954212189
D4:22:CD:00:05:5E,-168.77806091308594,-16.277463912963867,-107.27344512939453,-6.493670463562012,-6.6452531814575195,-0.12516307830810547,1570.1361954212189
D4:22:CD:00:05:5D,168.25668334960938,5.138545036315918,-98.40866088867188,-6.128754615783691,2.818164348602295,-11.104583740234375,1570.1665856838226
D4:22:CD:00:05:6B,-56.153377532958984,-19.3562068939209,0.5473276376724243,-0.44016337394714355,-2.982426166534424,-6.481442451477051,1570.1665856838226
D4:22:CD:00:49:AA,169.78224182128906,-78.96121215820312,102.83087921142578,2.1417064666748047,1.1214971542358398,4.44742488861084,1570.1665856838226
D4:22:CD:00:05:6E,94.1047134399414,3.8151350021362305,131.39071655273438,1.0361509323120117,9.659097671508789,-2.0019121170043945,1570.1665856838226
D4:22:CD:00:05:5E,-170.04513549804688,-22.506511688232422,-108.4943618774414,-9.493396759033203,-12.725658416748047,-0.9184598922729492,1570.1665856838226
D4:22:CD:00:05:5D,162.666015625,-1.3241381645202637,-99.8946533203125,-8.136335372924805,1.7771265506744385,-16.056350708007812,1570.2260930538177
D4:22:CD:00:05:6B,-63.22287368774414,-27.579679489135742,-5.168580055236816,-1.292888879776001,0.95015549659729,-1.764878273010254,1570.2260930538177
D4:22:CD:00:49:AA,155.86044311523438,-79.03617858886719,114.75406646728516,-0.10518743097782135,-0.1384013295173645,-3.222299098968506,1570.2260930538177
D4:22:CD:00:05:6E,98.53624725341797,15.529169082641602,134.00775146484375,-3.8933210372924805,2.5680794715881348,2.329400062561035,1570.2260930538177
D4:22:CD:00:05:5E,-162.47982788085938,-31.941015243530273,-109.09497833251953,-8.132719039916992,-4.022176742553711,-0.9218339920043945,1570.2260930538177
D4:22:CD:00:05:5D,156.3920135498047,-11.175823211669922,-99.94859313964844,-5.832575798034668,-1.4589061737060547,-19.264427185058594,1570.2561252117157
D4:22:CD:00:05:6B,-65.12247467041016,-39.91869354248047,-11.41278076171875,0.30512672662734985,1.942206859588623,-4.208840370178223,1570.2561252117157
D4:22:CD:00:49:AA,146.67770385742188,-78.38297271728516,123.04615783691406,-1.5217342376708984,-0.22226661443710327,-9.92894172668457,1570.2561252117157
D4:22:CD:00:05:6E,93.63739013671875,23.57849884033203,136.5835418701172,-6.083873748779297,-3.079991340637207,-2.8602447509765625,1570.2561252117157
D4:22:CD:00:05:5E,-154.9486083984375,-35.564369201660156,-109.07976531982422,-0.16855624318122864,6.733956336975098,0.382659912109375,1570.2561252117157
D4:22:CD:00:05:5D,154.27178955078125,-22.72299575805664,-98.9393539428711,-3.975306987762451,-3.8461670875549316,-14.852100372314453,1570.2865009307861
D4:22:CD:00:05:6B,-62.028690338134766,-53.95237350463867,-19.194488525390625,-0.2837677001953125,-0.15750280022621155,-4.389474868774414,1570.2865009307861
D4:22:CD:00:49:AA,146.5968780517578,-77.74209594726562,123.81243896484375,-2.9690651893615723,-1.0598831176757812,-8.352764129638672,1570.2865009307861
D4:22:CD:00:05:6E,86.42806243896484,29.38013458251953,139.2113494873047,-1.876619577407837,-3.244762897491455,-10.89242172241211,1570.2865009307861
D4:22:CD:00:05:5E,-152.4828643798828,-34.518653869628906,-108.13126373291016,-4.3279314041137695,-0.8512512445449829,-10.548757553100586,1570.2865009307861
D4:22:CD:00:05:5D,152.71044921875,-36.02631759643555,-97.10437774658203,-3.361114978790283,-5.1433210372924805,-9.403661727905273,1570.3466925621033
D4:22:CD:00:05:6B,-51.128475189208984,-67.58037567138672,-33.203819274902344,0.4409436583518982,-0.20943927764892578,-3.782993793487549,1570.3466925621033
D4:22:CD:00:49:AA,142.04470825195312,-78.14229583740234,128.41505432128906,1.9441947937011719,0.48707151412963867,-8.598081588745117,1570.3466925621033
D4:22:CD:00:05:6E,83.95726013183594,33.97537612915039,143.54833984375,-2.4780545234680176,-2.509681224822998,-11.160097122192383,1570.3466925621033
D4:22:CD:00:05:5E,-157.039306640625,-33.52336883544922,-106.52033996582031,1.8235740661621094,-6.787138938903809,-13.519998550415039,1570.3466925621033
D4:22:CD:00:05:5D,149.78521728515625,-50.6484260559082,-93.45636749267578,-0.6817985773086548,-5.033975601196289,-4.283957481384277,1570.3536949157715
D4:22:CD:00:05:6B,-26.262771606445312,-77.75438690185547,-64.3797378540039,-3.631049633026123,0.9321408271789551,-2.3811588287353516,1570.3536949157715
D4:22:CD:00:49:AA,133.0807342529297,-78.59801483154297,136.355224609375,2.275646209716797,1.6291115283966064,-10.371095657348633,1570.3536949157715
D4:22:CD:00:05:6E,84.83484649658203,37.69705581665039,149.74839782714844,-3.185546398162842,-2.8543734550476074,-11.552200317382812,1570.3536949157715
D4:22:CD:00:05:5E,-154.33609008789062,-34.17361831665039,-107.45963287353516,-3.224149703979492,-1.6047403812408447,-0.10947036743164062,1570.3536949157715
D4:22:CD:00:05:5D,143.15806579589844,-66.02606964111328,-84.87389373779297,1.926741600036621,-1.9676909446716309,5.009063720703125,1570.3762047290802
D4:22:CD:00:05:6B,23.957202911376953,-79.89703369140625,-122.62429809570312,-3.370145320892334,2.1224489212036133,-3.368198871612549,1570.3762047290802
D4:22:CD:00:49:AA,129.0140838623047,-77.93421936035156,138.69786071777344,1.0560178756713867,-0.058580271899700165,-8.460968017578125,1570.3762047290802
D4:22:CD:00:05:6E,88.00897216796875,39.747806549072266,158.4486846923828,-3.618330955505371,-2.5246024131774902,-12.135164260864258,1570.3762047290802
D4:22:CD:00:05:5E,-155.8408966064453,-32.073726654052734,-108.03288269042969,-0.7341651916503906,-7.552070617675781,-9.02731704711914,1570.3762047290802
D4:22:CD:00:05:5D,113.96171569824219,-78.7958755493164,-48.590606689453125,11.282186508178711,3.5949440002441406,13.316692352294922,1570.4064569473267
D4:22:CD:00:05:6B,54.271331787109375,-74.72834014892578,-159.14419555664062,-5.726083755493164,5.964038848876953,-3.6480321884155273,1570.4064569473267
D4:22:CD:00:49:AA,129.42840576171875,-77.27753448486328,137.8433837890625,0.4339326024055481,-1.8448076248168945,-2.7160797119140625,1570.4064569473267
D4:22:CD:00:05:6E,91.6839599609375,38.867794036865234,169.98655700683594,-7.9231367111206055,-7.028087615966797,-13.29327392578125,1570.4064569473267
D4:22:CD:00:05:5E,-160.3787384033203,-27.28325843811035,-109.10322570800781,-4.991198539733887,-9.123893737792969,-3.7300453186035156,1570.4064569473267
D4:22:CD:00:05:5D,62.543277740478516,-77.6262435913086,13.545823097229004,12.11053466796875,21.154327392578125,8.220937728881836,1570.4358460903168
D4:22:CD:00:05:6B,66.64785766601562,-68.09772491455078,-175.37364196777344,-5.089972496032715,7.120635986328125,-3.7681899070739746,1570.4358460903168
D4:22:CD:00:49:AA,132.57752990722656,-77.70480346679688,136.4503936767578,-1.0692050457000732,-1.355635404586792,0.4945659637451172,1570.4358460903168
D4:22:CD:00:05:6E,91.10443115234375,35.185733795166016,-179.52537536621094,-12.913339614868164,-10.291088104248047,-14.548561096191406,1570.4358460903168
D4:22:CD:00:05:5E,-162.60997009277344,-23.428680419921875,-110.38410949707031,-7.661660194396973,-10.057121276855469,-2.6512351036071777,1570.4358460903168
D4:22:CD:00:05:5D,62.65228271484375,-75.27680969238281,18.16884422302246,6.414129257202148,28.209331512451172,-11.099140167236328,1570.4659810066223
D4:22:CD:00:05:6B,72.58160400390625,-61.73393630981445,173.91526794433594,-4.196173667907715,5.282724380493164,-3.58164119720459,1570.4659810066223
D4:22:CD:00:49:AA,141.44705200195312,-78.6771240234375,130.70140075683594,3.700472831726074,-0.4832000136375427,1.4003286361694336,1570.4659810066223
D4:22:CD:00:05:6E,85.46209716796875,31.5,-173.1475372314453,-2.0320897102355957,-1.5669400691986084,-17.822650909423828,1570.4659810066223
D4:22:CD:00:05:5E,-162.17974853515625,-21.48172378540039,-111.7003173828125,-4.414228439331055,-12.328792572021484,1.4884462356567383,1570.4659810066223
D4:22:CD:00:05:5D,91.31617736816406,-75.31580352783203,-8.661497116088867,15.678426742553711,5.064981460571289,7.857025146484375,1570.526303768158
D4:22:CD:00:05:6B,76.39032745361328,-56.879451751708984,164.2608184814453,-7.393609046936035,6.430627822875977,-3.5384273529052734,1570.526303768158
D4:22:CD:00:49:AA,155.8163299560547,-77.92605590820312,118.24217224121094,9.482894897460938,1.1021206378936768,9.66268539428711,1570.526303768158
D4:22:CD:00:05:6E,95.50225067138672,33.785667419433594,-175.7206268310547,3.0289196968078613,-2.151214122772217,-2.632176399230957,1570.526303768158
D4:22:CD:00:05:5E,-160.2316436767578,-21.034513473510742,-113.27582550048828,-5.324737548828125,-11.41193962097168,0.2368917465209961,1570.526303768158
D4:22:CD:00:05:5D,114.80081176757812,-73.87911224365234,-33.77170944213867,3.087921619415283,-12.992122650146484,6.311115264892578,1570.5559260845184
D4:22:CD:00:05:6B,82.58071899414062,-54.071956634521484,154.57485961914062,-8.423583984375,11.321727752685547,3.3929529190063477,1570.5559260845184
D4:22:CD:00:49:AA,165.72857666015625,-76.26065826416016,109.77559661865234,4.283788681030273,-1.944368600845337,4.960077285766602,1570.5559260845184
D4:22:CD:00:05:6E,105.89942169189453,39.45916748046875,175.80184936523438,-6.997174263000488,-4.700501441955566,4.840275764465332,1570.5559260845184
D4:22:CD:00:05:5E,-156.78634643554688,-20.887418746948242,-115.41692352294922,-10.688150405883789,-15.397724151611328,-3.7803215980529785,1570.5559260845184
D4:22:CD:00:05:5D,128.28964233398438,-72.4078369140625,-44.72613525390625,5.902046203613281,-8.515361785888672,2.059307098388672,1570.586096048355
D4:22:CD:00:05:6B,90.70532989501953,-53.24601745605469,148.32357788085938,-6.810186386108398,13.317155838012695,3.3945322036743164,1570.586096048355
D4:22:CD:00:49:AA,173.9573974609375,-74.50296783447266,105.34313201904297,-2.9097981452941895,-3.963606357574463,-2.1342201232910156,1570.586096048355
D4:22:CD:00:05:6E,94.38968658447266,43.570526123046875,160.66522216796875,-11.583824157714844,-1.2871177196502686,-1.719024658203125,1570.586096048355
D4:22:CD:00:05:5E,-151.38543701171875,-21.362491607666016,-117.13175964355469,-4.513355255126953,-13.788198471069336,-2.929574489593506,1570.586096048355
D4:22:CD:00:05:5D,141.2205352783203,-70.63590240478516,-51.49685287475586,-10.584222793579102,4.325061798095703,3.672917366027832,1570.616305589676
D4:22:CD:00:05:6B,99.88919830322266,-55.59284973144531,145.449462890625,-5.196491241455078,7.187853813171387,2.404888153076172,1570.616305589676
D4:22:CD:00:49:AA,-177.51319885253906,-72.7271728515625,103.91473388671875,-2.088454246520996,-2.444430351257324,0.0733652114868164,1570.616305589676
D4:22:CD:00:05:6E,74.68245697021484,43.798744201660156,140.23806762695312,-9.206506729125977,1.1984684467315674,-4.4648027420043945,1570.616305589676
D4:22:CD:00:05:5E,-146.1479949951172,-21.497026443481445,-118.80915832519531,-7.575963020324707,5.127867698669434,2.117093086242676,1570.616305589676
D4:22:CD:00:05:5D,150.86367797851562,-69.10291290283203,-57.83877182006836,-2.8999600410461426,-2.7808470726013184,3.1593589782714844,1570.646185874939
D4:22:CD:00:05:6B,108.40966796875,-60.73911666870117,144.7209930419922,-3.2695727348327637,4.520877838134766,0.47777271270751953,1570.646185874939
D4:22:CD:00:49:AA,-174.55259704589844,-70.79447174072266,106.02940368652344,0.20754563808441162,5.966226577758789,-2.9225220680236816,1570.646185874939
D4:22:CD:00:05:6E,56.949222564697266,40.741119384765625,120.02672576904297,-3.0295114517211914,4.199040412902832,-2.9917044639587402,1570.646185874939
D4:22:CD:00:05:5E,-142.11489868164062,-17.578428268432617,-118.09431457519531,-16.108322143554688,7.381460189819336,14.107763290405273,1570.646185874939
D4:22:CD:00:05:5D,158.64959716796875,-67.33027648925781,-64.21814727783203,-1.4823048114776611,0.03601799160242081,0.23757171630859375,1570.676503419876
D4:22:CD:00:05:6B,115.02389526367188,-67.22809600830078,146.01669311523438,-0.10414603352546692,-0.5500293970108032,-0.4234037399291992,1570.676503419876
D4:22:CD:00:49:AA,179.9422607421875,-69.06047821044922,109.66598510742188,3.8839173316955566,4.651025772094727,-2.922255516052246,1570.676503419876
D4:22:CD:00:05:6E,44.28409957885742,35.76054000854492,100.82561492919922,1.4711742401123047,-2.629417896270752,-5.180434226989746,1570.676503419876
D4:22:CD:00:05:5E,-136.42684936523438,-9.846356391906738,-114.56283569335938,-18.055805206298828,4.774473190307617,3.4042062759399414,1570.676503419876
D4:22:CD:00:05:5D,164.43284606933594,-65.59872436523438,-69.48165893554688,0.3367604613304138,-0.12583264708518982,0.7385063171386719,1570.7064807415009
D4:22:CD:00:05:6B,113.69290161132812,-74.06822204589844,151.4576416015625,0.4832432270050049,-3.0250511169433594,3.6800575256347656,1570.7064807415009
D4:22:CD:00:49:AA,172.8025360107422,-67.72940063476562,113.36848449707031,-2.6718101501464844,-0.8520845174789429,0.3414745330810547,1570.7064807415009
D4:22:CD:00:05:6E,38.937110900878906,27.601585388183594,82.19664001464844,-0.9639368057250977,0.015341145917773247,-11.416439056396484,1570.7064807415009
D4:22:CD:00:05:5E,-132.12261962890625,-1.3761935234069824,-108.53972625732422,-12.569021224975586,0.933896541595459,-9.582420349121094,1570.7064807415009
D4:22:CD:00:05:5D,168.53033447265625,-64.05133056640625,-73.13631439208984,1.6544349193572998,0.531585693359375,0.5401811599731445,1570.7365477085114
D4:22:CD:00:05:6B,93.32500457763672,-80.61460876464844,168.83856201171875,-2.82456111907959,-5.676431655883789,4.355292320251465,1570.7365477085114
D4:22:CD:00:49:AA,169.1623992919922,-65.84233093261719,115.75896453857422,-9.034385681152344,-0.21605253219604492,6.702577590942383,1570.7365477085114
D4:22:CD:00:05:6E,37.779048919677734,19.20531463623047,64.52192687988281,7.008286476135254,4.558930397033691,-3.927307605743408,1570.7365477085114
D4:22:CD:00:05:5E,-129.77081298828125,5.986794471740723,-100.93014526367188,-7.62431526184082,1.4018628597259521,-14.67247200012207,1570.7365477085114
D4:22:CD:00:05:5D,171.33189392089844,-63.062862396240234,-75.17074584960938,0.6281465291976929,0.9587113857269287,1.388671875,1570.766530752182
D4:22:CD:00:05:6B,43.32332229614258,-83.968505859375,-146.31494140625,-4.70305061340332,-3.087921619415283,2.7652978897094727,1570.766530752182
D4:22:CD:00:49:AA,169.61097717285156,-65.19359588623047,115.46380615234375,-8.83510971069336,-0.016237322241067886,8.080526351928711,1570.766530752182
D4:22:CD:00:05:6E,43.13276290893555,13.609137535095215,50.29534912109375,13.200878143310547,-7.191364288330078,-2.7664408683776855,1570.766530752182
D4:22:CD:00:05:5E,-129.3902130126953,11.143980979919434,-92.5728759765625,-4.092972755432129,2.29201602935791,-14.029590606689453,1570.766530752182
D4:22:CD:00:05:5D,173.0144805908203,-63.06623840332031,-76.2701416015625,-0.5861539840698242,0.7294477224349976,1.3398723602294922,1570.8266026973724
D4:22:CD:00:05:6B,0.4922260046005249,-82.6662368774414,-105.78099060058594,-4.618691444396973,-0.223663330078125,2.922614097595215,1570.8266026973724
D4:22:CD:00:49:AA,170.8043670654297,-66.2657699584961,115.96208953857422,-4.145871162414551,1.388704776763916,5.056153297424316,1570.8266026973724
D4:22:CD:00:05:6E,58.22361373901367,9.328448295593262,42.23384475708008,1.0152771472930908,-3.669424533843994,-1.7293310165405273,1570.8266026973724
D4:22:CD:00:05:5E,-131.2423858642578,13.754888534545898,-85.14865112304688,-1.2166354656219482,2.309725284576416,-11.332401275634766,1570.8266026973724
D4:22:CD:00:05:5D,174.6654815673828,-63.90938949584961,-77.63981628417969,-1.1720902919769287,0.3216116428375244,0.9160871505737305,1570.8561165332794
D4:22:CD:00:05:6B,-14.0682373046875,-80.19524383544922,-91.10950469970703,-2.668059825897217,0.38655543327331543,2.3651723861694336,1570.8561165332794
D4:22:CD:00:49:AA,169.45870971679688,-67.32731628417969,118.09329223632812,-0.2666044235229492,1.933084487915039,1.813323974609375,1570.8561165332794
D4:22:CD:00:05:6E,70.6875228881836,3.708451271057129,38.937782287597656,0.34989744424819946,4.051398277282715,4.747837066650391,1570.8561165332794
D4:22:CD:00:05:5E,-135.3328094482422,13.702194213867188,-79.81627655029297,-2.036065101623535,-0.7342034578323364,-9.666727066040039,1570.8561165332794
D4:22:CD:00:05:5D,176.66404724121094,-65.328857421875,-79.65895080566406,-0.5947771072387695,0.19647929072380066,0.4259471893310547,1570.8872628211975
D4:22:CD:00:05:6B,-18.055259704589844,-77.42086791992188,-87.56240844726562,-1.5743184089660645,0.6223239898681641,0.30034828186035156,1570.8872628211975
D4:22:CD:00:49:AA,166.8987274169922,-67.99240112304688,119.82267761230469,0.19029802083969116,2.364090919494629,-3.1737618446350098,1570.8872628211975
D4:22:CD:00:05:6E,79.99409484863281,-4.856235504150391,39.47498321533203,11.518875122070312,6.591325759887695,3.860507011413574,1570.8872628211975
D4:22:CD:00:05:5E,-142.43226623535156,11.207561492919922,-76.59104919433594,-3.7583069801330566,-5.827662467956543,-6.993379592895508,1570.8872628211975
D4:22:CD:00:05:5D,178.61746215820312,-66.90235137939453,-81.76654815673828,0.8041727542877197,-0.5113307237625122,-0.18887996673583984,1570.9164643287659
D4:22:CD:00:05:6B,-19.84821891784668,-74.17001342773438,-88.12288665771484,-2.337986946105957,1.6895751953125,-1.296158790588379,1570.9164643287659
D4:22:CD:00:49:AA,164.0767822265625,-68.08390045166016,121.15217590332031,1.218189001083374,0.5712727308273315,-4.018207550048828,1570.9164643287659
D4:22:CD:00:05:6E,85.07212829589844,-15.586838722229004,43.646663665771484,17.1717529296875,10.187211990356445,12.49515151977539,1570.9164643287659
D4:22:CD:00:05:5E,-147.91847229003906,5.712874889373779,-75.51058197021484,2.795013904571533,-10.258539199829102,-6.419363021850586,1570.9164643287659
D4:22:CD:00:05:5D,179.8883819580078,-68.14661407470703,-83.0159912109375,1.067018985748291,-1.2268102169036865,-0.6988248825073242,1570.9458203315735
D4:22:CD:00:05:6B,-20.66694450378418,-70.28348541259766,-90.64797973632812,-2.261667251586914,1.744943618774414,-3.5311079025268555,1570.9458203315735
D4:22:CD:00:49:AA,161.1139373779297,-67.93501281738281,121.95906829833984,0.43071502447128296,-0.36402904987335205,-3.4675521850585938,1570.9458203315735
D4:22:CD:00:05:6E,81.98074340820312,-26.92247772216797,52.84469985961914,15.16278076171875,12.320915222167969,7.244474411010742,1570.9458203315735
D4:22:CD:00:05:5E,-146.24835205078125,-3.7864785194396973,-77.26185607910156,8.548715591430664,-13.378692626953125,-10.302993774414062,1570.9458203315735
D4:22:CD:00:05:5D,179.62490844726562,-68.60941314697266,-83.01852416992188,1.1895420551300049,-2.066586971282959,-0.7685909271240234,1570.9858536720276
D4:22:CD:00:05:6B,-23.58991241455078,-65.69290924072266,-92.37089538574219,-1.4727652072906494,3.0540823936462402,-5.502658843994141,1570.9858536720276
D4:22:CD:00:49:AA,155.97642517089844,-67.96988677978516,124.1859130859375,0.25244903564453125,-0.0100167877972126,-5.454019546508789,1570.9858536720276
D4:22:CD:00:05:6E,81.02911376953125,-39.07471466064453,64.68592071533203,12.383066177368164,17.94280242919922,2.1413354873657227,1570.9858536720276
D4:22:CD:00:05:5E,-136.6891632080078,-15.114104270935059,-81.2112808227539,0.5519404411315918,-11.52358627319336,9.11534309387207,1570.9858536720276
D4:22:CD:00:05:5D,177.7310028076172,-67.58676147460938,-80.90164947509766,3.5828447341918945,-2.3148093223571777,-4.304548263549805,1571.006021976471
D4:22:CD:00:05:6B,-29.818130493164062,-59.667755126953125,-91.3184814453125,-4.407715797424316,8.77475357055664,-2.0919442176818848,1571.006021976471
D4:22:CD:00:49:AA,149.396240234375,-67.80721282958984,127.79617309570312,-0.13609319925308228,-1.7521169185638428,-7.4590301513671875,1571.006021976471
D4:22:CD:00:05:6E,99.46605682373047,-48.1036262512207,67.0909652709961,5.964068412780762,-0.8712936639785767,5.096698760986328,1571.006021976471
D4:22:CD:00:05:5E,-134.0496368408203,-21.025192260742188,-82.7501220703125,-6.266695976257324,-14.09140396118164,0.27907276153564453,1571.006021976471
D4:22:CD:00:05:5D,176.42239379882812,-64.50704956054688,-79.696044921875,-1.7510302066802979,-3.7741799354553223,-1.7303104400634766,1571.0361723899841
D4:22:CD:00:05:6B,-39.22686004638672,-50.633792877197266,-85.75919342041016,-3.1566829681396484,12.035842895507812,-4.5727691650390625,1571.0361723899841
D4:22:CD:00:49:AA,144.28424072265625,-67.2320556640625,132.54913330078125,-6.878292083740234,-1.180720567703247,-2.9416160583496094,1571.0361723899841
D4:22:CD:00:05:6E,104.15843200683594,-51.430728912353516,64.39558410644531,3.4275550842285156,-10.957599639892578,2.5699806213378906,1571.0361723899841
D4:22:CD:00:05:5E,-139.46763610839844,-21.55121421813965,-81.60918426513672,14.782106399536133,-8.55717658996582,6.3213348388671875,1571.0361723899841
D4:22:CD:00:05:5D,176.71507263183594,-60.75001907348633,-79.00350952148438,0.8056932687759399,0.8754163980484009,-0.2927732467651367,1571.0762643814087
D4:22:CD:00:05:6B,-53.45857620239258,-36.72352981567383,-77.4725341796875,0.1335139274597168,15.35421371459961,-3.20892333984375,1571.0762643814087
D4:22:CD:00:49:AA,140.8853759765625,-66.74745178222656,137.53250122070312,-2.7664036750793457,-0.9600497484207153,1.5137138366699219,1571.0762643814087
D4:22:CD:00:05:6E,86.0017318725586,-52.1789665222168,62.12751007080078,-2.0983591079711914,15.730594635009766,-12.561269760131836,1571.0762643814087
D4:22:CD:00:05:5E,-139.0093536376953,-17.971776962280273,-81.34495544433594,-2.642670154571533,-19.76811981201172,-5.27479362487793,1571.0762643814087
D4:22:CD:00:05:5D,176.6075897216797,-56.987667083740234,-77.77953338623047,0.8741903305053711,2.593045234680176,2.2140932083129883,1571.1263332366943
D4:22:CD:00:05:6B,-59.015968322753906,-19.13882064819336,-71.29622650146484,1.333012580871582,15.437314987182617,11.631704330444336,1571.1263332366943
D4:22:CD:00:49:AA,139.46127319335938,-66.41401672363281,141.17893981933594,4.178499221801758,-1.0727050304412842,4.272965431213379,1571.1263332366943
D4:22:CD:00:05:6E,72.9944076538086,-55.15510940551758,65.33943939208984,14.486806869506836,19.061534881591797,-8.530975341796875,1571.1263332366943
D4:22:CD:00:05:5E,-140.93264770507812,-9.00233268737793,-80.12068939208984,-2.1772098541259766,-30.406829833984375,-3.1490259170532227,1571.1263332366943
D4:22:CD:00:05:5D,175.38673400878906,-54.33110809326172,-75.7935791015625,-0.5723987817764282,0.4875975251197815,1.8298778533935547,1571.1573576927185
D4:22:CD:00:05:6B,-46.771976470947266,-1.6897776126861572,-65.73023223876953,2.951211929321289,8.162450790405273,16.185794830322266,1571.1573576927185
D4:22:CD:00:49:AA,137.8216094970703,-66.51577758789062,144.39952087402344,-3.014744758605957,-2.525700092315674,6.375604629516602,1571.1573576927185
D4:22:CD:00:05:6E,74.68550872802734,-58.40203094482422,68.652099609375,4.13319206237793,13.615203857421875,6.831979751586914,1571.1573576927185
D4:22:CD:00:05:5E,-138.7433319091797,1.3704049587249756,-77.06696319580078,-5.561774253845215,-32.697486877441406,-5.535246849060059,1571.1573576927185
D4:22:CD:00:05:5D,174.80209350585938,-52.686805725097656,-74.05574798583984,-1.164552927017212,0.6303253173828125,1.7602968215942383,1571.1864852905273
D4:22:CD:00:05:6B,-29.460702896118164,13.830939292907715,-57.578304290771484,2.7433886528015137,7.174104690551758,12.417980194091797,1571.1864852905273
D4:22:CD:00:49:AA,135.15061950683594,-67.76313018798828,148.58555603027344,-7.381836891174316,-1.2515606880187988,7.147001266479492,1571.1864852905273
D4:22:CD:00:05:6E,81.32392883300781,-62.17982864379883,69.27252197265625,2.0139198303222656,14.990896224975586,6.646839141845703,1571.1864852905273
D4:22:CD:00:05:5E,-134.03187561035156,9.262763023376465,-73.22156524658203,-1.8126130104064941,-25.356552124023438,-6.1820831298828125,1571.1864852905273
D4:22:CD:00:05:5D,174.72987365722656,-52.144405364990234,-73.1386489868164,-1.368581771850586,0.8453662395477295,2.0400753021240234,1571.2154982089996
D4:22:CD:00:05:6B,-14.8294677734375,24.551504135131836,-44.70029067993164,-3.968471050262451,2.30845308303833,11.688863754272461,1571.2154982089996
D4:22:CD:00:49:AA,134.05389404296875,-69.84387969970703,153.3181610107422,-5.38230037689209,0.1739887297153473,7.792043685913086,1571.2154982089996
D4:22:CD:00:05:6E,85.66474914550781,-67.68543243408203,70.40737915039062,-6.242123603820801,9.333911895751953,12.05820083618164,1571.2154982089996
D4:22:CD:00:05:5E,-131.46925354003906,13.370989799499512,-70.3266372680664,0.520767092704773,-9.567819595336914,-4.980749130249023,1571.2154982089996
D4:22:CD:00:05:5D,174.47796630859375,-52.92328643798828,-72.91373443603516,-1.2362337112426758,0.7380802631378174,2.395380973815918,1571.246010541916
D4:22:CD:00:05:6B,-2.825047492980957,28.135772705078125,-31.7469482421875,-4.213082313537598,-0.8540976047515869,9.769649505615234,1571.246010541916
D4:22:CD:00:49:AA,136.61465454101562,-72.42570495605469,155.71502685546875,-5.471866607666016,0.5610688924789429,9.213924407958984,1571.246010541916
D4:22:CD:00:05:6E,93.63973999023438,-74.11211395263672,69.506103515625,-2.0524230003356934,-0.059933654963970184,15.447433471679688,1571.246010541916
D4:22:CD:00:05:5E,-131.47898864746094,12.534628868103027,-70.4259262084961,3.428126335144043,-0.6046006679534912,-4.174656867980957,1571.246010541916
D4:22:CD:00:05:5D,173.78369140625,-55.436710357666016,-71.7577133178711,1.07633638381958,2.1800217628479004,3.173809051513672,1571.276504278183
D4:22:CD:00:05:6B,4.192978382110596,27.338481903076172,-24.348085403442383,-8.030656814575195,-6.579923629760742,3.732365608215332,1571.276504278183
D4:22:CD:00:49:AA,142.2015838623047,-75.14434814453125,156.10888671875,-2.3408594131469727,1.3992586135864258,6.93556022644043,1571.276504278183
D4:22:CD:00:05:6E,116.48733520507812,-80.1552734375,61.67985916137695,-0.4170321822166443,-7.114419937133789,13.00667953491211,1571.276504278183
D4:22:CD:00:05:5E,-133.31947326660156,7.493700981140137,-74.11506652832031,5.260038375854492,2.9821338653564453,-3.633270740509033,1571.276504278183
D4:22:CD:00:05:5D,171.7263946533203,-59.89256286621094,-67.59269714355469,-1.8572933673858643,-0.6035354137420654,4.299228668212891,1571.305953502655
D4:22:CD:00:05:6B,8.30917739868164,26.139556884765625,-22.890872955322266,-4.430163383483887,-2.506443500518799,-4.0663604736328125,1571.305953502655
D4:22:CD:00:49:AA,150.75648498535156,-77.64028930664062,153.7934112548828,-1.1931867599487305,0.9537060260772705,1.9133930206298828,1571.305953502655
D4:22:CD:00:05:6E,159.97195434570312,-83.865478515625,35.26884841918945,0.693819522857666,-9.79184341430664,5.544949531555176,1571.305953502655
D4:22:CD:00:05:5E,-135.03265380859375,0.44878730177879333,-80.77523803710938,7.268869400024414,3.4124035835266113,-4.72244930267334,1571.305953502655
D4:22:CD:00:05:5D,168.63429260253906,-64.6898193359375,-61.95066452026367,5.167417526245117,-9.180397033691406,8.864782333374023,1571.3369073867798
D4:22:CD:00:05:6B,11.731731414794922,26.65654182434082,-24.993431091308594,-2.275346279144287,0.3555651903152466,-8.412519454956055,1571.3369073867798
D4:22:CD:00:49:AA,164.08871459960938,-79.68904876708984,145.7386932373047,-1.0980777740478516,-2.7252936363220215,-2.8844809532165527,1571.3369073867798
D4:22:CD:00:05:6E,-145.33242797851562,-83.78041076660156,-5.8455047607421875,4.572190284729004,-13.522918701171875,-8.152175903320312,1571.3369073867798
D4:22:CD:00:05:5E,-134.2410430908203,-7.1488494873046875,-89.29932403564453,5.764216423034668,2.5126900672912598,-5.252281188964844,1571.3369073867798
D4:22:CD:00:05:5D,158.18167114257812,-69.31598663330078,-58.335575103759766,6.358055114746094,0.04227752983570099,-3.8407511711120605,1571.3663153648376
D4:22:CD:00:05:6B,14.685161590576172,28.801965713500977,-29.209529876708984,-1.9667131900787354,3.553837299346924,-10.031715393066406,1571.3663153648376
D4:22:CD:00:49:AA,175.78726196289062,-80.8395767211914,137.43063354492188,4.113741874694824,2.2149271965026855,-9.844011306762695,1571.3663153648376
D4:22:CD:00:05:6E,-121.47418975830078,-81.37490844726562,-25.189294815063477,7.242423057556152,-10.438251495361328,-4.0355119705200195,1571.3663153648376
D4:22:CD:00:05:5E,-131.94041442871094,-14.797914505004883,-98.99368286132812,1.5787303447723389,2.2173056602478027,-6.474122047424316,1571.3663153648376
D4:22:CD:00:05:5D,157.2119903564453,-69.06692504882812,-53.7275505065918,14.424568176269531,-1.6164953708648682,-10.2342529296875,1571.4261865615845
D4:22:CD:00:05:6B,14.07645320892334,31.578611373901367,-36.29142761230469,2.170741558074951,5.246735572814941,-10.347673416137695,1571.4261865615845
D4:22:CD:00:49:AA,179.85841369628906,-81.38265228271484,133.66949462890625,5.245644569396973,5.169672966003418,-11.83608627319336,1571.4261865615845
D4:22:CD:00:05:6E,-117.46894073486328,-80.1728286743164,-28.442832946777344,6.842681884765625,-5.425772666931152,-8.21347427368164,1571.4261865615845
D4:22:CD:00:05:5E,-131.06614685058594,-22.12849998474121,-108.6823501586914,-4.839921951293945,1.0917484760284424,-7.057692527770996,1571.4261865615845
D4:22:CD:00:05:5D,162.76602172851562,-71.8106689453125,-49.9301643371582,6.929791450500488,-8.958227157592773,-10.490102767944336,1571.4564542770386
D4:22:CD:00:05:6B,8.997368812561035,34.32072448730469,-46.755943298339844,4.907888412475586,4.052302360534668,-10.644010543823242,1571.4564542770386
D4:22:CD:00:49:AA,178.7064971923828,-82.3251724243164,134.6562957763672,-0.3066141605377197,2.488163471221924,-9.141021728515625,1571.4564542770386
D4:22:CD:00:05:6E,-116.96707153320312,-80.81814575195312,-27.690292358398438,6.205364227294922,-1.103945016860962,-9.743474960327148,1571.4564542770386
D4:22:CD:00:05:5E,-132.98733520507812,-28.816852569580078,-118.0565414428711,-12.588977813720703,1.6645326614379883,-3.523820400238037,1571.4564542770386
D4:22:CD:00:05:5D,162.52098083496094,-75.69062805175781,-51.35838317871094,-15.996877670288086,9.356903076171875,0.5602436065673828,1571.4864461421967
D4:22:CD:00:05:6B,-1.6548784971237183,35.45642852783203,-62.3172721862793,6.109734535217285,2.6969752311706543,-11.936988830566406,1571.4864461421967
D4:22:CD:00:49:AA,173.68838500976562,-83.47460174560547,139.0823516845703,-2.31197452545166,-1.345853567123413,-8.53525161743164,1571.4864461421967
D4:22:CD:00:05:6E,-114.80101776123047,-83.23302459716797,-26.353872299194336,6.308429718017578,-0.6488704681396484,-9.622852325439453,1571.4864461421967
D4:22:CD:00:05:5E,-139.34278869628906,-33.215003967285156,-125.37276458740234,-18.40180206298828,6.774449348449707,6.881898880004883,1571.4864461421967
