Device,EulerX,EulerY,EulerZ,FreeAccX,FreeAccY,FreeAccZ,Timestamp
D4:22:CD:00:05:5D,172.34019470214844,-57.7918586730957,-90.66091918945312,1.3307292461395264,2.058915138244629,2.7247390747070312,2265.7215514183044
D4:22:CD:00:05:6B,-42.544376373291016,28.14952850341797,-128.83526611328125,-9.227241516113281,6.217630386352539,19.420738220214844,2265.7215514183044
D4:22:CD:00:49:AA,164.81576538085938,-66.38919067382812,128.28268432617188,-5.401572227478027,-0.34546923637390137,10.51416015625,2265.7215514183044
D4:22:CD:00:05:6E,90.3206558227539,-54.17812728881836,22.211402893066406,-1.9320194721221924,4.443855285644531,-2.0008983612060547,2265.7215514183044
D4:22:CD:00:05:5E,-171.0103302001953,-48.661956787109375,-12.423067092895508,-0.3187522888183594,2.871974468231201,-1.737095832824707,2265.7215514183044
D4:22:CD:00:05:5D,171.7570343017578,-62.21969223022461,-89.11846923828125,1.2650585174560547,2.181588649749756,3.0190038681030273,2265.7250785827637
D4:22:CD:00:05:6B,-26.31292152404785,33.37510681152344,-119.03634643554688,-22.748065948486328,11.090484619140625,11.51028060913086,2265.7250785827637
D4:22:CD:00:49:AA,168.80836486816406,-67.63185119628906,127.58949279785156,-7.080465316772461,1.1121082305908203,6.255542755126953,2265.7250785827637
D4:22:CD:00:05:6E,80.98592376708984,-59.286956787109375,40.23674011230469,-3.484426498413086,1.341836929321289,-6.763674736022949,2265.7250785827637
D4:22:CD:00:05:5E,-169.007080078125,-52.59150695800781,-16.147216796875,3.0993199348449707,2.869112968444824,-13.709186553955078,2265.7250785827637
D4:22:CD:00:05:6B,-4.839308738708496,36.892337799072266,-112.43406677246094,-12.180946350097656,10.271184921264648,-9.17803955078125,2265.7280786037445
D4:22:CD:00:49:AA,175.86305236816406,-69.63155364990234,125.50746154785156,-3.948169231414795,0.1259562373161316,2.4368410110473633,2265.7280786037445
D4:22:CD:00:05:6E,63.59286117553711,-65.87826538085938,66.12442016601562,-5.520798683166504,-1.8764240741729736,-7.248174667358398,2265.7280786037445
D4:22:CD:00:05:5E,-166.23220825195312,-58.85499572753906,-21.77143096923828,5.220458984375,3.4832072257995605,-18.272293090820312,2265.7280786037445
D4:22:CD:00:05:5D,-179.7292022705078,-72.23017120361328,-124.80721282958984,1.851654052734375,1.2865431308746338,-1.1095399856567383,2265.7300786972046
D4:22:CD:00:49:AA,-173.47320556640625,-70.61739349365234,120.67247772216797,-1.6630382537841797,-0.9245438575744629,-6.601574897766113,2265.7300786972046
D4:22:CD:00:05:6E,36.28134536743164,-69.01522827148438,102.74629974365234,-7.206325531005859,-2.4617347717285156,-5.576739311218262,2265.7300786972046
D4:22:CD:00:05:5E,-158.40716552734375,-67.53105163574219,-30.93287467956543,1.0523979663848877,3.203306198120117,-16.079456329345703,2265.7300786972046
D4:22:CD:00:05:5D,-171.36322021484375,-65.85334777832031,-132.65716552734375,0.41001617908477783,0.7993903160095215,-1.3414812088012695,2265.733080148697
D4:22:CD:00:05:6B,-5.530580997467041,-57.763675689697266,74.17574310302734,6.768094062805176,0.08148598670959473,-4.746734619140625,2265.733080148697
D4:22:CD:00:05:5D,-171.1239776611328,-60.72285461425781,-131.8351287841797,0.2035447359085083,0.6294431686401367,-0.4441671371459961,2265.8060784339905
D4:22:CD:00:05:6B,-25.008272171020508,-55.06843566894531,86.39398193359375,10.744440078735352,-0.8208861351013184,-2.1599502563476562,2265.8060784339905
D4:22:CD:00:49:AA,99.94046783447266,-85.85366821289062,-173.27101135253906,2.008967399597168,0.6027839183807373,-0.15481185913085938,2265.8060784339905
D4:22:CD:00:05:6E,-60.254119873046875,-59.68052673339844,-169.6844482421875,3.3882293701171875,-1.5163040161132812,12.214942932128906,2265.8060784339905
D4:22:CD:00:05:5E,-142.76837158203125,-62.76047134399414,-93.65997314453125,1.4452745914459229,-9.598350524902344,14.638612747192383,2265.8060784339905
D4:22:CD:00:05:5D,-172.06690979003906,-56.60029220581055,-129.48497009277344,-0.29677915573120117,2.3370699882507324,-0.03518962860107422,2265.8366208076477
D4:22:CD:00:05:6B,-61.06462478637695,-40.723026275634766,107.64139556884766,8.621374130249023,-5.6655731201171875,11.341678619384766,2265.8366208076477
D4:22:CD:00:49:AA,85.32823944091797,-80.14230346679688,-160.85470581054688,0.7605289220809937,-1.940324068069458,1.395350456237793,2265.8366208076477
D4:22:CD:00:05:6E,-48.74703598022461,-48.113101959228516,-170.74176025390625,-11.288543701171875,2.9734387397766113,6.397665023803711,2265.8366208076477
D4:22:CD:00:05:5E,-101.1480941772461,-73.88762664794922,-133.323974609375,-3.655109405517578,-0.3697941303253174,18.99182891845703,2265.8366208076477
D4:22:CD:00:05:5D,-173.97474670410156,-53.09369659423828,-126.95568084716797,-1.600254774093628,2.1879544258117676,2.023003578186035,2265.8667209148407
D4:22:CD:00:05:6B,-77.13048553466797,-18.4202938079834,112.3647689819336,1.2940337657928467,-6.059823989868164,18.01030731201172,2265.8667209148407
D4:22:CD:00:49:AA,86.87196350097656,-78.013427734375,-163.82958984375,-3.4159088134765625,-2.1171464920043945,4.240477561950684,2265.8667209148407
D4:22:CD:00:05:6E,-47.234676361083984,-53.04747772216797,-163.40902709960938,-16.651840209960938,5.164259910583496,2.377593994140625,2265.8667209148407
D4:22:CD:00:05:5E,-81.94328308105469,-75.08602142333984,-152.9644317626953,-5.241147994995117,2.1394338607788086,17.647022247314453,2265.8667209148407
D4:22:CD:00:05:5D,-175.64353942871094,-50.778907775878906,-125.03875732421875,-0.2590830326080322,1.9348969459533691,0.41789913177490234,2265.896713733673
D4:22:CD:00:05:6B,-79.24333190917969,4.710954666137695,112.76409912109375,-9.875276565551758,-0.5442042350769043,24.44023895263672,2265.896713733673
D4:22:CD:00:49:AA,95.2525634765625,-79.5262680053711,-172.64785766601562,-1.9969067573547363,-5.381624221801758,5.531429290771484,2265.896713733673
D4:22:CD:00:05:6E,-59.082393646240234,-59.849334716796875,-145.44102478027344,-17.743663787841797,-2.249514579772949,7.742198944091797,2265.896713733673
D4:22:CD:00:05:5E,-104.55856323242188,-75.98355102539062,-131.38037109375,-6.238410949707031,1.4597399234771729,10.946666717529297,2265.896713733673
D4:22:CD:00:05:5D,-176.08401489257812,-49.81444549560547,-124.68943786621094,1.5080604553222656,2.15177583694458,-0.7977790832519531,2265.9263710975647
D4:22:CD:00:05:6B,-69.69830322265625,25.55682945251465,112.22618865966797,-17.87458038330078,10.216852188110352,20.147872924804688,2265.9263710975647
D4:22:CD:00:49:AA,117.82015991210938,-81.25306701660156,165.6802520751953,-1.5395047664642334,-3.7393507957458496,6.238603591918945,2265.9263710975647
D4:22:CD:00:05:6E,-74.32893371582031,-62.47488784790039,-122.34957885742188,-14.179943084716797,-8.748411178588867,5.829189300537109,2265.9263710975647
D4:22:CD:00:05:5E,-119.19807434082031,-75.5848159790039,-115.27645111083984,-1.026498556137085,5.005459785461426,6.0402326583862305,2265.9263710975647
D4:22:CD:00:05:5D,-175.4022216796875,-50.25979232788086,-124.97186279296875,-2.634761333465576,0.8664631843566895,4.900323867797852,2265.9563722610474
D4:22:CD:00:05:6B,-49.22695541381836,42.192508697509766,116.11028289794922,-4.619362831115723,15.658132553100586,8.364551544189453,2265.9563722610474
D4:22:CD:00:49:AA,141.97499084472656,-81.32158660888672,142.6402130126953,-1.3791074752807617,0.13847476243972778,7.170248031616211,2265.9563722610474
D4:22:CD:00:05:6E,-84.20061492919922,-61.74753952026367,-102.00131225585938,-10.736927032470703,-12.18868637084961,2.3517370223999023,2265.9563722610474
D4:22:CD:00:05:5E,-116.51657104492188,-74.882080078125,-116.97819519042969,0.5904370546340942,5.733686447143555,-1.5827417373657227,2265.9563722610474
D4:22:CD:00:05:5D,-175.02757263183594,-51.9635009765625,-124.88893127441406,-2.1924076080322266,2.4111766815185547,3.953555107116699,2265.986371278763
D4:22:CD:00:05:6B,-25.26177406311035,52.10293197631836,129.7157745361328,8.270021438598633,13.2105712890625,4.989595413208008,2265.986371278763
D4:22:CD:00:49:AA,160.85931396484375,-81.17575073242188,126.13489532470703,-4.984994888305664,-0.1979484260082245,9.465900421142578,2265.986371278763
D4:22:CD:00:05:6E,-88.59429931640625,-61.12263870239258,-85.4622802734375,-4.4963274002075195,-13.362043380737305,-0.782099723815918,2265.986371278763
D4:22:CD:00:05:5E,-101.69359588623047,-74.88670349121094,-132.29794311523438,2.780709743499756,4.869716644287109,-6.486544609069824,2265.986371278763
D4:22:CD:00:05:5D,-174.9229736328125,-55.301841735839844,-124.6173095703125,-2.2531795501708984,0.33113622665405273,6.746795654296875,2266.0163888931274
D4:22:CD:00:05:6B,-1.9581712484359741,55.861289978027344,143.74513244628906,10.770851135253906,19.867061614990234,0.6620254516601562,2266.0163888931274
D4:22:CD:00:49:AA,-176.46336364746094,-81.78006744384766,107.68534088134766,-2.303091049194336,1.3373610973358154,5.303431510925293,2266.0163888931274
D4:22:CD:00:05:6E,-86.27703094482422,-60.600807189941406,-72.85128021240234,-2.9881725311279297,-10.795097351074219,-6.525851249694824,2266.0163888931274
D4:22:CD:00:05:5E,-77.6971206665039,-73.22065734863281,-157.90164184570312,3.1367626190185547,2.9944896697998047,-7.332422256469727,2266.0163888931274
D4:22:CD:00:05:5D,-175.90736389160156,-59.53468704223633,-123.82638549804688,-6.750615119934082,-3.4733567237854004,7.966943740844727,2266.076905488968
D4:22:CD:00:05:6B,19.257720947265625,57.89631652832031,151.41717529296875,12.207115173339844,3.1633052825927734,-9.413347244262695,2266.076905488968
D4:22:CD:00:49:AA,-154.78660583496094,-81.29259490966797,91.049560546875,2.415982723236084,2.272231101989746,1.287628173828125,2266.076905488968
D4:22:CD:00:05:6E,-82.36934661865234,-59.75143051147461,-62.44717788696289,-0.1616058647632599,-11.805103302001953,-6.3158464431762695,2266.076905488968
D4:22:CD:00:05:5E,-55.941062927246094,-68.14495849609375,178.0327606201172,-0.4331512451171875,3.277754783630371,-7.045053482055664,2266.076905488968
D4:22:CD:00:05:5D,179.0885467529297,-65.59638214111328,-123.63277435302734,-7.182000160217285,-3.654282569885254,-3.632080078125,2266.1068964004517
D4:22:CD:00:05:6B,29.096162796020508,59.156803131103516,154.08558654785156,5.435755729675293,-4.723689079284668,-8.771507263183594,2266.1068964004517
D4:22:CD:00:49:AA,-146.88897705078125,-79.30846405029297,86.99555206298828,2.32443904876709,2.3530101776123047,-3.524341106414795,2266.1068964004517
D4:22:CD:00:05:6E,-80.68092346191406,-58.59779739379883,-53.485958099365234,4.085261344909668,-11.36367416381836,-7.367757797241211,2266.1068964004517
D4:22:CD:00:05:5E,-46.86479187011719,-61.530818939208984,164.06150817871094,-5.908832550048828,4.952912330627441,-11.1920166015625,2266.1068964004517
D4:22:CD:00:05:5D,173.23452758789062,-67.31610870361328,-118.95214080810547,8.123239517211914,-1.2414817810058594,-8.118967056274414,2266.1364512443542
D4:22:CD:00:05:6B,30.505613327026367,60.29258728027344,149.8557891845703,-0.0719752311706543,-3.1194047927856445,-8.361442565917969,2266.1364512443542
D4:22:CD:00:49:AA,-147.5824737548828,-78.04094696044922,88.14312744140625,3.2803564071655273,0.5049489736557007,-9.93433952331543,2266.1364512443542
D4:22:CD:00:05:6E,-83.03448486328125,-57.048728942871094,-46.02326583862305,4.99354362487793,-7.25726318359375,-12.044853210449219,2266.1364512443542
D4:22:CD:00:05:5E,-44.28360366821289,-56.0789909362793,154.6012725830078,-10.963233947753906,4.656773567199707,-11.887836456298828,2266.1364512443542
D4:22:CD:00:05:5D,170.90708923339844,-68.17273712158203,-111.84201049804688,0.9881842136383057,-6.547873497009277,-10.761962890625,2266.166447877884
D4:22:CD:00:05:6B,26.90478515625,62.394962310791016,138.25186157226562,-1.9551701545715332,-3.347141742706299,-7.92413330078125,2266.166447877884
D4:22:CD:00:49:AA,-149.3030548095703,-77.6015853881836,88.25555419921875,0.5609681606292725,0.16311702132225037,-11.916555404663086,2266.166447877884
D4:22:CD:00:05:6E,-88.44413757324219,-54.94871520996094,-40.098487854003906,7.44497013092041,-4.564979553222656,-9.619623184204102,2266.166447877884
D4:22:CD:00:05:5E,-43.424827575683594,-52.320804595947266,147.02146911621094,-8.802953720092773,10.091653823852539,-10.982698440551758,2266.166447877884
D4:22:CD:00:05:5D,169.89512634277344,-72.14820098876953,-106.07706451416016,2.754152774810791,-2.308145046234131,-10.59127426147461,2266.196447610855
D4:22:CD:00:05:6B,14.30446720123291,63.53856658935547,118.51707458496094,-4.66542911529541,-6.366358757019043,-8.849584579467773,2266.196447610855
D4:22:CD:00:49:AA,-146.7037353515625,-78.62589263916016,86.12284088134766,-1.7936186790466309,-1.1552274227142334,-7.256673812866211,2266.196447610855
D4:22:CD:00:05:6E,-92.02220153808594,-53.28404235839844,-37.40850830078125,7.5167236328125,-0.18711614608764648,-9.997638702392578,2266.196447610855
D4:22:CD:00:05:5E,-39.59383010864258,-50.235904693603516,142.03875732421875,-4.3138275146484375,11.682598114013672,-13.799507141113281,2266.196447610855
D4:22:CD:00:05:5D,168.16818237304688,-74.79244995117188,-99.3390884399414,2.5905885696411133,29.373790740966797,1.0312929153442383,2266.2259991168976
D4:22:CD:00:05:6B,-5.872563362121582,60.86663055419922,91.22132110595703,0.40588563680648804,1.579766035079956,-13.842620849609375,2266.2259991168976
D4:22:CD:00:49:AA,-140.6656951904297,-80.15501403808594,81.00263214111328,-1.859461784362793,-1.1065185070037842,-8.730777740478516,2266.2259991168976
D4:22:CD:00:05:6E,-91.21166229248047,-52.120506286621094,-37.436546325683594,7.61782169342041,-0.4747046232223511,-7.694149971008301,2266.2259991168976
D4:22:CD:00:05:5E,-36.12921142578125,-50.04883575439453,140.236572265625,-10.15640640258789,8.844179153442383,-13.430648803710938,2266.2259991168976
D4:22:CD:00:05:5D,165.92953491210938,-71.10942840576172,-91.62632751464844,-2.40201473236084,-4.325808525085449,-8.569480895996094,2266.2559995651245
D4:22:CD:00:05:6B,-21.168434143066406,52.328086853027344,65.14335632324219,9.662826538085938,8.806819915771484,-24.343265533447266,2266.2559995651245
D4:22:CD:00:49:AA,-135.0657958984375,-80.4932861328125,76.41454315185547,0.17033866047859192,-1.3037559986114502,-5.822461128234863,2266.2559995651245
D4:22:CD:00:05:6E,-86.9308853149414,-51.30133819580078,-38.824554443359375,8.379570007324219,-2.1711978912353516,-6.479043960571289,2266.2559995651245
D4:22:CD:00:05:5E,-41.23181915283203,-53.12160873413086,142.45338439941406,-12.63162612915039,10.002538681030273,-13.652929306030273,2266.2559995651245
D4:22:CD:00:05:5D,163.76905822753906,-67.82218933105469,-86.14434814453125,2.675736904144287,-2.330923080444336,1.9274368286132812,2266.2859995365143
D4:22:CD:00:05:6B,-20.30286979675293,43.78422927856445,45.54283905029297,10.812273025512695,5.791298866271973,-21.702133178710938,2266.2859995365143
D4:22:CD:00:49:AA,-129.89907836914062,-80.90357208251953,72.36669921875,-0.2464359998703003,0.7715072631835938,1.4979238510131836,2266.2859995365143
D4:22:CD:00:05:6E,-82.20442962646484,-50.20810317993164,-39.73304748535156,10.207107543945312,-3.099050998687744,-5.678499221801758,2266.2859995365143
D4:22:CD:00:05:5E,-51.51925277709961,-57.98095703125,148.40676879882812,-7.483651161193848,25.5872802734375,-16.190200805664062,2266.2859995365143
D4:22:CD:00:05:5D,162.32359313964844,-65.48841857910156,-82.32252502441406,1.2426939010620117,-0.19492340087890625,3.016458511352539,2266.316013097763
D4:22:CD:00:05:6B,-24.568767547607422,41.97367858886719,39.602020263671875,-18.331127166748047,0.07545280456542969,-6.907899856567383,2266.316013097763
D4:22:CD:00:49:AA,-131.09971618652344,-81.26898193359375,73.09713745117188,-2.066816806793213,-0.14037886261940002,2.8885793685913086,2266.316013097763
D4:22:CD:00:05:6E,-81.46405792236328,-49.77406311035156,-39.292720794677734,16.054393768310547,-4.672754287719727,-4.825131416320801,2266.316013097763
D4:22:CD:00:05:5E,-54.429718017578125,-61.18052673339844,154.09747314453125,-0.791028618812561,-3.787339210510254,3.9027843475341797,2266.316013097763
D4:22:CD:00:05:5D,158.84957885742188,-64.00263977050781,-78.72858428955078,-0.35171371698379517,-0.571440577507019,4.241086959838867,2266.3765325546265
D4:22:CD:00:05:6B,-41.90497970581055,46.51332092285156,51.047550201416016,3.722599983215332,-6.794123649597168,-6.384495735168457,2266.3765325546265
D4:22:CD:00:49:AA,-138.40005493164062,-81.51930236816406,78.90691375732422,-0.5109134912490845,-1.1456108093261719,4.010095596313477,2266.3765325546265
D4:22:CD:00:05:6E,-86.03556823730469,-50.84743118286133,-38.84641647338867,13.005462646484375,-4.764086723327637,-2.776960849761963,2266.3765325546265
D4:22:CD:00:05:5E,-51.600746154785156,-64.82038116455078,154.39991760253906,-16.67202377319336,-5.942167282104492,7.010457992553711,2266.3765325546265
D4:22:CD:00:05:5D,154.44825744628906,-63.5061149597168,-74.1928939819336,-1.6578929424285889,-0.7674920558929443,5.891773223876953,2266.406539440155
D4:22:CD:00:05:6B,-48.012001037597656,52.083072662353516,64.03689575195312,10.106929779052734,1.3362367153167725,-4.065428733825684,2266.406539440155
D4:22:CD:00:49:AA,-141.35067749023438,-81.8714370727539,80.64824676513672,-2.8848652839660645,-1.46160888671875,5.134922027587891,2266.406539440155
D4:22:CD:00:05:6E,-92.42427062988281,-53.21986389160156,-38.491641998291016,7.92149543762207,-4.610141754150391,2.595479965209961,2266.406539440155
D4:22:CD:00:05:5E,-67.0992431640625,-67.28917694091797,164.9569854736328,-2.064089775085449,0.9985798597335815,10.030279159545898,2266.406539440155
D4:22:CD:00:05:5D,148.61602783203125,-63.60161590576172,-69.02784729003906,-0.9349987506866455,0.5041240453720093,4.473875045776367,2266.4360978603363
D4:22:CD:00:05:6B,-40.874507904052734,56.0888671875,80.70533752441406,6.633387565612793,1.7855513095855713,-8.013578414916992,2266.4360978603363
D4:22:CD:00:49:AA,-144.68592834472656,-82.15943145751953,82.90823364257812,-0.0423177033662796,-1.5789999961853027,4.328160285949707,2266.4360978603363
D4:22:CD:00:05:6E,-98.4756851196289,-56.68593215942383,-37.564876556396484,7.70772647857666,-3.2099156379699707,3.1980180740356445,2266.4360978603363
D4:22:CD:00:05:5E,-77.78179931640625,-69.32254028320312,173.31431579589844,2.398466110229492,5.369157791137695,-3.2107982635498047,2266.4360978603363
D4:22:CD:00:05:5D,140.34524536132812,-64.23185729980469,-63.68013381958008,3.918576717376709,-5.186342239379883,3.822676658630371,2266.4661827087402
D4:22:CD:00:05:6B,-29.858123779296875,55.36570739746094,104.90300750732422,9.952001571655273,5.273297309875488,-6.213325500488281,2266.4661827087402
D4:22:CD:00:49:AA,-147.70880126953125,-81.45891571044922,83.75064849853516,4.497849464416504,-3.431332588195801,1.4382257461547852,2266.4661827087402
D4:22:CD:00:05:6E,-103.66753387451172,-60.76279830932617,-36.376827239990234,1.3041670322418213,-0.1250700056552887,1.7054109573364258,2266.4661827087402
D4:22:CD:00:05:5E,-78.40164184570312,-71.89463806152344,174.75888061523438,-8.440557479858398,3.815751552581787,-0.7435302734375,2266.4661827087402
D4:22:CD:00:05:5D,132.71885681152344,-64.10123443603516,-63.67040252685547,9.032968521118164,-4.344228744506836,3.939284324645996,2266.4961829185486
D4:22:CD:00:05:6B,-17.709684371948242,48.34933090209961,124.53388214111328,7.0883331298828125,2.592954158782959,-2.0737295150756836,2266.4961829185486
D4:22:CD:00:49:AA,-146.9734344482422,-79.66252899169922,81.13981628417969,8.069269180297852,2.493563652038574,-2.6828970909118652,2266.4961829185486
D4:22:CD:00:05:6E,-108.65013122558594,-63.976402282714844,-34.950340270996094,-0.0574466809630394,-2.0700974464416504,-0.6611242294311523,2266.4961829185486
D4:22:CD:00:05:5E,-80.00360870361328,-74.01146697998047,176.4368133544922,-3.9967565536499023,3.7069010734558105,-1.5761947631835938,2266.4961829185486
D4:22:CD:00:05:5D,133.78895568847656,-60.736106872558594,-74.5699462890625,20.553985595703125,13.031991958618164,11.233592987060547,2266.526726961136
D4:22:CD:00:05:6B,-8.405850410461426,38.39590072631836,138.138671875,6.961470603942871,0.32876062393188477,3.763129234313965,2266.526726961136
D4:22:CD:00:49:AA,-151.8376007080078,-78.13705444335938,81.4477310180664,11.541641235351562,2.3534069061279297,-3.3424229621887207,2266.526726961136
D4:22:CD:00:05:6E,-112.49871826171875,-65.93418884277344,-34.93277359008789,-3.1570634841918945,-1.34657883644104,1.6729211807250977,2266.526726961136
D4:22:CD:00:05:5E,-82.35667419433594,-75.45236206054688,178.12327575683594,-4.997035980224609,3.850059986114502,-2.174055576324463,2266.526726961136
D4:22:CD:00:05:5D,144.96142578125,-51.59900665283203,-89.87066650390625,20.639019012451172,6.7672929763793945,9.433330535888672,2266.5567276477814
D4:22:CD:00:05:6B,2.7865941524505615,26.71196937561035,150.03656005859375,4.965742111206055,-5.646843910217285,-5.728071212768555,2266.5567276477814
D4:22:CD:00:49:AA,-155.46522521972656,-77.1988754272461,79.97398376464844,1.2205696105957031,-3.0859994888305664,1.1916437149047852,2266.5567276477814
D4:22:CD:00:05:6E,-110.35873413085938,-66.9837646484375,-37.0539665222168,-5.011441230773926,-2.4258995056152344,2.5736637115478516,2266.5567276477814
D4:22:CD:00:05:5E,-83.16253662109375,-76.24478149414062,178.62770080566406,-5.098706245422363,3.3918676376342773,-1.4219913482666016,2266.5567276477814
D4:22:CD:00:05:5D,153.9774627685547,-40.453914642333984,-104.15514373779297,8.691865921020508,-1.4134080410003662,2.6314687728881836,2266.5867190361023
D4:22:CD:00:05:6B,3.064297676086426,12.198047637939453,162.7618865966797,-9.959474563598633,-18.664222717285156,-4.833989143371582,2266.5867190361023
D4:22:CD:00:49:AA,-154.32310485839844,-76.45816802978516,78.17700958251953,-2.6807732582092285,2.545100212097168,2.5154361724853516,2266.5867190361023
D4:22:CD:00:05:6E,-105.63228607177734,-67.7783432006836,-38.596099853515625,-3.2665319442749023,-4.48362922668457,0.9780340194702148,2266.5867190361023
D4:22:CD:00:05:5E,-84.5535659790039,-76.56904602050781,179.26852416992188,-4.068669319152832,3.1647796630859375,-2.065436363220215,2266.5867190361023
D4:22:CD:00:05:5D,160.01333618164062,-28.931121826171875,-115.82852172851562,-0.8778940439224243,-2.211909770965576,-7.830829620361328,2266.616743326187
D4:22:CD:00:05:6B,-16.88348960876465,-2.992199182510376,175.42970275878906,-5.804643630981445,7.746213912963867,-9.225427627563477,2266.616743326187
D4:22:CD:00:49:AA,-154.88084411621094,-75.06060028076172,78.39385986328125,4.217442512512207,2.100543975830078,0.8847579956054688,2266.616743326187
D4:22:CD:00:05:6E,-103.73372650146484,-68.523681640625,-37.461246490478516,0.00551244430243969,-4.053987503051758,0.8469820022583008,2266.616743326187
D4:22:CD:00:05:5E,-87.44672393798828,-76.88134765625,-178.68783569335938,-3.3976054191589355,2.913160800933838,-1.1653194427490234,2266.616743326187
D4:22:CD:00:05:5D,164.7359619140625,-18.541412353515625,-123.74927520751953,-6.580718040466309,0.9739135503768921,-14.475515365600586,2266.6765429973602
D4:22:CD:00:05:6B,-25.311500549316406,-14.780941009521484,-173.1891326904297,-6.751138687133789,12.392210006713867,8.087013244628906,2266.6765429973602
D4:22:CD:00:49:AA,-154.1514434814453,-74.78069305419922,77.45453643798828,3.7635011672973633,2.930978775024414,-0.2501354217529297,2266.6765429973602
D4:22:CD:00:05:6E,-103.10108184814453,-69.33881378173828,-35.06548309326172,1.8836252689361572,-2.630436897277832,-1.1329946517944336,2266.6765429973602
D4:22:CD:00:05:5E,-90.68683624267578,-77.08427429199219,-175.1533966064453,-4.286798477172852,2.4688591957092285,-2.1888790130615234,2266.6765429973602
D4:22:CD:00:05:5D,170.23025512695312,-10.606226921081543,-128.93699645996094,-5.196107864379883,3.134282112121582,-16.496280670166016,2266.7066566944122
D4:22:CD:00:05:6B,-28.410009384155273,-22.360923767089844,-164.95315551757812,-3.3779540061950684,-6.147043228149414,1.0186405181884766,2266.7066566944122
D4:22:CD:00:49:AA,-154.055419921875,-75.08458709716797,76.8777084350586,0.36945998668670654,2.8335156440734863,-1.9050559997558594,2266.7066566944122
D4:22:CD:00:05:6E,-102.71092224121094,-70.32218170166016,-32.419071197509766,2.336421489715576,-1.5404701232910156,-3.5219645500183105,2266.7066566944122
D4:22:CD:00:05:5E,-95.7325439453125,-76.81756591796875,-169.37094116210938,-4.961971282958984,2.780367374420166,-2.4855098724365234,2266.7066566944122
D4:22:CD:00:05:5D,174.5287322998047,-6.414203643798828,-133.04994201660156,-8.041492462158203,5.059319496154785,-15.489992141723633,2266.736210346222
D4:22:CD:00:05:6B,-32.84000778198242,-27.97813606262207,-161.6578826904297,-2.2292094230651855,-0.32482969760894775,1.3403587341308594,2266.736210346222
D4:22:CD:00:49:AA,-154.59898376464844,-75.70280456542969,77.4287338256836,1.0821928977966309,2.074838161468506,-1.9121246337890625,2266.736210346222
D4:22:CD:00:05:6E,-103.04696655273438,-71.3577651977539,-29.42596435546875,4.1104631423950195,-1.5861728191375732,-3.9064035415649414,2266.736210346222
D4:22:CD:00:05:5E,-102.84093475341797,-75.89146423339844,-161.5063018798828,-3.6188058853149414,2.3955273628234863,-1.8419504165649414,2266.736210346222
D4:22:CD:00:05:5D,172.5098876953125,-7.440004825592041,-137.02279663085938,-8.765008926391602,2.7397303581237793,-13.920629501342773,2266.766209125519
D4:22:CD:00:05:6B,-31.71564292907715,-33.604183197021484,-163.18284606933594,-2.209660530090332,-4.171401023864746,-1.7907371520996094,2266.766209125519
D4:22:CD:00:49:AA,-155.68728637695312,-76.64189147949219,79.03498840332031,2.8503756523132324,2.178323745727539,-2.224432945251465,2266.766209125519
D4:22:CD:00:05:6E,-104.33325958251953,-72.11854553222656,-26.85124397277832,7.47946834564209,-3.6374874114990234,-2.5327000617980957,2266.766209125519
D4:22:CD:00:05:5E,-110.27059936523438,-74.56112670898438,-153.2836456298828,-3.5479907989501953,2.7215771675109863,-0.7293529510498047,2266.766209125519
D4:22:CD:00:05:5D,167.396484375,-13.757490158081055,-140.0886688232422,-11.937480926513672,-1.356391191482544,-12.508378982543945,2266.79621052742
D4:22:CD:00:05:6B,-31.205549240112305,-41.457942962646484,-169.5632781982422,-11.241182327270508,-5.768980979919434,-2.692997455596924,2266.79621052742
D4:22:CD:00:49:AA,-156.11192321777344,-78.08441925048828,79.56597137451172,2.072218418121338,1.0025486946105957,-2.855978012084961,2266.79621052742
D4:22:CD:00:05:6E,-105.59426879882812,-73.09664154052734,-26.306001663208008,8.822122573852539,-3.0194106101989746,-1.664280891418457,2266.79621052742
D4:22:CD:00:05:5E,-117.185791015625,-72.97029113769531,-145.86297607421875,-3.744913101196289,3.9574875831604004,-2.0864644050598145,2266.79621052742
D4:22:CD:00:05:5D,165.36021423339844,-23.200969696044922,-142.05442810058594,-13.686717987060547,-5.531785011291504,10.911619186401367,2266.825755596161
D4:22:CD:00:05:6B,-31.18020248413086,-54.47100067138672,179.53244018554688,-23.994525909423828,2.541295051574707,20.28095245361328,2266.825755596161
D4:22:CD:00:49:AA,-158.0233917236328,-79.47400665283203,81.44483184814453,2.5008625984191895,-0.42446309328079224,-3.568452835083008,2266.825755596161
D4:22:CD:00:05:6E,-107.55480194091797,-76.07884979248047,-26.58218002319336,8.068031311035156,-4.829861640930176,-2.8890204429626465,2266.825755596161
D4:22:CD:00:05:5E,-123.14485931396484,-71.37109375,-140.23724365234375,-4.130753517150879,4.537624359130859,-0.8589296340942383,2266.825755596161
D4:22:CD:00:05:5D,169.95216369628906,-23.115184783935547,-138.93138122558594,-32.213722229003906,-4.58354377746582,29.200607299804688,2266.856753587723
D4:22:CD:00:05:6B,-23.2354736328125,-62.66798400878906,164.46417236328125,-7.2218828201293945,-6.52280330657959,31.19792938232422,2266.856753587723
D4:22:CD:00:49:AA,-158.2126922607422,-79.71332550048828,81.1765365600586,1.3510417938232422,-1.9447598457336426,0.4197244644165039,2266.856753587723
D4:22:CD:00:05:6E,-106.25984191894531,-82.60118865966797,-28.200185775756836,11.645978927612305,-4.520110130310059,4.23182487487793,2266.856753587723
D4:22:CD:00:05:5E,-126.63187408447266,-70.93175506591797,-136.75125122070312,-2.880352020263672,4.63555908203125,0.1587200164794922,2266.856753587723
D4:22:CD:00:05:5D,168.85877990722656,-14.299236297607422,-132.4015350341797,-13.059370040893555,-12.072347640991211,17.329090118408203,2266.886747598648
D4:22:CD:00:05:6B,-34.42399215698242,-60.32991409301758,167.54408264160156,-14.056171417236328,-8.91374397277832,1.9031038284301758,2266.886747598648
D4:22:CD:00:49:AA,-157.68157958984375,-79.64311218261719,79.43492126464844,2.4705419540405273,-0.9954171180725098,5.699614524841309,2266.886747598648
D4:22:CD:00:05:6E,39.20904541015625,-86.47252655029297,-170.6048583984375,19.288143157958984,-7.061040878295898,14.87672233581543,2266.886747598648
D4:22:CD:00:05:5E,-128.3997344970703,-71.74017333984375,-135.05783081054688,-3.8620033264160156,4.658079147338867,-0.4354209899902344,2266.886747598648
D4:22:CD:00:05:5D,163.8018341064453,-3.188778877258301,-129.00201416015625,-14.866939544677734,-14.77947998046875,11.24530029296875,2266.915769815445
D4:22:CD:00:05:6B,-52.72881317138672,-47.621700286865234,176.3990478515625,-18.873214721679688,7.731861114501953,10.488874435424805,2266.915769815445
D4:22:CD:00:49:AA,-160.14346313476562,-79.64018249511719,80.6630859375,-0.4783821105957031,0.5062545537948608,4.84814453125,2266.915769815445
D4:22:CD:00:05:6E,59.71333312988281,-71.10287475585938,174.26947021484375,20.213226318359375,-10.020605087280273,21.779094696044922,2266.915769815445
D4:22:CD:00:05:5E,-126.44410705566406,-74.20671081542969,-136.893798828125,-3.9017930030822754,4.881345748901367,1.0039548873901367,2266.915769815445
D4:22:CD:00:05:5D,159.37286376953125,7.823990345001221,-128.1354217529297,-5.70279598236084,-11.104286193847656,-0.8849916458129883,2266.976303577423
D4:22:CD:00:05:6B,-53.83536911010742,-32.22191619873047,177.59820556640625,-19.741649627685547,6.280546188354492,6.213193893432617,2266.976303577423
D4:22:CD:00:49:AA,-160.31228637695312,-79.86537170410156,80.58195495605469,0.4294796586036682,0.5265178680419922,5.209930419921875,2266.976303577423
D4:22:CD:00:05:6E,66.8446273803711,-51.1688117980957,168.009521484375,15.12369155883789,-3.039897918701172,19.988868713378906,2266.976303577423
D4:22:CD:00:05:5E,-119.07940673828125,-77.69967651367188,-144.8035888671875,-4.986207008361816,6.013924598693848,0.2983541488647461,2266.976303577423
D4:22:CD:00:05:5D,158.48980712890625,15.413959503173828,-129.45692443847656,-0.12161071598529816,-1.4884865283966064,-8.322275161743164,2267.00630402565
D4:22:CD:00:05:6B,-54.754417419433594,-20.277462005615234,173.16610717773438,-12.304878234863281,0.1272573471069336,-1.5601024627685547,2267.00630402565
D4:22:CD:00:49:AA,-164.1183624267578,-79.39824676513672,85.31387329101562,6.496152877807617,2.186245918273926,9.217226028442383,2267.00630402565
D4:22:CD:00:05:6E,71.60749816894531,-30.247541427612305,162.9034881591797,7.069573402404785,2.5470781326293945,12.047788619995117,2267.00630402565
D4:22:CD:00:05:5E,-99.63936614990234,-80.25370025634766,-166.48146057128906,-5.842215538024902,6.968043327331543,1.5674333572387695,2267.00630402565
D4:22:CD:00:05:5D,157.86013793945312,17.324987411499023,-131.98904418945312,1.4339962005615234,4.432988166809082,-13.546211242675781,2267.036865711212
D4:22:CD:00:05:6B,-64.275634765625,-13.83588981628418,167.01333618164062,-0.27527785301208496,6.902732849121094,-4.5020599365234375,2267.036865711212
D4:22:CD:00:49:AA,-171.76710510253906,-78.86231994628906,92.5994873046875,7.073920249938965,3.030850887298584,8.369836807250977,2267.036865711212
D4:22:CD:00:05:6E,74.01051330566406,-10.589245796203613,158.583251953125,1.5197508335113525,-1.4626593589782715,6.143896102905273,2267.036865711212
D4:22:CD:00:05:5E,-60.405818939208984,-79.44769287109375,152.4677276611328,-6.852049827575684,3.294895648956299,9.900825500488281,2267.036865711212
D4:22:CD:00:05:5D,157.33187866210938,12.435709953308105,-134.11398315429688,0.557992696762085,5.125842094421387,-18.823760986328125,2267.0658667087555
D4:22:CD:00:05:6B,-70.81558990478516,-14.495427131652832,161.3910675048828,4.526625633239746,1.7145721912384033,2.373541831970215,2267.0658667087555
D4:22:CD:00:49:AA,-179.63856506347656,-78.27001953125,99.56229400634766,2.446317195892334,0.5983304977416992,5.890596389770508,2267.0658667087555
D4:22:CD:00:05:6E,71.30823516845703,4.878634929656982,153.6951446533203,-2.157416820526123,-3.2316927909851074,-1.0951423645019531,2267.0658667087555
D4:22:CD:00:05:5E,-18.153812408447266,-72.19193267822266,117.95297241210938,-5.64912223815918,9.110342025756836,-3.3813118934631348,2267.0658667087555
D4:22:CD:00:05:5D,156.33358764648438,1.667994499206543,-134.9424285888672,-3.9567418098449707,0.5015226602554321,-21.18075180053711,2267.096168279648
D4:22:CD:00:05:6B,-72.87638092041016,-19.930164337158203,156.88818359375,2.495859146118164,-3.112980842590332,-0.6046657562255859,2267.096168279648
D4:22:CD:00:49:AA,172.61048889160156,-77.29782104492188,106.9823989868164,2.330904960632324,-0.5450834035873413,-0.10339641571044922,2267.096168279648
D4:22:CD:00:05:6E,64.84683227539062,16.0662784576416,148.27725219726562,-1.9857573509216309,-2.0595693588256836,-3.969996929168701,2267.096168279648
D4:22:CD:00:05:5E,-4.040409564971924,-69.62434387207031,111.95330047607422,-5.080744743347168,24.25428009033203,-16.46562957763672,2267.096168279648
D4:22:CD:00:05:5D,154.54026794433594,-12.578132629394531,-134.7938995361328,-7.987593650817871,-3.1549172401428223,-17.92740249633789,2267.1257650852203
D4:22:CD:00:05:6B,-76.43830871582031,-26.85144805908203,153.92160034179688,1.2357521057128906,-2.129469871520996,-4.493043899536133,2267.1257650852203
D4:22:CD:00:49:AA,168.60874938964844,-76.10813903808594,110.66322326660156,2.113772392272949,0.5836416482925415,-7.782421112060547,2267.1257650852203
D4:22:CD:00:05:6E,55.711238861083984,24.658689498901367,143.51710510253906,-3.107419490814209,-4.870387077331543,-7.946371078491211,2267.1257650852203
D4:22:CD:00:05:5E,2.383638381958008,-73.440185546875,112.69294738769531,-7.212315559387207,0.8098974227905273,-8.571647644042969,2267.1257650852203
D4:22:CD:00:05:5D,153.32235717773438,-28.753061294555664,-133.67550659179688,-9.265058517456055,-3.323920249938965,-12.14256477355957,2267.156759262085
D4:22:CD:00:05:6B,-81.99652099609375,-33.180747985839844,152.29461669921875,2.2749390602111816,-1.970935583114624,-6.305635452270508,2267.156759262085
D4:22:CD:00:49:AA,170.6865997314453,-74.51316833496094,108.61917877197266,-1.5546894073486328,0.16164624691009521,-11.512025833129883,2267.156759262085
D4:22:CD:00:05:6E,47.86975860595703,29.75957489013672,140.46778869628906,2.391568660736084,-4.809767723083496,-14.584278106689453,2267.156759262085
D4:22:CD:00:05:5E,-0.6177852153778076,-76.51514434814453,115.61273956298828,6.928289413452148,-15.270137786865234,-8.356245040893555,2267.156759262085
D4:22:CD:00:05:5D,151.51901245117188,-46.17218780517578,-131.45361328125,-8.437971115112305,-0.3965575695037842,-4.607355117797852,2267.1867666244507
D4:22:CD:00:05:6B,-86.6627197265625,-37.98876190185547,151.09385681152344,3.692288875579834,-3.2245025634765625,-6.005842208862305,2267.1867666244507
D4:22:CD:00:49:AA,173.08798217773438,-73.88479614257812,106.92725372314453,-2.600372791290283,0.9037759304046631,-8.390344619750977,2267.1867666244507
D4:22:CD:00:05:6E,47.18383026123047,30.194623947143555,141.9481658935547,-2.7925209999084473,-3.9174509048461914,-14.036741256713867,2267.1867666244507
D4:22:CD:00:05:5E,-2.6545252799987793,-75.19863891601562,114.15873718261719,-7.024324417114258,18.493694305419922,-18.438140869140625,2267.1867666244507
D4:22:CD:00:05:5D,146.20245361328125,-65.16950225830078,-125.87646484375,-3.0320701599121094,-4.579072952270508,12.726816177368164,2267.2167727947235
D4:22:CD:00:05:6B,-88.19277954101562,-41.55764389038086,149.8021697998047,3.0653786659240723,-3.5311994552612305,-6.440640449523926,2267.2167727947235
D4:22:CD:00:49:AA,173.37957763671875,-74.73895263671875,107.06836700439453,-0.8462448120117188,1.993927001953125,-7.600725173950195,2267.2167727947235
D4:22:CD:00:05:6E,46.782779693603516,27.887798309326172,147.67816162109375,-9.490293502807617,-5.030820846557617,-10.651411056518555,2267.2167727947235
D4:22:CD:00:05:5E,-8.015366554260254,-76.35008239746094,115.45468139648438,-7.333761215209961,-5.839992523193359,-4.791984558105469,2267.2167727947235
D4:22:CD:00:05:5D,105.41832733154297,-83.12813568115234,-77.91039276123047,8.81962776184082,-5.323189735412598,30.449546813964844,2267.2764019966125
D4:22:CD:00:05:6B,-87.81282806396484,-44.149105072021484,148.44207763671875,1.5032503604888916,-4.2906904220581055,-6.682307243347168,2267.2764019966125
D4:22:CD:00:49:AA,171.06422424316406,-76.05226135253906,109.32666015625,1.9133527278900146,2.234835624694824,-9.82429313659668,2267.2764019966125
D4:22:CD:00:05:6E,42.663177490234375,23.795639038085938,156.66624450683594,-8.048015594482422,-0.5696260929107666,-14.390430450439453,2267.2764019966125
D4:22:CD:00:05:5E,-16.786296844482422,-78.35782623291016,122.51893615722656,-3.45559024810791,-1.6209163665771484,2.217757225036621,2267.2764019966125
D4:22:CD:00:05:5D,27.907779693603516,-77.0124740600586,11.742629051208496,23.834667205810547,17.902999877929688,-0.16249656677246094,2267.3065757751465
D4:22:CD:00:05:6B,-87.87411499023438,-45.44610595703125,146.62884521484375,0.7264761924743652,-4.125997543334961,-6.243579864501953,2267.3065757751465
D4:22:CD:00:49:AA,167.68753051757812,-76.08139038085938,111.9716567993164,0.8829944133758545,-1.6987879276275635,-6.570119857788086,2267.3065757751465
D4:22:CD:00:05:6E,38.15406799316406,19.057689666748047,167.35586547851562,-17.477149963378906,-1.3878281116485596,-11.084831237792969,2267.3065757751465
D4:22:CD:00:05:5E,-42.27922821044922,-80.6131820678711,143.96693420410156,-4.138128280639648,-0.06504540145397186,3.443243980407715,2267.3065757751465
D4:22:CD:00:05:5D,25.317087173461914,-75.68514251708984,11.861072540283203,15.790210723876953,4.5382843017578125,-7.784217834472656,2267.3361229896545
D4:22:CD:00:05:6B,-87.67892456054688,-46.52821731567383,145.31442260742188,-0.0358583927154541,-5.049958229064941,-4.49995231628418,2267.3361229896545
D4:22:CD:00:49:AA,173.63455200195312,-75.53502655029297,109.10317993164062,0.48349064588546753,-7.768056869506836,2.1565446853637695,2267.3361229896545
D4:22:CD:00:05:6E,30.589426040649414,17.655086517333984,174.2840118408203,-0.30115288496017456,-5.263960838317871,-11.053630828857422,2267.3361229896545
D4:22:CD:00:05:5E,-64.86055755615234,-80.67081451416016,165.4417266845703,-5.71219539642334,2.8926448822021484,4.325172424316406,2267.3361229896545
D4:22:CD:00:05:5D,54.3066291809082,-78.57089233398438,-15.1657133102417,9.979148864746094,3.249875545501709,-3.85483980178833,2267.366123199463
D4:22:CD:00:05:6B,-87.02840423583984,-47.52522277832031,145.15872192382812,-2.0662193298339844,-5.443528175354004,-2.012885093688965,2267.366123199463
D4:22:CD:00:49:AA,-179.94747924804688,-75.36425018310547,106.55953216552734,6.464494705200195,1.5079107284545898,5.743725776672363,2267.366123199463
D4:22:CD:00:05:6E,24.21440315246582,17.568275451660156,170.02877807617188,6.6760711669921875,11.314973831176758,-5.847123146057129,2267.366123199463
D4:22:CD:00:05:5E,-67.79458618164062,-79.45928955078125,170.21275329589844,-0.14708366990089417,9.251638412475586,-0.29360294342041016,2267.366123199463
D4:22:CD:00:05:5D,101.69017791748047,-77.23455810546875,-54.724769592285156,7.746294975280762,-0.43304359912872314,9.77132797241211,2267.3961226940155
D4:22:CD:00:05:6B,-86.39215850830078,-47.85859680175781,146.69515991210938,-2.3630552291870117,-5.138888359069824,1.5685815811157227,2267.3961226940155
D4:22:CD:00:49:AA,175.69590759277344,-75.43114471435547,109.90089416503906,3.900778293609619,3.6094908714294434,3.9788684844970703,2267.3961226940155
D4:22:CD:00:05:6E,26.020423889160156,18.817005157470703,160.0923614501953,-5.49074649810791,-7.673287391662598,-2.3148927688598633,2267.3961226940155
D4:22:CD:00:05:5E,-63.54533004760742,-77.27474212646484,165.5699920654297,-7.6963396072387695,4.550287246704102,1.8008804321289062,2267.3961226940155
D4:22:CD:00:05:5D,121.13992309570312,-74.79386138916016,-72.21495056152344,-5.63871955871582,-5.7410993576049805,5.795407295227051,2267.426680088043
D4:22:CD:00:05:6B,-84.25807189941406,-48.45473861694336,149.289794921875,-5.083745002746582,-3.445979118347168,4.780673027038574,2267.426680088043
D4:22:CD:00:49:AA,177.69430541992188,-74.88343048095703,107.73707580566406,6.4770612716674805,2.6668286323547363,5.146727561950684,2267.426680088043
D4:22:CD:00:05:6E,19.112581253051758,22.14419174194336,146.94244384765625,-12.924053192138672,7.321256637573242,-6.650875091552734,2267.426680088043
D4:22:CD:00:05:5E,-58.58599090576172,-74.4112777709961,159.93133544921875,-4.62025260925293,4.265469551086426,6.887020111083984,2267.426680088043
D4:22:CD:00:05:5D,130.5975799560547,-74.64826202392578,-83.87004089355469,5.447338104248047,-11.901559829711914,2.546100616455078,2267.4568343162537
D4:22:CD:00:05:6B,-81.06930541992188,-49.99774169921875,152.73582458496094,-5.618626594543457,-3.2063474655151367,8.153104782104492,2267.4568343162537
D4:22:CD:00:49:AA,-179.83908081054688,-74.97145080566406,105.94489288330078,6.633211135864258,2.3018078804016113,6.59874153137207,2267.4568343162537
D4:22:CD:00:05:6E,17.95964813232422,27.12811279296875,130.64208984375,-8.900848388671875,9.937236785888672,-7.868749618530273,2267.4568343162537
D4:22:CD:00:05:5E,-54.107906341552734,-70.90426635742188,154.98361206054688,-8.086585998535156,-1.4055278301239014,7.740827560424805,2267.4568343162537
D4:22:CD:00:05:5D,141.83721923828125,-74.5390625,-95.54739379882812,-10.874574661254883,2.9088687896728516,8.822208404541016,2267.48583483696
D4:22:CD:00:05:6B,-78.13646697998047,-51.443946838378906,156.62791442871094,-6.128271102905273,-1.3499433994293213,6.759311676025391,2267.48583483696
D4:22:CD:00:49:AA,-176.5987091064453,-74.39496612548828,102.61178588867188,1.657167673110962,-0.6895177364349365,1.1409854888916016,2267.48583483696
D4:22:CD:00:05:6E,18.24966049194336,31.086885452270508,114.36676025390625,-3.392120361328125,0.463031530380249,-5.380815505981445,2267.48583483696
D4:22:CD:00:05:5E,-48.33768081665039,-67.60035705566406,152.1386260986328,-9.542417526245117,2.008352756500244,0.4449348449707031,2267.48583483696
D4:22:CD:00:05:5D,153.03778076171875,-73.34330749511719,-102.5831069946289,-1.2289962768554688,0.36909520626068115,-2.8734302520751953,2267.515853881836
D4:22:CD:00:05:6B,-78.88567352294922,-52.02499771118164,161.44512939453125,-5.696963310241699,0.20334076881408691,3.637117385864258,2267.515853881836
D4:22:CD:00:49:AA,-174.60272216796875,-72.73567199707031,101.34950256347656,-1.8610508441925049,-2.6412577629089355,-1.743647575378418,2267.515853881836
D4:22:CD:00:05:6E,18.970548629760742,33.3332405090332,100.505126953125,9.044607162475586,-0.712984561920166,-6.659513473510742,2267.515853881836
D4:22:CD:00:05:5E,-48.67079162597656,-67.56275177001953,159.97251892089844,-19.731056213378906,32.75659942626953,-8.335058212280273,2267.515853881836
D4:22:CD:00:05:5D,164.8492431640625,-72.39627838134766,-109.03929138183594,-2.88210391998291,1.6545584201812744,2.2385501861572266,2267.606632232666
D4:22:CD:00:05:6B,-82.86814880371094,-51.35378646850586,166.43992614746094,-4.1546173095703125,1.6094427108764648,0.2151327133178711,2267.606632232666
D4:22:CD:00:49:AA,-173.53713989257812,-70.375732421875,102.46502685546875,-7.0768938064575195,-0.7091795206069946,-2.8000054359436035,2267.606632232666
D4:22:CD:00:05:6E,26.106775283813477,35.07475280761719,89.44598388671875,8.22420883178711,-10.92691421508789,-4.105111122131348,2267.606632232666
D4:22:CD:00:05:5E,-70.00382232666016,-70.53180694580078,-174.134033203125,-19.609691619873047,13.755678176879883,-7.1971435546875,2267.606632232666
D4:22:CD:00:05:5D,173.03567504882812,-70.95851135253906,-116.72543334960938,0.11837513744831085,-2.462064266204834,0.12642955780029297,2267.609633922577
D4:22:CD:00:05:6B,-86.95684814453125,-49.85746383666992,170.48739624023438,-2.1228890419006348,3.207523822784424,-2.8140530586242676,2267.609633922577
D4:22:CD:00:49:AA,-171.4576873779297,-68.89047241210938,104.46701049804688,-5.01912784576416,1.990067958831787,-3.540055274963379,2267.609633922577
D4:22:CD:00:05:6E,40.410621643066406,35.970863342285156,82.78601837158203,18.21896743774414,-16.128997802734375,-4.947882652282715,2267.609633922577
D4:22:CD:00:05:5E,-101.97577667236328,-70.51327514648438,-139.55052185058594,-9.30621337890625,2.6896142959594727,-8.063531875610352,2267.609633922577
D4:22:CD:00:05:5D,179.24703979492188,-69.74691772460938,-123.09708404541016,1.8865923881530762,-0.7539167404174805,0.44340991973876953,2267.636183977127
D4:22:CD:00:05:6B,-90.2353515625,-48.86167526245117,173.555908203125,-0.18440645933151245,1.4230749607086182,-2.9337897300720215,2267.636183977127
D4:22:CD:00:49:AA,-173.28677368164062,-67.80867004394531,107.39420318603516,2.0685367584228516,3.120595932006836,0.5354042053222656,2267.636183977127
D4:22:CD:00:05:6E,64.83585357666016,33.993736267089844,81.90508270263672,1.2517926692962646,-16.397258758544922,-5.508819580078125,2267.636183977127
D4:22:CD:00:05:5E,-125.95218658447266,-67.20298767089844,-112.65560150146484,-1.940845251083374,-1.4715602397918701,-11.880382537841797,2267.636183977127
D4:22:CD:00:05:5D,-176.74864196777344,-69.11933135986328,-127.291748046875,0.4592666029930115,-0.45084160566329956,0.8042640686035156,2267.666184425354
D4:22:CD:00:05:6B,-92.64485168457031,-49.86764144897461,174.75283813476562,1.9281976222991943,-1.3523826599121094,0.046535491943359375,2267.666184425354
D4:22:CD:00:49:AA,-175.84164428710938,-66.42485809326172,108.94010162353516,-1.125183343887329,1.3384907245635986,3.117673873901367,2267.666184425354
D4:22:CD:00:05:6E,81.74744415283203,27.50221824645996,81.43489074707031,-5.178525924682617,0.8236751556396484,12.283275604248047,2267.666184425354
D4:22:CD:00:05:5E,-140.07003784179688,-63.19197463989258,-95.34833526611328,2.914674758911133,0.31596148014068604,-11.699827194213867,2267.666184425354
D4:22:CD:00:05:5D,-173.491943359375,-69.08610534667969,-130.80755615234375,-2.0121121406555176,1.4162495136260986,0.5950069427490234,2267.696183204651
D4:22:CD:00:05:6B,-92.1113052368164,-51.880741119384766,172.97952270507812,3.2218146324157715,-1.6946539878845215,3.5647192001342773,2267.696183204651
D4:22:CD:00:49:AA,-178.14877319335938,-65.90179443359375,111.36443328857422,-5.192651748657227,0.9847378730773926,0.25580596923828125,2267.696183204651
D4:22:CD:00:05:6E,89.13397216796875,20.84602165222168,76.66252899169922,11.006261825561523,-5.073668479919434,0.15396690368652344,2267.696183204651
D4:22:CD:00:05:5E,-148.64556884765625,-59.708885192871094,-84.5711669921875,2.5464816093444824,0.5934597253799438,-11.740066528320312,2267.696183204651
D4:22:CD:00:05:5D,-169.771484375,-69.29852294921875,-135.6385955810547,-2.264101982116699,0.6220430135726929,-0.09892654418945312,2267.7257289886475
D4:22:CD:00:05:6B,-90.59823608398438,-52.810062408447266,169.54554748535156,2.7403879165649414,-0.8958479166030884,1.5991249084472656,2267.7257289886475
D4:22:CD:00:49:AA,177.9493408203125,-65.45305633544922,114.91704559326172,-2.272663116455078,1.22049880027771,-1.0568733215332031,2267.7257289886475
D4:22:CD:00:05:6E,99.0711669921875,13.947640419006348,69.12471008300781,4.770058631896973,2.5340185165405273,5.320223808288574,2267.7257289886475
D4:22:CD:00:05:5E,-158.02685546875,-57.13685607910156,-76.3715591430664,-1.1500368118286133,0.3914138078689575,-9.126739501953125,2267.7257289886475
D4:22:CD:00:05:5D,-166.22738647460938,-69.01689147949219,-140.50289916992188,-1.2700014114379883,-1.0897870063781738,-0.7144584655761719,2267.756728410721
D4:22:CD:00:05:6B,-88.47828674316406,-52.851593017578125,165.09268188476562,1.591306209564209,-1.1459927558898926,-0.030786514282226562,2267.756728410721
D4:22:CD:00:49:AA,173.65805053710938,-65.08329010009766,118.80982971191406,-0.5326478481292725,1.054572582244873,-0.6583013534545898,2267.756728410721
D4:22:CD:00:05:6E,99.95051574707031,8.668886184692383,58.10013198852539,12.148099899291992,6.436410903930664,9.945173263549805,2267.756728410721
D4:22:CD:00:05:5E,-168.1051788330078,-56.52469253540039,-69.3873519897461,2.0792675018310547,0.25902843475341797,-3.6099047660827637,2267.756728410721
D4:22:CD:00:05:5D,-164.5970916748047,-67.86492156982422,-143.1839141845703,-0.3042064905166626,-1.756052017211914,-0.4009571075439453,2267.7867283821106
D4:22:CD:00:05:6B,-84.58491516113281,-53.0587043762207,159.41567993164062,-0.44989264011383057,-0.09512649476528168,-2.9587221145629883,2267.7867283821106
D4:22:CD:00:49:AA,168.46664428710938,-65.06146240234375,122.58541107177734,-1.8838958740234375,1.6201424598693848,-1.0434865951538086,2267.7867283821106
D4:22:CD:00:05:6E,96.6661605834961,3.5057291984558105,47.20756912231445,15.289922714233398,0.3311433792114258,-5.053274154663086,2267.7867283821106
D4:22:CD:00:05:5E,-175.06077575683594,-59.25286865234375,-63.03146743774414,2.721442222595215,-0.758126974105835,-0.8087682723999023,2267.7867283821106
D4:22:CD:00:05:5D,-165.6049041748047,-66.21912384033203,-142.81094360351562,-0.06764574348926544,-1.943751573562622,-0.330535888671875,2267.816742658615
D4:22:CD:00:05:6B,-81.48721313476562,-53.38737869262695,152.8155059814453,-1.2945582866668701,0.6519097089767456,-3.933398723602295,2267.816742658615
D4:22:CD:00:49:AA,164.6156768798828,-65.23313903808594,125.20135498046875,-2.0550003051757812,1.0015206336975098,0.29261112213134766,2267.816742658615
D4:22:CD:00:05:6E,91.79560089111328,-4.446716785430908,38.651912689208984,10.409282684326172,2.2860398292541504,-2.633237838745117,2267.816742658615
D4:22:CD:00:05:5E,-178.86495971679688,-65.50297546386719,-56.28373336791992,8.519874572753906,-4.711146354675293,0.8131704330444336,2267.816742658615
D4:22:CD:00:05:5D,-167.56166076660156,-64.02896881103516,-140.10154724121094,0.621408224105835,-1.1897971630096436,-0.5819330215454102,2267.876279115677
D4:22:CD:00:05:6B,-79.96894073486328,-53.685279846191406,145.33924865722656,-0.803289532661438,-0.14320218563079834,-2.79323148727417,2267.876279115677
D4:22:CD:00:49:AA,161.66116333007812,-66.29177856445312,127.600341796875,-1.430325984954834,1.3216350078582764,-0.7411880493164062,2267.876279115677
D4:22:CD:00:05:6E,83.01516723632812,-17.630910873413086,32.555728912353516,14.618528366088867,1.0565831661224365,-10.243062973022461,2267.876279115677
D4:22:CD:00:05:5E,-177.85775756835938,-71.93843078613281,-48.39528274536133,-21.77892303466797,34.703086853027344,29.114852905273438,2267.876279115677
D4:22:CD:00:05:5D,-170.5181121826172,-61.76533126831055,-136.75491333007812,-1.5585200786590576,-0.7167634963989258,0.8842735290527344,2267.906278371811
D4:22:CD:00:05:6B,-79.13617706298828,-53.53670883178711,136.62960815429688,-1.246056079864502,-1.9402239322662354,-1.9233789443969727,2267.906278371811
D4:22:CD:00:49:AA,157.93862915039062,-67.58718872070312,130.4976043701172,-2.098728656768799,1.153784990310669,-0.525456428527832,2267.906278371811
D4:22:CD:00:05:6E,76.593505859375,-33.757774353027344,31.67494773864746,24.202720642089844,2.6535730361938477,5.959464073181152,2267.906278371811
D4:22:CD:00:05:5E,-178.87356567382812,-72.90460968017578,-48.08353805541992,3.873345375061035,-10.112997055053711,-2.408456325531006,2267.906278371811
D4:22:CD:00:05:5D,-174.23121643066406,-59.27223205566406,-132.85067749023438,-2.444972038269043,0.8070963621139526,-0.8057069778442383,2267.935819864273
D4:22:CD:00:05:6B,-80.421630859375,-52.01067352294922,127.94273376464844,-0.20355331897735596,-3.6124796867370605,-0.9830894470214844,2267.935819864273
D4:22:CD:00:49:AA,153.4971923828125,-68.81620025634766,134.49620056152344,-2.5463719367980957,-0.2545278072357178,-1.9277677536010742,2267.935819864273
D4:22:CD:00:05:6E,72.55699920654297,-46.28609848022461,37.392757415771484,18.891864776611328,7.469071388244629,9.079113006591797,2267.935819864273
D4:22:CD:00:05:5E,177.46896362304688,-72.6244888305664,-52.14036178588867,-2.060059070587158,-5.286231994628906,6.74702262878418,2267.935819864273
D4:22:CD:00:05:5D,-176.94091796875,-56.3438720703125,-128.40281677246094,-1.5100643634796143,0.6827782392501831,-0.03485107421875,2267.9659056663513
D4:22:CD:00:05:6B,-82.46302032470703,-47.91788101196289,121.13646697998047,0.0916438102722168,-8.22610855102539,2.345047950744629,2267.9659056663513
D4:22:CD:00:49:AA,149.27903747558594,-70.06092071533203,139.17286682128906,-4.330160140991211,-0.3783910870552063,-1.6953582763671875,2267.9659056663513
D4:22:CD:00:05:6E,73.31411743164062,-49.76911544799805,42.93095397949219,10.29256820678711,5.885739326477051,1.0373401641845703,2267.9659056663513
D4:22:CD:00:05:5E,178.4213104248047,-70.96820068359375,-58.54695510864258,8.7913818359375,-4.001041412353516,11.486780166625977,2267.9659056663513
D4:22:CD:00:05:5D,-178.237060546875,-53.75453186035156,-124.0631332397461,2.2717952728271484,-1.3243272304534912,-0.5295467376708984,2267.9959955215454
D4:22:CD:00:05:6B,-89.7039566040039,-38.04295349121094,118.02365112304688,-1.0204181671142578,-13.033163070678711,8.755332946777344,2267.9959955215454
D4:22:CD:00:49:AA,147.40504455566406,-71.41893768310547,142.66378784179688,-1.2263779640197754,-0.75920569896698,2.033102035522461,2267.9959955215454
D4:22:CD:00:05:6E,78.6528549194336,-46.346126556396484,47.51698303222656,5.826419830322266,12.772314071655273,5.957394599914551,2267.9959955215454
D4:22:CD:00:05:5E,-171.90264892578125,-70.54181671142578,-61.17198181152344,-5.769447326660156,-12.845888137817383,10.431896209716797,2267.9959955215454
D4:22:CD:00:05:5D,-178.59974670410156,-51.90367889404297,-121.67945098876953,0.39595431089401245,0.16991722583770752,0.7370100021362305,2268.0265431404114
D4:22:CD:00:05:6B,-93.3987045288086,-22.964731216430664,116.53966522216797,-9.526006698608398,-20.816143035888672,17.302661895751953,2268.0265431404114
D4:22:CD:00:49:AA,146.80035400390625,-71.88389587402344,144.9845733642578,1.6236274242401123,-1.150423526763916,3.205470085144043,2268.0265431404114
D4:22:CD:00:05:6E,79.5807113647461,-40.96708679199219,54.12509536743164,3.941682815551758,14.782693862915039,6.747434616088867,2268.0265431404114
D4:22:CD:00:05:5E,-164.8939666748047,-65.92449951171875,-62.94113540649414,-5.266935348510742,-5.357183456420898,15.931516647338867,2268.0265431404114
