Device,EulerX,EulerY,EulerZ,FreeAccX,FreeAccY,FreeAccZ,Timestamp
D4:22:CD:00:05:5D,173.65802001953125,-51.442237854003906,-50.527130126953125,-0.7720228433609009,-0.39637672901153564,0.6085004806518555,2307.480877637863
D4:22:CD:00:05:6B,-66.7703628540039,-19.556787490844727,-106.73383331298828,13.074041366577148,4.787519454956055,33.48784637451172,2307.480877637863
D4:22:CD:00:49:AA,150.4502716064453,-67.44535827636719,125.24781799316406,-0.3826635479927063,-3.12986421585083,7.767362594604492,2307.480877637863
D4:22:CD:00:05:6E,92.1087875366211,-42.606136322021484,-31.47732925415039,12.212722778320312,1.9042043685913086,11.11323356628418,2307.480877637863
D4:22:CD:00:05:5E,-169.0974884033203,-44.14943313598633,-75.59827423095703,-4.290740966796875,-14.331954956054688,11.770479202270508,2307.480877637863
D4:22:CD:00:05:6B,-56.097415924072266,-2.5502543449401855,-101.61917877197266,5.629621505737305,-9.180807113647461,28.996013641357422,2307.4848783016205
D4:22:CD:00:49:AA,152.00437927246094,-67.42140197753906,123.82142639160156,-2.2839694023132324,1.7255430221557617,8.932985305786133,2307.4848783016205
D4:22:CD:00:05:6E,91.64067840576172,-39.26959991455078,-20.044662475585938,10.67822265625,6.292479515075684,4.393921852111816,2307.4848783016205
D4:22:CD:00:05:5E,-166.7581329345703,-40.43915939331055,-74.94839477539062,3.043809413909912,-8.095369338989258,6.964925765991211,2307.4848783016205
D4:22:CD:00:05:5D,113.45146179199219,-72.5536880493164,-84.7169418334961,-0.49782371520996094,-5.060460090637207,-2.2577953338623047,2307.486879825592
D4:22:CD:00:49:AA,151.6710662841797,-68.99595642089844,123.77642822265625,-2.946037769317627,1.997558355331421,10.815431594848633,2307.486879825592
D4:22:CD:00:05:6E,94.32573699951172,-41.51774215698242,-8.591805458068848,3.97353458404541,7.939243316650391,-0.4342517852783203,2307.486879825592
D4:22:CD:00:05:5E,-164.26954650878906,-40.84012222290039,-73.92718505859375,5.709975242614746,-1.4401745796203613,-0.15453624725341797,2307.486879825592
D4:22:CD:00:05:5D,129.08973693847656,-79.49076843261719,-101.0464859008789,3.8800392150878906,-0.4240489602088928,-1.3077754974365234,2307.488877773285
D4:22:CD:00:05:6B,-89.73629760742188,1.7952420711517334,-60.80182647705078,0.8455219268798828,1.8484447002410889,-1.3565864562988281,2307.488877773285
D4:22:CD:00:05:6E,97.300537109375,-49.918922424316406,3.8470311164855957,-5.322992324829102,8.889930725097656,-0.48238372802734375,2307.488877773285
D4:22:CD:00:05:5E,-163.64637756347656,-45.39324188232422,-74.67074584960938,9.817602157592773,1.485854148864746,-5.887927055358887,2307.488877773285
D4:22:CD:00:05:5D,162.98941040039062,-76.78691101074219,-133.4107666015625,2.144695281982422,0.3622739315032959,0.3799877166748047,2307.4958775043488
D4:22:CD:00:05:6B,-91.67823791503906,10.534141540527344,-65.07640838623047,3.1201562881469727,-0.3551146984100342,2.788045883178711,2307.4958775043488
D4:22:CD:00:49:AA,-159.29092407226562,-69.67166137695312,77.27778625488281,-2.2165884971618652,0.24276748299598694,-0.9043922424316406,2307.4958775043488
D4:22:CD:00:05:5D,171.35635375976562,-70.91293334960938,-138.87828063964844,3.1354260444641113,1.8145718574523926,-0.34450817108154297,2307.5658915042877
D4:22:CD:00:05:6B,-88.8057861328125,17.901668548583984,-68.06542205810547,14.815929412841797,-2.3296585083007812,12.967609405517578,2307.5658915042877
D4:22:CD:00:49:AA,-153.42587280273438,-70.72306823730469,71.96368408203125,3.3444905281066895,2.848525047302246,0.735198974609375,2307.5658915042877
D4:22:CD:00:05:6E,53.282936096191406,-76.3703842163086,58.485408782958984,11.225595474243164,6.262615203857422,10.770402908325195,2307.5658915042877
D4:22:CD:00:05:5E,-147.78639221191406,-72.77336120605469,-37.211669921875,0.3941623568534851,-12.010257720947266,15.10452651977539,2307.5658915042877
D4:22:CD:00:05:5D,174.50241088867188,-65.55928039550781,-140.22486877441406,4.297857284545898,-0.7135920524597168,0.8190784454345703,2307.5964283943176
D4:22:CD:00:05:6B,-78.15495300292969,25.548664093017578,-67.65324401855469,18.291515350341797,-6.382567405700684,24.953208923339844,2307.5964283943176
D4:22:CD:00:49:AA,-164.04837036132812,-74.228515625,82.24322509765625,7.456350326538086,0.8407975435256958,8.047679901123047,2307.5964283943176
D4:22:CD:00:05:6E,-9.514640808105469,-83.24436950683594,118.54264831542969,13.64169692993164,7.571647644042969,12.636960983276367,2307.5964283943176
D4:22:CD:00:05:5E,154.91542053222656,-71.25386810302734,21.061372756958008,0.28602874279022217,-4.108992576599121,21.904613494873047,2307.5964283943176
D4:22:CD:00:05:5D,178.564208984375,-62.46223068237305,-144.03781127929688,1.3102624416351318,3.527822494506836,2.593271255493164,2307.6254918575287
D4:22:CD:00:05:6B,-53.93056869506836,32.68821716308594,-60.75585174560547,22.24209976196289,-15.162267684936523,26.04732894897461,2307.6254918575287
D4:22:CD:00:49:AA,176.3028564453125,-74.31096649169922,100.91664123535156,-0.6018000841140747,-2.043752670288086,10.852537155151367,2307.6254918575287
D4:22:CD:00:05:6E,-70.54159545898438,-62.74420928955078,-171.60165405273438,-10.351390838623047,16.560340881347656,13.074666976928711,2307.6254918575287
D4:22:CD:00:05:5E,136.8914794921875,-64.49909210205078,37.887535095214844,0.328438401222229,2.334866523742676,17.86705780029297,2307.6254918575287
D4:22:CD:00:05:5D,-178.966064453125,-61.312435150146484,-146.443115234375,1.5389204025268555,2.178079128265381,2.2657899856567383,2307.6860733032227
D4:22:CD:00:05:6B,-24.302988052368164,33.678524017333984,-44.422916412353516,-2.9289755821228027,-17.915863037109375,15.973005294799805,2307.6860733032227
D4:22:CD:00:49:AA,173.754638671875,-72.2588119506836,103.33439636230469,-2.656470775604248,-0.5305405855178833,11.832712173461914,2307.6860733032227
D4:22:CD:00:05:6E,-82.94156646728516,-59.41779708862305,-151.6256103515625,-22.736255645751953,-0.8089859485626221,6.980871200561523,2307.6860733032227
D4:22:CD:00:05:5E,136.2457733154297,-62.86021423339844,39.83667755126953,-2.561913013458252,8.094144821166992,6.608222961425781,2307.6860733032227
D4:22:CD:00:05:5D,-177.63526916503906,-62.196571350097656,-147.51124572753906,3.903975009918213,-0.610633373260498,2.6813220977783203,2307.7160732746124
D4:22:CD:00:05:6B,-8.005436897277832,26.06346893310547,-29.983978271484375,-10.795021057128906,-24.082530975341797,7.96076774597168,2307.7160732746124
D4:22:CD:00:49:AA,-179.68170166015625,-73.01671600341797,98.37195587158203,-1.8842802047729492,1.884258508682251,11.476993560791016,2307.7160732746124
D4:22:CD:00:05:6E,-98.93305206298828,-65.03765869140625,-134.71572875976562,-12.29621696472168,-1.1645605564117432,8.107233047485352,2307.7160732746124
D4:22:CD:00:05:5E,138.6956787109375,-65.32792663574219,38.50971984863281,-2.2077689170837402,9.569391250610352,-6.391002655029297,2307.7160732746124
D4:22:CD:00:05:5D,-176.942138671875,-65.7136459350586,-146.58831787109375,0.7067018747329712,1.649681806564331,4.051617622375488,2307.746073484421
D4:22:CD:00:05:6B,2.157944917678833,18.957815170288086,-25.31158447265625,-9.42269515991211,-18.201858520507812,-2.640285015106201,2307.746073484421
D4:22:CD:00:49:AA,-166.8995361328125,-74.65392303466797,89.29582214355469,-0.23952585458755493,1.529510259628296,7.881072998046875,2307.746073484421
D4:22:CD:00:05:6E,-105.91139221191406,-67.72376251220703,-123.65374755859375,-9.212762832641602,-2.307680606842041,3.817760467529297,2307.746073484421
D4:22:CD:00:05:5E,138.49195861816406,-70.95113372802734,38.56869888305664,0.5211595296859741,11.170965194702148,-12.263391494750977,2307.746073484421
D4:22:CD:00:05:5D,-177.87054443359375,-71.95951080322266,-142.23565673828125,-2.930300235748291,2.832606315612793,9.82437515258789,2307.7756266593933
D4:22:CD:00:05:6B,9.701656341552734,16.50859832763672,-26.34756851196289,-3.0562686920166016,-5.59310245513916,-9.214794158935547,2307.7756266593933
D4:22:CD:00:49:AA,-149.65084838867188,-75.04426574707031,77.71299743652344,-0.15118727087974548,0.5528746843338013,2.5579614639282227,2307.7756266593933
D4:22:CD:00:05:6E,-97.57858276367188,-67.92487335205078,-123.56704711914062,-9.669828414916992,-2.7210745811462402,-0.4257240295410156,2307.7756266593933
D4:22:CD:00:05:5E,134.5869598388672,-79.21652221679688,41.63448715209961,2.8541154861450195,12.50370979309082,-13.105754852294922,2307.7756266593933
D4:22:CD:00:05:5D,-179.1260223388672,-79.17829132080078,-146.04544067382812,-3.6351675987243652,0.8175805807113647,4.586047172546387,2307.8056271076202
D4:22:CD:00:05:6B,13.355992317199707,18.434974670410156,-31.029434204101562,0.8006278276443481,-3.3386058807373047,-7.2911272048950195,2307.8056271076202
D4:22:CD:00:49:AA,-135.78941345214844,-73.70325469970703,69.89299774169922,-0.0341510996222496,0.18961849808692932,-7.389010429382324,2307.8056271076202
D4:22:CD:00:05:6E,-78.57640075683594,-66.72227478027344,-127.78557586669922,-7.341893196105957,-2.212224006652832,-2.9943642616271973,2307.8056271076202
D4:22:CD:00:05:5E,38.890567779541016,-87.60044860839844,139.44683837890625,1.438086986541748,11.091632843017578,-11.145072937011719,2307.8056271076202
D4:22:CD:00:05:5D,177.37026977539062,-80.46087646484375,-144.4430694580078,7.486412048339844,-4.343915939331055,-6.033658027648926,2307.8366270065308
D4:22:CD:00:05:6B,14.842825889587402,24.03156280517578,-38.32292938232422,-0.2850876450538635,2.1979990005493164,-11.925844192504883,2307.8366270065308
D4:22:CD:00:49:AA,-132.63951110839844,-72.53903198242188,69.60908508300781,5.782809257507324,2.107603073120117,-11.533296585083008,2307.8366270065308
D4:22:CD:00:05:6E,-53.83859634399414,-64.88020324707031,-132.22647094726562,-8.387655258178711,-4.2732648849487305,-9.299003601074219,2307.8366270065308
D4:22:CD:00:05:5E,-16.856664657592773,-75.95844268798828,-163.45188903808594,-3.2249650955200195,1.4967658519744873,-8.136573791503906,2307.8366270065308
D4:22:CD:00:05:5D,178.58074951171875,-79.73733520507812,-138.7181854248047,-1.4279744625091553,-9.650463104248047,-8.607353210449219,2307.8656318187714
D4:22:CD:00:05:6B,9.245073318481445,30.666152954101562,-46.9520149230957,-1.7442281246185303,-2.8716530799865723,-13.610918045043945,2307.8656318187714
D4:22:CD:00:49:AA,-133.35523986816406,-73.78726959228516,68.8548812866211,6.00731086730957,0.596831202507019,-11.038150787353516,2307.8656318187714
D4:22:CD:00:05:6E,-39.038368225097656,-63.02935028076172,-133.85440063476562,-4.405935287475586,-8.518758773803711,-15.026906967163086,2307.8656318187714
D4:22:CD:00:05:5E,-20.488662719726562,-63.59479904174805,-163.33782958984375,-9.482841491699219,-7.134695053100586,-5.175092697143555,2307.8656318187714
D4:22:CD:00:05:5D,-177.09536743164062,-81.82648468017578,-135.59251403808594,2.3505306243896484,1.138939380645752,-11.605855941772461,2307.8961629867554
D4:22:CD:00:05:6B,-1.090350866317749,38.250030517578125,-60.5825080871582,6.677788734436035,-7.374330520629883,-13.573081970214844,2307.8961629867554
D4:22:CD:00:49:AA,-132.13668823242188,-75.77568054199219,67.21566772460938,-1.1696512699127197,-0.11150306463241577,-8.13603401184082,2307.8961629867554
D4:22:CD:00:05:6E,-37.37163162231445,-62.16782760620117,-132.80331420898438,-0.8803466558456421,-6.183392524719238,-12.687761306762695,2307.8961629867554
D4:22:CD:00:05:5E,-26.316801071166992,-53.728660583496094,-166.18434143066406,-17.84969711303711,-10.494638442993164,-8.018388748168945,2307.8961629867554
D4:22:CD:00:05:5D,176.74850463867188,-81.49857330322266,-127.40507507324219,4.384822845458984,13.69964599609375,0.6304340362548828,2307.956160068512
D4:22:CD:00:05:6B,-15.74282169342041,41.70336151123047,-81.79434204101562,-4.138728141784668,-7.789306640625,-23.646038055419922,2307.956160068512
D4:22:CD:00:49:AA,-126.82780456542969,-77.42535400390625,62.66771697998047,-5.220663070678711,-0.7482619285583496,-5.899768829345703,2307.956160068512
D4:22:CD:00:05:6E,-39.63176345825195,-61.80244827270508,-131.32496643066406,0.8038663864135742,-4.636916160583496,-10.27035903930664,2307.956160068512
D4:22:CD:00:05:5E,-30.907941818237305,-47.640464782714844,-169.341552734375,-18.263835906982422,0.61887526512146,-7.097621917724609,2307.956160068512
D4:22:CD:00:05:5D,173.81634521484375,-80.21263122558594,-124.5973892211914,-2.2443714141845703,6.101232528686523,-4.148688316345215,2307.9857306480408
D4:22:CD:00:05:6B,-29.567014694213867,36.83429718017578,-100.92189025878906,-6.289822578430176,-12.034051895141602,-18.928863525390625,2307.9857306480408
D4:22:CD:00:49:AA,-115.80913543701172,-78.27452087402344,53.98689651489258,-2.116281509399414,-0.10527840256690979,-3.591826915740967,2307.9857306480408
D4:22:CD:00:05:6E,-40.48100280761719,-61.61957550048828,-131.3865203857422,-0.08807545900344849,-5.708498954772949,-8.860994338989258,2307.9857306480408
D4:22:CD:00:05:5E,-24.47133445739746,-43.32048034667969,-171.9210205078125,-14.923179626464844,-1.0671710968017578,-16.36258316040039,2307.9857306480408
D4:22:CD:00:05:5D,171.4580841064453,-79.10482025146484,-123.08892059326172,2.017866611480713,-7.006570816040039,0.5464496612548828,2308.0157284736633
D4:22:CD:00:05:6B,-33.49778747558594,34.69735336303711,-105.1658706665039,3.2683348655700684,5.479397773742676,-8.128097534179688,2308.0157284736633
D4:22:CD:00:49:AA,-112.41859436035156,-79.146240234375,51.442237854003906,1.725313663482666,1.1081278324127197,-2.8111443519592285,2308.0157284736633
D4:22:CD:00:05:6E,-39.73473358154297,-61.84614181518555,-132.65586853027344,-1.263887882232666,-5.385529518127441,-6.704715728759766,2308.0157284736633
D4:22:CD:00:05:5E,-22.945669174194336,-44.207130432128906,-170.84156799316406,-15.74334716796875,-9.398576736450195,-23.194374084472656,2308.0157284736633
D4:22:CD:00:05:5D,168.6477508544922,-78.14591979980469,-117.46493530273438,-2.112560272216797,-1.7711882591247559,1.7474822998046875,2308.045726776123
D4:22:CD:00:05:6B,-28.533618927001953,36.921722412109375,-99.35135650634766,-9.811843872070312,1.0588879585266113,-2.900160789489746,2308.045726776123
D4:22:CD:00:49:AA,-118.69326782226562,-80.07516479492188,57.479827880859375,-0.15973106026649475,-3.1201887130737305,0.049346923828125,2308.045726776123
D4:22:CD:00:05:6E,-36.25774002075195,-62.455230712890625,-134.48240661621094,-1.0111136436462402,-5.567188262939453,-5.718488693237305,2308.045726776123
D4:22:CD:00:05:5E,-32.9676628112793,-50.86850357055664,-166.1705322265625,-13.093770980834961,-8.109804153442383,-15.72113037109375,2308.045726776123
D4:22:CD:00:05:5D,164.41384887695312,-77.48160552978516,-110.4583511352539,0.1341104507446289,-0.5234789848327637,0.938654899597168,2308.076272010803
D4:22:CD:00:05:6B,-16.1359806060791,37.77443313598633,-93.6184310913086,2.1076087951660156,5.8971710205078125,-9.302087783813477,2308.076272010803
D4:22:CD:00:49:AA,-124.50828552246094,-80.97447967529297,62.18153762817383,-2.518925666809082,-2.248913288116455,2.884805679321289,2308.076272010803
D4:22:CD:00:05:6E,-32.25740432739258,-62.56768798828125,-134.84844970703125,-0.397138774394989,-8.701208114624023,-4.565625190734863,2308.076272010803
D4:22:CD:00:05:5E,-48.9976806640625,-58.06430435180664,-157.04315185546875,-16.064674377441406,2.1748719215393066,2.248459815979004,2308.076272010803
D4:22:CD:00:05:5D,156.71737670898438,-76.80818176269531,-102.03620910644531,-0.9938557147979736,-0.6358809471130371,2.1271610260009766,2308.1063985824585
D4:22:CD:00:05:6B,-8.741809844970703,36.383487701416016,-83.61282348632812,-1.029209852218628,-1.6552090644836426,-10.651618957519531,2308.1063985824585
D4:22:CD:00:49:AA,-128.45480346679688,-81.58170318603516,64.61444091796875,-0.6461734771728516,-1.1861381530761719,0.42876625061035156,2308.1063985824585
D4:22:CD:00:05:6E,-32.08163833618164,-62.765995025634766,-132.62425231933594,1.5907907485961914,-10.497291564941406,-4.908557891845703,2308.1063985824585
D4:22:CD:00:05:5E,-47.271785736083984,-61.45675277709961,-153.46286010742188,-1.7104671001434326,-16.972854614257812,-5.022946357727051,2308.1063985824585
D4:22:CD:00:05:5D,146.95692443847656,-76.79307556152344,-92.44266510009766,-1.1880924701690674,0.5671162605285645,4.400136947631836,2308.136397600174
D4:22:CD:00:05:6B,-5.251864910125732,32.30112838745117,-70.99126434326172,-2.5834574699401855,-4.779869079589844,-12.902517318725586,2308.136397600174
D4:22:CD:00:49:AA,-128.01385498046875,-82.34222412109375,62.86787414550781,0.0044946214184165,-0.3668225407600403,0.20209026336669922,2308.136397600174
D4:22:CD:00:05:6E,-38.09074783325195,-64.3663330078125,-128.9519500732422,0.8054437637329102,-9.493436813354492,-5.609128952026367,2308.136397600174
D4:22:CD:00:05:5E,-51.494911193847656,-65.37882232666016,-150.32652282714844,-6.46217155456543,4.521740913391113,15.258661270141602,2308.136397600174
D4:22:CD:00:05:5D,134.7543182373047,-76.86083984375,-81.60954284667969,0.07078655064105988,-1.8035383224487305,0.8010654449462891,2308.166412830353
D4:22:CD:00:05:6B,-3.641019821166992,25.750356674194336,-58.036869049072266,-5.684881210327148,-6.575669288635254,-9.905710220336914,2308.166412830353
D4:22:CD:00:49:AA,-130.77618408203125,-83.46409606933594,63.80278396606445,2.502732276916504,-0.6938489675521851,3.644455909729004,2308.166412830353
D4:22:CD:00:05:6E,-51.00212097167969,-67.34976196289062,-122.7779769897461,-2.050619602203369,-8.39146614074707,-2.7232213020324707,2308.166412830353
D4:22:CD:00:05:5E,-64.64968872070312,-67.98319244384766,-141.20272827148438,-6.887640953063965,-1.7724847793579102,9.569084167480469,2308.166412830353
D4:22:CD:00:05:5D,121.75541687011719,-76.41645812988281,-72.29515838623047,-0.731634259223938,-2.5732431411743164,-1.7222299575805664,2308.195941209793
D4:22:CD:00:05:6B,-1.537217140197754,18.118186950683594,-47.221378326416016,-7.150390625,-1.900338888168335,-0.7461538314819336,2308.195941209793
D4:22:CD:00:49:AA,-136.9591522216797,-84.0643310546875,66.4757080078125,6.6587018966674805,-3.6892590522766113,2.592863082885742,2308.195941209793
D4:22:CD:00:05:6E,-69.70887756347656,-70.0130844116211,-112.83790588378906,-2.4642491340637207,-8.957029342651367,3.4534692764282227,2308.195941209793
D4:22:CD:00:05:5E,-72.07275390625,-70.34130859375,-136.03294372558594,-6.037884712219238,2.829802989959717,-2.2040233612060547,2308.195941209793
D4:22:CD:00:05:5D,114.52421569824219,-74.18709564208984,-72.56258392333984,5.3047332763671875,-2.9766101837158203,5.155580520629883,2308.2560403347015
D4:22:CD:00:05:6B,-0.6592814326286316,8.90885066986084,-38.03153991699219,-13.104822158813477,7.391881942749023,2.3199844360351562,2308.2560403347015
D4:22:CD:00:49:AA,-140.5539093017578,-82.80538177490234,66.10692596435547,5.1090087890625,0.7963675260543823,-0.2337512969970703,2308.2560403347015
D4:22:CD:00:05:6E,-90.29706573486328,-71.18377685546875,-101.74452209472656,-0.8335546255111694,-8.292474746704102,5.666007041931152,2308.2560403347015
D4:22:CD:00:05:5E,-71.06157684326172,-73.05362701416016,-136.9577178955078,-7.044044494628906,-4.704204559326172,-0.5645980834960938,2308.2560403347015
D4:22:CD:00:05:5D,114.79656219482422,-72.42237854003906,-84.85931396484375,18.02381134033203,-0.13252636790275574,6.095850944519043,2308.2855880260468
D4:22:CD:00:05:6B,-3.173163890838623,-5.149503231048584,-27.02138328552246,-4.859045028686523,4.898131370544434,-1.4884099960327148,2308.2855880260468
D4:22:CD:00:49:AA,-144.31057739257812,-80.88070678710938,66.46149444580078,7.906231880187988,0.08573785424232483,-2.2467761039733887,2308.2855880260468
D4:22:CD:00:05:6E,-108.32262420654297,-72.12516784667969,-91.56045532226562,0.1131945550441742,-3.6279430389404297,3.330327033996582,2308.2855880260468
D4:22:CD:00:05:5E,-70.38911437988281,-74.99961853027344,-138.32847595214844,-6.817019462585449,-1.2646141052246094,-0.4590110778808594,2308.2855880260468
D4:22:CD:00:05:5D,128.7883758544922,-67.02607727050781,-106.06389617919922,21.89278793334961,-0.10245966911315918,7.983516693115234,2308.3165848255157
D4:22:CD:00:05:6B,-12.708189964294434,-21.572694778442383,-11.42032527923584,10.875089645385742,8.413408279418945,1.114274024963379,2308.3165848255157
D4:22:CD:00:49:AA,-149.01795959472656,-79.41537475585938,69.96595001220703,-0.5554788112640381,-0.2824198007583618,5.606663703918457,2308.3165848255157
D4:22:CD:00:05:6E,-122.2659912109375,-72.8853530883789,-85.50273895263672,-0.45277082920074463,0.5175105333328247,2.8024559020996094,2308.3165848255157
D4:22:CD:00:05:5E,-66.64590454101562,-76.1279525756836,-142.76675415039062,-6.507453918457031,-1.311622142791748,-0.4008045196533203,2308.3165848255157
D4:22:CD:00:05:5D,144.01898193359375,-57.5799560546875,-124.32870483398438,12.420778274536133,-0.3031232953071594,6.447444915771484,2308.3455843925476
D4:22:CD:00:05:6B,-36.05644607543945,-33.265567779541016,8.298727035522461,7.498943328857422,4.8092241287231445,0.10616207122802734,2308.3455843925476
D4:22:CD:00:49:AA,-151.419921875,-79.1692886352539,71.83464050292969,1.5362277030944824,3.7580742835998535,4.88623046875,2308.3455843925476
D4:22:CD:00:05:6E,-133.9777069091797,-72.03145599365234,-86.60240173339844,-1.3658058643341064,4.6294965744018555,7.150093078613281,2308.3455843925476
D4:22:CD:00:05:5E,-59.3919792175293,-76.68831634521484,-149.87745666503906,-5.763765335083008,-2.4645919799804688,0.6468257904052734,2308.3455843925476
D4:22:CD:00:05:5D,151.6064453125,-47.02592086791992,-137.7987060546875,1.6094520092010498,-1.9592645168304443,0.077117919921875,2308.3761179447174
D4:22:CD:00:05:6B,-53.246604919433594,-36.38951873779297,24.982540130615234,-3.9078807830810547,-0.311049222946167,13.658849716186523,2308.3761179447174
D4:22:CD:00:49:AA,-152.63893127441406,-79.42880249023438,73.2605209350586,7.348630905151367,2.14835262298584,0.5980978012084961,2308.3761179447174
D4:22:CD:00:05:6E,-134.00628662109375,-72.41082763671875,-88.15977478027344,0.20062997937202454,2.4024829864501953,6.0768938064575195,2308.3761179447174
D4:22:CD:00:05:5E,-51.983062744140625,-76.59051513671875,-156.70028686523438,-5.0264892578125,-3.013054847717285,2.8145666122436523,2308.3761179447174
D4:22:CD:00:05:5D,155.92884826660156,-36.61295700073242,-146.89158630371094,-4.7716569900512695,1.4581546783447266,-6.382266044616699,2308.406117916107
D4:22:CD:00:05:6B,-54.88721466064453,-33.713523864746094,31.38827133178711,-5.515252113342285,8.829492568969727,-4.23360538482666,2308.406117916107
D4:22:CD:00:49:AA,-157.45639038085938,-79.66397094726562,78.14727020263672,4.007338523864746,0.8421791791915894,0.07328987121582031,2308.406117916107
D4:22:CD:00:05:6E,-128.10960388183594,-73.96405029296875,-86.31997680664062,-5.171072006225586,-1.0553150177001953,1.131805419921875,2308.406117916107
D4:22:CD:00:05:5E,-34.5655403137207,-74.57588958740234,-168.6682586669922,-4.956947326660156,-0.3469366431236267,-4.133913040161133,2308.406117916107
D4:22:CD:00:05:5D,159.87249755859375,-27.917259216308594,-152.63656616210938,-7.412884712219238,3.4422335624694824,-13.352426528930664,2308.4362568855286
D4:22:CD:00:05:6B,-60.34941482543945,-31.204416275024414,31.323251724243164,-5.470062255859375,3.518803119659424,-9.415620803833008,2308.4362568855286
D4:22:CD:00:49:AA,-161.74136352539062,-79.65229034423828,82.5815658569336,-0.28285229206085205,0.16687452793121338,-2.5769057273864746,2308.4362568855286
D4:22:CD:00:05:6E,-126.30320739746094,-75.89936828613281,-80.89722442626953,-4.9831390380859375,-3.532238483428955,-1.9384102821350098,2308.4362568855286
D4:22:CD:00:05:5E,-36.17464065551758,-75.51547241210938,-163.40673828125,-1.992945671081543,-2.106995105743408,-1.2957611083984375,2308.4362568855286
D4:22:CD:00:05:5D,163.83273315429688,-23.44209098815918,-156.09573364257812,-5.594151496887207,4.414172172546387,-16.28388214111328,2308.4662671089172
D4:22:CD:00:05:6B,-68.24420166015625,-31.05220603942871,29.43918800354004,-2.7732324600219727,-1.4897434711456299,-4.991464614868164,2308.4662671089172
D4:22:CD:00:49:AA,-163.0378875732422,-79.09984588623047,85.97277069091797,-3.075289726257324,-1.9301490783691406,-8.264892578125,2308.4662671089172
D4:22:CD:00:05:6E,-129.4433135986328,-78.53076934814453,-72.95191192626953,-4.325699806213379,-4.754748344421387,-5.3753557205200195,2308.4662671089172
D4:22:CD:00:05:5E,-48.293182373046875,-76.34738159179688,-151.03846740722656,-0.35241490602493286,5.362029075622559,-8.500907897949219,2308.4662671089172
D4:22:CD:00:05:5D,166.88267517089844,-22.869401931762695,-158.52125549316406,-7.4229841232299805,3.7225427627563477,-12.459566116333008,2308.4958040714264
D4:22:CD:00:05:6B,-74.92770385742188,-34.26908493041992,27.690885543823242,1.4278757572174072,-0.3527466058731079,-8.718460083007812,2308.4958040714264
D4:22:CD:00:49:AA,-163.25335693359375,-78.19954681396484,89.54240417480469,-0.12760284543037415,1.0169572830200195,-10.255510330200195,2308.4958040714264
D4:22:CD:00:05:6E,-142.2932891845703,-82.04594421386719,-60.0387077331543,-0.20489543676376343,-3.8641724586486816,-6.291337966918945,2308.4958040714264
D4:22:CD:00:05:5E,-69.78691864013672,-75.40794372558594,-133.09620666503906,-12.247413635253906,11.816761016845703,-14.949995040893555,2308.4958040714264
D4:22:CD:00:05:5D,166.26182556152344,-26.830520629882812,-159.55856323242188,-12.879959106445312,0.7369433641433716,-16.24359893798828,2308.5558030605316
D4:22:CD:00:05:6B,-86.39678192138672,-41.413211822509766,28.330900192260742,4.61221981048584,-2.504167079925537,-6.704041481018066,2308.5558030605316
D4:22:CD:00:49:AA,-161.02340698242188,-77.86332702636719,89.05768585205078,4.798789978027344,4.20212459564209,-7.176379203796387,2308.5558030605316
D4:22:CD:00:05:6E,174.67869567871094,-86.05300903320312,-19.081626892089844,2.264530658721924,-2.195509910583496,-5.924065589904785,2308.5558030605316
D4:22:CD:00:05:5E,-97.63274383544922,-73.36544799804688,-114.1505355834961,-7.316965103149414,-4.000178337097168,-8.292739868164062,2308.5558030605316
D4:22:CD:00:05:5D,170.97714233398438,-29.259096145629883,-158.2303466796875,4.328969955444336,10.935232162475586,39.577606201171875,2308.586344718933
D4:22:CD:00:05:6B,-103.26493072509766,-51.7254638671875,35.24772644042969,2.9926657676696777,1.5792076587677002,13.187959671020508,2308.586344718933
D4:22:CD:00:49:AA,-157.30966186523438,-78.87489318847656,84.22296905517578,7.413139343261719,2.6445212364196777,-5.037801742553711,2308.586344718933
D4:22:CD:00:05:6E,92.40898895263672,-82.67332458496094,64.0726089477539,-0.5893601179122925,-4.996820449829102,-2.9020795822143555,2308.586344718933
D4:22:CD:00:05:5E,-112.60761260986328,-71.24112701416016,-99.28877258300781,-5.236128807067871,-18.91852569580078,11.284292221069336,2308.586344718933
D4:22:CD:00:05:5D,177.1501007080078,-26.445371627807617,-153.56907653808594,-17.807647705078125,-3.1264076232910156,3.3859691619873047,2308.6155292987823
D4:22:CD:00:05:6B,-112.1388931274414,-63.676822662353516,46.180572509765625,7.12033748626709,23.22408676147461,32.562347412109375,2308.6155292987823
D4:22:CD:00:49:AA,-155.69418334960938,-78.46565246582031,80.18670654296875,-2.8666210174560547,-5.1489458084106445,-1.0158557891845703,2308.6155292987823
D4:22:CD:00:05:6E,78.55108642578125,-73.14697265625,79.08824920654297,-3.730682849884033,-9.107385635375977,0.9511537551879883,2308.6155292987823
D4:22:CD:00:05:5E,-123.79711151123047,-68.42288970947266,-87.42921447753906,-5.585258483886719,3.7358570098876953,-1.623764991760254,2308.6155292987823
D4:22:CD:00:05:5D,173.389892578125,-20.79084014892578,-149.74435424804688,-16.00961685180664,-11.101341247558594,15.243844985961914,2308.646530866623
D4:22:CD:00:05:6B,-104.6158447265625,-65.69586944580078,46.64109420776367,14.961381912231445,7.065505027770996,5.059037208557129,2308.646530866623
D4:22:CD:00:49:AA,-156.5891571044922,-76.99220275878906,81.04104614257812,-4.8556318283081055,-4.765042304992676,14.932613372802734,2308.646530866623
D4:22:CD:00:05:6E,76.8128890991211,-62.04230499267578,82.76972198486328,-0.39056646823883057,-13.435871124267578,1.0721759796142578,2308.646530866623
D4:22:CD:00:05:5E,-130.94085693359375,-67.87972259521484,-79.9521484375,-6.674949645996094,-0.21572574973106384,0.2654895782470703,2308.646530866623
D4:22:CD:00:05:5D,168.8426971435547,-12.29284381866455,-149.5452117919922,-20.200881958007812,-8.365262985229492,13.458683013916016,2308.6762874126434
D4:22:CD:00:05:6B,-100.4125747680664,-57.17041015625,43.862220764160156,15.864913940429688,4.418674468994141,17.507492065429688,2308.6762874126434
D4:22:CD:00:49:AA,-153.02728271484375,-77.90079498291016,78.55644226074219,8.385950088500977,5.151285171508789,8.892387390136719,2308.6762874126434
D4:22:CD:00:05:6E,79.64508819580078,-50.47651290893555,83.81388854980469,2.0290932655334473,-19.171554565429688,5.914051055908203,2308.6762874126434
D4:22:CD:00:05:5E,-133.8214111328125,-68.53669738769531,-77.22138977050781,-7.94548225402832,-1.1650891304016113,-0.7665824890136719,2308.6762874126434
D4:22:CD:00:05:5D,164.08763122558594,-3.8075761795043945,-151.3449249267578,-17.891399383544922,-5.6544389724731445,6.066492080688477,2308.706279039383
D4:22:CD:00:05:6B,-92.81073760986328,-50.52113723754883,40.01626205444336,6.595425605773926,5.0661516189575195,15.37872314453125,2308.706279039383
D4:22:CD:00:49:AA,-153.11021423339844,-78.17232513427734,77.93292999267578,5.673340797424316,3.115324020385742,6.423530578613281,2308.706279039383
D4:22:CD:00:05:6E,80.41029357910156,-37.18114471435547,82.93273162841797,6.3027143478393555,-23.367889404296875,22.83966064453125,2308.706279039383
D4:22:CD:00:05:5E,-131.1631317138672,-69.85408782958984,-80.53556823730469,-7.533525466918945,-1.0279700756072998,-0.8356342315673828,2308.706279039383
D4:22:CD:00:05:5D,162.99185180664062,1.983097791671753,-152.930908203125,-11.47053337097168,2.0999069213867188,-0.4243478775024414,2308.746287584305
D4:22:CD:00:05:6B,-88.43415832519531,-48.313987731933594,35.055389404296875,3.996656894683838,4.283966064453125,9.538858413696289,2308.746287584305
D4:22:CD:00:49:AA,-155.761474609375,-78.29045104980469,79.9018783569336,4.618803977966309,3.125911235809326,10.838783264160156,2308.746287584305
D4:22:CD:00:05:6E,73.82445526123047,-21.779027938842773,80.3731460571289,8.776273727416992,-12.200197219848633,26.608089447021484,2308.746287584305
D4:22:CD:00:05:5E,-123.73301696777344,-71.68800354003906,-89.18730926513672,-6.946150779724121,-0.6966037750244141,1.499690055847168,2308.746287584305
D4:22:CD:00:05:5D,162.64218139648438,3.0235769748687744,-153.9004669189453,-2.7638235092163086,6.409625053405762,-6.411429405212402,2308.766304731369
D4:22:CD:00:05:6B,-89.9084243774414,-48.37839889526367,29.716920852661133,2.389375686645508,-0.7038329839706421,3.4547014236450195,2308.766304731369
D4:22:CD:00:49:AA,-161.36676025390625,-78.14466094970703,84.5036849975586,6.551852226257324,3.748960018157959,8.417898178100586,2308.766304731369
D4:22:CD:00:05:6E,63.27718734741211,-6.552255630493164,76.22993469238281,3.7101354598999023,-0.6455948352813721,16.206741333007812,2308.766304731369
D4:22:CD:00:05:5E,-110.50948333740234,-74.04983520507812,-103.8488998413086,-7.602901458740234,-2.506570816040039,5.55079460144043,2308.766304731369
D4:22:CD:00:05:5D,161.73590087890625,-0.937679648399353,-154.73788452148438,-0.17014911770820618,7.661262512207031,-12.028690338134766,2308.7958331108093
D4:22:CD:00:05:6B,-92.43343353271484,-50.83543014526367,25.046804428100586,-5.88935661315918,1.750453233718872,5.189136505126953,2308.7958331108093
D4:22:CD:00:49:AA,-172.1689453125,-78.4448471069336,93.1510238647461,4.087813377380371,2.2045655250549316,6.981386184692383,2308.7958331108093
D4:22:CD:00:05:6E,54.1641960144043,5.070430755615234,72.39079284667969,-2.4825778007507324,0.9824426174163818,9.742450714111328,2308.7958331108093
D4:22:CD:00:05:5E,-78.88035583496094,-75.41390991210938,-136.3135223388672,-5.043842315673828,-11.207170486450195,9.46627426147461,2308.7958331108093
D4:22:CD:00:05:5D,159.9773406982422,-9.260782241821289,-155.11441040039062,-0.924210786819458,5.098937034606934,-16.131732940673828,2308.856022119522
D4:22:CD:00:05:6B,-93.57549285888672,-55.3478889465332,20.45465087890625,-5.577915191650391,2.2923507690429688,-0.6123743057250977,2308.856022119522
D4:22:CD:00:49:AA,174.8905487060547,-78.7110366821289,104.58065795898438,-1.100949764251709,0.626563549041748,3.089366912841797,2308.856022119522
D4:22:CD:00:05:6E,48.64116668701172,13.464741706848145,70.13704681396484,-8.576129913330078,2.499284267425537,1.0504722595214844,2308.856022119522
D4:22:CD:00:05:5E,-44.63821792602539,-72.96131896972656,-163.6034698486328,-5.1160783767700195,-3.082134246826172,-3.553696632385254,2308.856022119522
D4:22:CD:00:05:5D,157.87449645996094,-20.63282585144043,-154.6689910888672,-4.010601043701172,2.4593148231506348,-15.792600631713867,2308.885573863983
D4:22:CD:00:05:6B,-96.40155792236328,-60.50283432006836,15.719407081604004,-5.670814514160156,0.3171062469482422,-5.842416763305664,2308.885573863983
D4:22:CD:00:49:AA,166.27957153320312,-78.36785888671875,113.04993438720703,-0.5745933055877686,-1.3529167175292969,-4.679999351501465,2308.885573863983
D4:22:CD:00:05:6E,51.05860137939453,20.442068099975586,68.8847885131836,-6.666646957397461,0.833311915397644,-8.903589248657227,2308.885573863983
D4:22:CD:00:05:5E,-15.328015327453613,-69.29042053222656,-179.95040893554688,-12.093379974365234,-1.068988561630249,-12.173755645751953,2308.885573863983
D4:22:CD:00:05:5D,155.7178955078125,-34.197505950927734,-153.40631103515625,-5.974018096923828,-0.7151778936386108,-12.717414855957031,2308.9155733585358
D4:22:CD:00:05:6B,-99.76010131835938,-65.17716979980469,10.640905380249023,-5.734673500061035,1.0947332382202148,-8.163167953491211,2308.9155733585358
D4:22:CD:00:49:AA,162.2749786376953,-77.5891342163086,117.36316680908203,1.3264045715332031,0.8326202630996704,-10.305227279663086,2308.9155733585358
D4:22:CD:00:05:6E,59.523277282714844,26.536481857299805,68.77999877929688,-5.1068115234375,0.0629463791847229,-11.979543685913086,2308.9155733585358
D4:22:CD:00:05:5E,-4.564453125,-67.5802993774414,173.0985565185547,-1.6869256496429443,-6.381992340087891,-10.166738510131836,2308.9155733585358
D4:22:CD:00:05:5D,153.9856719970703,-49.43131637573242,-151.0957794189453,-5.763200759887695,-2.3390841484069824,-6.09751033782959,2308.945572376251
D4:22:CD:00:05:6B,-99.87591552734375,-68.84180450439453,4.169789791107178,-4.7931928634643555,2.1804823875427246,-10.111223220825195,2308.945572376251
D4:22:CD:00:49:AA,158.32379150390625,-77.21744537353516,120.8692855834961,0.738094687461853,2.3534226417541504,-9.94192123413086,2308.945572376251
D4:22:CD:00:05:6E,61.48551559448242,31.1450138092041,69.37556457519531,-7.506878852844238,3.446866989135742,-6.488691329956055,2308.945572376251
D4:22:CD:00:05:5E,-4.031626224517822,-65.6798324584961,168.94847106933594,-1.1422851085662842,1.5692400932312012,-9.299642562866211,2308.945572376251
D4:22:CD:00:05:5D,149.9006805419922,-66.62457275390625,-145.6025848388672,-2.550887107849121,-0.003911029547452927,6.367534637451172,2308.976116657257
D4:22:CD:00:05:6B,-96.522705078125,-71.19475555419922,-3.851125478744507,-4.506169319152832,4.153419494628906,-10.432706832885742,2308.976116657257
D4:22:CD:00:49:AA,153.1204833984375,-77.54356384277344,124.41547393798828,0.32720643281936646,-0.5491992235183716,-7.758113861083984,2308.976116657257
D4:22:CD:00:05:6E,52.023406982421875,33.432830810546875,71.6520767211914,-5.109071731567383,-0.11338375508785248,-11.939769744873047,2308.976116657257
D4:22:CD:00:05:5E,-2.695178508758545,-63.64943313598633,167.78469848632812,-13.650035858154297,10.858997344970703,-8.771387100219727,2308.976116657257
D4:22:CD:00:05:5D,98.51138305664062,-83.55262756347656,-96.00723266601562,8.614269256591797,3.6528711318969727,17.841171264648438,2309.0061180591583
D4:22:CD:00:05:6B,-90.03937530517578,-72.09721374511719,-13.343759536743164,-2.632756233215332,6.207144737243652,-9.804258346557617,2309.0061180591583
D4:22:CD:00:49:AA,147.9364013671875,-78.3319320678711,128.4245147705078,0.5020806789398193,0.17537763714790344,-10.196622848510742,2309.0061180591583
D4:22:CD:00:05:6E,40.53873062133789,33.007102966308594,76.44770812988281,-0.9766362905502319,-1.671539306640625,-13.274206161499023,2309.0061180591583
D4:22:CD:00:05:5E,-2.6091887950897217,-63.32966995239258,168.2354736328125,1.1001503467559814,0.8753353357315063,-1.2779970169067383,2309.0061180591583
D4:22:CD:00:05:5D,6.216771602630615,-74.54706573486328,-3.4076004028320312,17.32980728149414,-18.099979400634766,7.9553070068359375,2309.036118030548
D4:22:CD:00:05:6B,-80.79258728027344,-72.03131103515625,-23.832439422607422,-1.0154082775115967,5.203291893005371,-9.093461990356445,2309.036118030548
D4:22:CD:00:49:AA,141.34779357910156,-78.8396224975586,133.44761657714844,2.4061479568481445,0.9754689931869507,-7.375042915344238,2309.036118030548
D4:22:CD:00:05:6E,34.282875061035156,31.147960662841797,84.1884765625,1.3684308528900146,2.395717144012451,-10.874588012695312,2309.036118030548
D4:22:CD:00:05:5E,-7.215805530548096,-65.16578674316406,170.14215087890625,-1.5926527976989746,-1.1128244400024414,-1.892242431640625,2309.036118030548
D4:22:CD:00:05:5D,14.63247013092041,-70.18537139892578,1.2201464176177979,18.952110290527344,31.743282318115234,-21.088565826416016,2309.0759201049805
D4:22:CD:00:05:6B,-72.81613159179688,-71.61773681640625,-32.126468658447266,-2.053358554840088,2.4375643730163574,-7.963682174682617,2309.0759201049805
D4:22:CD:00:49:AA,135.7122802734375,-79.76380157470703,138.38209533691406,-0.42598462104797363,-2.563479423522949,-2.0023269653320312,2309.0759201049805
D4:22:CD:00:05:6E,33.4892692565918,29.127317428588867,95.10253143310547,-1.7305881977081299,7.596639633178711,-12.33159065246582,2309.0759201049805
D4:22:CD:00:05:5E,-18.145301818847656,-68.41415405273438,176.44725036621094,-3.122373580932617,-4.136570930480957,-0.24732494354248047,2309.0759201049805
D4:22:CD:00:05:5D,34.891258239746094,-72.76715087890625,-13.594552040100098,12.30571174621582,3.8691186904907227,-4.441130638122559,2309.0960097312927
D4:22:CD:00:05:6B,-68.01319122314453,-71.69563293457031,-35.60819625854492,-3.1392922401428223,3.349205493927002,-5.237661361694336,2309.0960097312927
D4:22:CD:00:49:AA,146.20851135253906,-80.54924011230469,129.67291259765625,3.388382911682129,-4.734796524047852,0.5922231674194336,2309.0960097312927
D4:22:CD:00:05:6E,34.25241470336914,27.426794052124023,107.122802734375,-7.015894889831543,10.994363784790039,-13.504928588867188,2309.0960097312927
D4:22:CD:00:05:5E,-29.251562118530273,-70.28356170654297,-174.6180877685547,-7.9045867919921875,-4.511829376220703,2.823537826538086,2309.0960097312927
D4:22:CD:00:05:5D,67.607177734375,-73.99259185791016,-41.36418533325195,11.496191024780273,1.8970692157745361,1.4107465744018555,2309.1561191082
D4:22:CD:00:05:6B,-66.14593505859375,-71.86429595947266,-34.47892761230469,-1.827871561050415,5.411847114562988,-1.7538776397705078,2309.1561191082
D4:22:CD:00:49:AA,150.54287719726562,-80.54537200927734,125.81845092773438,1.1196010112762451,-0.41994327306747437,3.3257217407226562,2309.1561191082
D4:22:CD:00:05:6E,34.51119613647461,26.953269958496094,114.81138610839844,-4.092225074768066,-8.475072860717773,-8.963285446166992,2309.1561191082
D4:22:CD:00:05:5E,-36.410789489746094,-70.16685485839844,-168.38356018066406,-8.096004486083984,-0.5690683126449585,1.573812484741211,2309.1561191082
D4:22:CD:00:05:5D,99.94960021972656,-71.08221435546875,-70.61052703857422,3.053708076477051,-5.985147476196289,7.74915885925293,2309.1860949993134
D4:22:CD:00:05:6B,-70.88753509521484,-72.3003921508789,-26.809831619262695,-1.600024938583374,4.061243057250977,1.8568172454833984,2309.1860949993134
D4:22:CD:00:49:AA,154.36927795410156,-81.47071838378906,123.00597381591797,3.5627288818359375,2.0286617279052734,3.11016845703125,2309.1860949993134
D4:22:CD:00:05:6E,25.903291702270508,25.942747116088867,112.57623291015625,-1.5519917011260986,-3.6334877014160156,-7.244272232055664,2309.1860949993134
D4:22:CD:00:05:5E,-39.254417419433594,-68.05228424072266,-165.90696716308594,-6.796216011047363,0.5910794734954834,4.183789253234863,2309.1860949993134
D4:22:CD:00:05:5D,116.88702392578125,-68.71025085449219,-85.48843383789062,-6.474615097045898,-15.96546745300293,-1.7676687240600586,2309.2160942554474
D4:22:CD:00:05:6B,-84.15901947021484,-73.44001770019531,-9.404322624206543,-0.86080002784729,3.7146458625793457,5.492863655090332,2309.2160942554474
D4:22:CD:00:49:AA,165.38941955566406,-82.19828033447266,114.6635513305664,6.763826370239258,-0.30929744243621826,6.052310943603516,2309.2160942554474
D4:22:CD:00:05:6E,17.12605857849121,24.300800323486328,106.41785430908203,-4.492259979248047,-2.6739063262939453,-5.0721235275268555,2309.2160942554474
D4:22:CD:00:05:5E,-36.935787200927734,-65.24571990966797,-166.78115844726562,-6.469109535217285,-2.068897247314453,7.100826263427734,2309.2160942554474
D4:22:CD:00:05:5D,128.06460571289062,-69.0573959350586,-96.0270004272461,-5.656039237976074,4.82291316986084,8.514835357666016,2309.2460951805115
D4:22:CD:00:05:6B,-101.60321044921875,-74.2770767211914,14.745355606079102,-0.489168643951416,5.962092399597168,9.144735336303711,2309.2460951805115
D4:22:CD:00:49:AA,173.5847930908203,-82.66880798339844,109.46903228759766,2.406705379486084,-2.487179756164551,2.550229072570801,2309.2460951805115
D4:22:CD:00:05:6E,8.749107360839844,21.96316909790039,97.24439239501953,-5.528063774108887,2.813683032989502,-4.487056732177734,2309.2460951805115
D4:22:CD:00:05:5E,-26.48761749267578,-61.138916015625,-170.574462890625,-1.8903915882110596,-7.696000099182129,5.293974876403809,2309.2460951805115
D4:22:CD:00:05:5D,136.3249969482422,-69.89644622802734,-105.39542388916016,-3.345409870147705,1.0061006546020508,3.2500839233398438,2309.2757387161255
D4:22:CD:00:05:6B,-114.32903289794922,-74.37647247314453,36.599281311035156,3.254733085632324,4.282937049865723,9.008049011230469,2309.2757387161255
D4:22:CD:00:49:AA,-174.24566650390625,-81.71952056884766,101.19281005859375,-4.019644737243652,-2.8597660064697266,-1.1150827407836914,2309.2757387161255
D4:22:CD:00:05:6E,2.395890951156616,18.341915130615234,84.68057250976562,-5.3187150955200195,9.106767654418945,-6.867176055908203,2309.2757387161255
D4:22:CD:00:05:5E,-15.347214698791504,-59.5281867980957,-170.39988708496094,-18.911815643310547,-3.9203286170959473,-5.222684860229492,2309.2757387161255
D4:22:CD:00:05:5D,147.58299255371094,-71.61797332763672,-114.78929138183594,-1.722532033920288,0.29902076721191406,0.6291875839233398,2309.305737733841
D4:22:CD:00:05:6B,-125.95372772216797,-71.99530792236328,50.70303726196289,2.1242079734802246,0.8995970487594604,6.189411163330078,2309.305737733841
D4:22:CD:00:49:AA,-168.7747344970703,-78.99034118652344,101.29759979248047,-4.335555076599121,-0.9050480127334595,-2.6421499252319336,2309.305737733841
D4:22:CD:00:05:6E,2.1142868995666504,13.83537483215332,70.43846130371094,1.3817245960235596,5.945512771606445,-4.947823524475098,2309.305737733841
D4:22:CD:00:05:5E,-9.467253684997559,-63.79558563232422,-166.36671447753906,-36.091712951660156,-9.363594055175781,-12.329706192016602,2309.305737733841
D4:22:CD:00:05:5D,157.6948699951172,-71.86776733398438,-122.75405883789062,-5.444477081298828,-6.839288711547852,6.158259391784668,2309.3359003067017
D4:22:CD:00:05:6B,-129.7425537109375,-68.66604614257812,54.08217239379883,-1.3953962326049805,-2.605172634124756,1.902975082397461,2309.3359003067017
D4:22:CD:00:49:AA,-168.38998413085938,-75.59265899658203,106.07212829589844,-2.1929478645324707,3.487186908721924,-2.721353054046631,2309.3359003067017
D4:22:CD:00:05:6E,9.979817390441895,10.131549835205078,56.13985824584961,2.3821840286254883,-3.1344003677368164,-3.887885093688965,2309.3359003067017
D4:22:CD:00:05:5E,-11.679908752441406,-73.30693054199219,-157.25140380859375,-20.59872055053711,-6.612663269042969,-9.383249282836914,2309.3359003067017
D4:22:CD:00:05:5D,164.72317504882812,-70.85504150390625,-128.68109130859375,4.493356704711914,1.5483522415161133,-0.1645498275756836,2309.3659155368805
D4:22:CD:00:05:6B,-128.75489807128906,-65.75960540771484,54.314483642578125,-1.7647531032562256,-3.9719395637512207,-1.3267335891723633,2309.3659155368805
D4:22:CD:00:49:AA,-172.0188446044922,-73.13311767578125,109.57955932617188,3.5385961532592773,4.422598838806152,5.280440330505371,2309.3659155368805
D4:22:CD:00:05:6E,21.097488403320312,8.301225662231445,42.75323486328125,5.020875930786133,-4.091461181640625,-8.413318634033203,2309.3659155368805
D4:22:CD:00:05:5E,-36.350093841552734,-83.85279846191406,-125.94902038574219,-8.015901565551758,-3.28350830078125,-8.594038009643555,2309.3659155368805
D4:22:CD:00:05:5D,169.01480102539062,-70.69841003417969,-131.14271545410156,2.1596946716308594,0.049971237778663635,1.542008399963379,2309.3964529037476
D4:22:CD:00:05:6B,-130.5867462158203,-64.51437377929688,54.55923843383789,-4.815284729003906,-2.134653091430664,-0.5247869491577148,2309.3964529037476
D4:22:CD:00:49:AA,-175.57875061035156,-72.35924530029297,112.25029754638672,-2.241790771484375,3.3112735748291016,1.8628730773925781,2309.3964529037476
D4:22:CD:00:05:6E,35.778831481933594,8.48330307006836,32.89455032348633,2.7265138626098633,-10.303657531738281,-7.680011749267578,2309.3964529037476
D4:22:CD:00:05:5E,-142.7982177734375,-81.79204559326172,-14.603263854980469,0.9757524728775024,-2.6861557960510254,-10.872688293457031,2309.3964529037476
D4:22:CD:00:05:5D,172.0396270751953,-71.84552764892578,-133.0820770263672,-1.837073564529419,2.64833402633667,0.924870491027832,2309.455451965332
D4:22:CD:00:05:6B,-130.9408721923828,-65.89215850830078,51.68428421020508,-1.698915719985962,5.697700500488281,-1.4864120483398438,2309.455451965332
D4:22:CD:00:49:AA,-179.6492156982422,-70.78018951416016,116.45768737792969,-4.330339431762695,1.1043000221252441,0.31835460662841797,2309.455451965332
D4:22:CD:00:05:6E,54.07569885253906,8.064566612243652,27.3460750579834,-3.127776622772217,-14.75369644165039,-6.594047546386719,2309.455451965332
D4:22:CD:00:05:5E,-160.72366333007812,-72.10499572753906,5.549079895019531,3.597093105316162,1.5688276290893555,-12.033191680908203,2309.455451965332
D4:22:CD:00:05:5D,175.62327575683594,-73.19873809814453,-137.83547973632812,-2.9919533729553223,2.0229439735412598,0.05286121368408203,2309.4860095977783
D4:22:CD:00:05:6B,-128.11614990234375,-68.98788452148438,42.50059127807617,-7.093830108642578,3.0478053092956543,1.4067344665527344,2309.4860095977783
D4:22:CD:00:49:AA,175.73963928222656,-69.91761779785156,120.23854064941406,-3.7691245079040527,0.8848319053649902,-0.2281970977783203,2309.4860095977783
D4:22:CD:00:05:6E,74.94022369384766,2.856259346008301,27.23581314086914,-8.088972091674805,-7.662322044372559,-8.865156173706055,2309.4860095977783
D4:22:CD:00:05:5E,-165.42758178710938,-64.65381622314453,11.904464721679688,2.486898422241211,2.71336030960083,-11.176349639892578,2309.4860095977783
D4:22:CD:00:05:5D,179.83258056640625,-73.39102172851562,-143.5738525390625,-1.0534286499023438,-0.8635854721069336,-0.8105497360229492,2309.5159978866577
D4:22:CD:00:05:6B,-118.96575164794922,-71.9113540649414,28.071550369262695,-4.824117660522461,-1.4444847106933594,-1.852735996246338,2309.5159978866577
D4:22:CD:00:49:AA,170.4962158203125,-69.9236068725586,124.14511108398438,-1.6229958534240723,1.5694525241851807,-2.667323112487793,2309.5159978866577
D4:22:CD:00:05:6E,90.92310333251953,-8.266509056091309,25.943689346313477,-5.596693992614746,1.3354759216308594,3.0076894760131836,2309.5159978866577
D4:22:CD:00:05:5E,-168.1280059814453,-60.207305908203125,15.058838844299316,1.9682352542877197,1.4830965995788574,-9.01447868347168,2309.5159978866577
D4:22:CD:00:05:5D,-178.72622680664062,-72.11061096191406,-146.2283935546875,-1.1761047840118408,-2.748562812805176,-1.4459218978881836,2309.5459983348846
D4:22:CD:00:05:6B,-104.86800384521484,-73.42504119873047,9.038025856018066,-3.135025978088379,-0.5180567502975464,-5.602972984313965,2309.5459983348846
D4:22:CD:00:49:AA,164.07081604003906,-69.72869110107422,128.6768341064453,-0.4467225670814514,0.16470468044281006,-4.29085636138916,2309.5459983348846
D4:22:CD:00:05:6E,104.25650024414062,-22.43949317932129,18.075096130371094,2.8071327209472656,2.7918386459350586,-0.8315362930297852,2309.5459983348846
D4:22:CD:00:05:5E,-170.72425842285156,-59.451026916503906,16.8614559173584,3.6921019554138184,5.119546890258789,-6.5698089599609375,2309.5459983348846
D4:22:CD:00:05:5D,178.92247009277344,-69.38682556152344,-143.0333709716797,-1.3815951347351074,-1.6742591857910156,-1.4930734634399414,2309.5755486488342
D4:22:CD:00:05:6B,-87.83132934570312,-73.51458740234375,-13.443092346191406,-2.5086069107055664,0.07797729969024658,-7.746631622314453,2309.5755486488342
D4:22:CD:00:49:AA,156.8909149169922,-69.09913635253906,133.33375549316406,-1.2673890590667725,0.3843976855278015,-3.614367961883545,2309.5755486488342
D4:22:CD:00:05:6E,124.3021469116211,-36.5850715637207,4.770184516906738,9.234375,-7.28291130065918,8.730070114135742,2309.5755486488342
D4:22:CD:00:05:5E,-172.66775512695312,-63.20750045776367,17.94779396057129,3.4644827842712402,1.787933349609375,0.49429893493652344,2309.5755486488342
D4:22:CD:00:05:5D,174.74981689453125,-65.1221694946289,-135.94517517089844,-1.9547967910766602,-3.3907675743103027,-0.8552007675170898,2309.606549501419
D4:22:CD:00:05:6B,-71.6754379272461,-71.77823638916016,-36.04179382324219,-4.663083076477051,-1.913532018661499,-9.000913619995117,2309.606549501419
D4:22:CD:00:49:AA,150.83294677734375,-69.27473449707031,137.3773651123047,-2.4670920372009277,-0.5749318599700928,-2.1161398887634277,2309.606549501419
D4:22:CD:00:05:6E,141.78611755371094,-50.84593963623047,-13.355498313903809,4.394826889038086,-14.98466682434082,19.771709442138672,2309.606549501419
D4:22:CD:00:05:5E,-177.34156799316406,-69.80078125,21.505956649780273,1.1584701538085938,0.48521119356155396,8.417402267456055,2309.606549501419
D4:22:CD:00:05:5D,172.02023315429688,-59.850528717041016,-128.9654998779297,0.7501825094223022,-1.0506672859191895,-1.605576515197754,2309.636549949646
D4:22:CD:00:05:6B,-59.22209167480469,-68.07378387451172,-55.79645538330078,-2.261934757232666,6.864397048950195,-5.368432998657227,2309.636549949646
D4:22:CD:00:49:AA,146.7728729248047,-70.48860931396484,141.52603149414062,-1.9641540050506592,-2.623892307281494,-3.7020883560180664,2309.636549949646
D4:22:CD:00:05:6E,138.08364868164062,-61.50621795654297,-37.06583786010742,-16.40131378173828,-14.03741455078125,28.991680145263672,2309.636549949646
D4:22:CD:00:05:5E,-177.44956970214844,-70.0561294555664,21.88589096069336,-1.2169489860534668,-0.5076924562454224,21.565113067626953,2309.636549949646
D4:22:CD:00:05:5D,171.57212829589844,-54.95347595214844,-123.33965301513672,4.524413108825684,1.4672679901123047,-1.891249179840088,2309.665562391281
D4:22:CD:00:05:6B,-49.47414016723633,-61.71859359741211,-72.70010375976562,-1.9815571308135986,7.131801605224609,1.127218246459961,2309.665562391281
D4:22:CD:00:49:AA,142.8695831298828,-71.25056457519531,145.833740234375,-1.7791693210601807,2.752070426940918,-0.8350677490234375,2309.665562391281
D4:22:CD:00:05:6E,109.2046890258789,-62.277732849121094,-46.97600555419922,32.94263458251953,-1.8550841808319092,-6.986344337463379,2309.665562391281
D4:22:CD:00:05:5E,-171.67510986328125,-70.22199249267578,15.361790657043457,3.1761279106140137,10.428091049194336,10.394948959350586,2309.665562391281
D4:22:CD:00:05:5D,172.28494262695312,-51.11834716796875,-119.57389831542969,5.310052871704102,-2.264291286468506,1.2379493713378906,2309.6960937976837
D4:22:CD:00:05:6B,-45.54499053955078,-54.08842468261719,-83.5897445678711,-0.38314056396484375,7.471216201782227,3.7820348739624023,2309.6960937976837
D4:22:CD:00:49:AA,138.6632080078125,-71.72998809814453,149.58042907714844,-2.7206664085388184,0.6603889465332031,3.9169435501098633,2309.6960937976837
D4:22:CD:00:05:6E,109.29076385498047,-59.831031799316406,-49.772499084472656,24.742713928222656,-19.486454010009766,-9.56088638305664,2309.6960937976837
D4:22:CD:00:05:5E,-164.5366668701172,-68.23594665527344,9.055912971496582,11.807985305786133,-5.185920715332031,14.051580429077148,2309.6960937976837
D4:22:CD:00:05:5D,173.75537109375,-48.699275970458984,-117.22924041748047,0.8179072141647339,1.5270049571990967,0.6498003005981445,2309.7560937404633
D4:22:CD:00:05:6B,-48.399269104003906,-46.31899642944336,-86.28819274902344,-3.705141544342041,16.4757080078125,6.047486305236816,2309.7560937404633
D4:22:CD:00:49:AA,139.39657592773438,-71.1535873413086,149.72010803222656,0.5295335054397583,-2.1161675453186035,5.926462173461914,2309.7560937404633
D4:22:CD:00:05:6E,119.76570129394531,-59.78011703491211,-46.33479309082031,3.51047420501709,3.925344944000244,10.813756942749023,2309.7560937404633
D4:22:CD:00:05:5E,-164.03564453125,-64.84309387207031,6.907616138458252,8.132623672485352,-6.694400787353516,14.933736801147461,2309.7560937404633
D4:22:CD:00:05:5D,175.2308349609375,-47.81835174560547,-115.82118225097656,-2.0415945053100586,1.5160017013549805,2.9218149185180664,2309.785825252533
D4:22:CD:00:05:6B,-59.26091384887695,-37.58169174194336,-78.67144775390625,-7.383709907531738,26.239341735839844,10.05889892578125,2309.785825252533
D4:22:CD:00:49:AA,139.97621154785156,-70.57813262939453,149.46221923828125,-1.9592559337615967,-2.274918556213379,9.420751571655273,2309.785825252533
D4:22:CD:00:05:6E,124.66744232177734,-59.60458755493164,-42.63044738769531,9.302745819091797,-2.9754719734191895,12.592391967773438,2309.785825252533
D4:22:CD:00:05:5E,-165.61993408203125,-62.4992561340332,7.905770778656006,3.747735023498535,-3.1222281455993652,11.934547424316406,2309.785825252533
