Device,EulerX,EulerY,EulerZ,FreeAccX,FreeAccY,FreeAccZ,Timestamp
D4:22:CD:00:05:5D,-162.1830596923828,-81.99275970458984,-69.21434783935547,-10.355720520019531,10.807077407836914,-7.981625556945801,2386.830459833145
D4:22:CD:00:05:6B,69.20440673828125,60.479835510253906,-44.77777862548828,-5.705104827880859,2.763233184814453,-5.770224571228027,2386.830459833145
D4:22:CD:00:49:AA,-174.72003173828125,-64.46460723876953,117.56747436523438,2.8125576972961426,0.971482515335083,-7.829964637756348,2386.830459833145
D4:22:CD:00:05:6E,-88.90596008300781,-68.92649841308594,-113.28195190429688,-2.406374931335449,-5.603278160095215,-8.929460525512695,2386.830459833145
D4:22:CD:00:05:5E,-34.58256530761719,-73.19361114501953,153.53982543945312,-7.314109802246094,7.389629364013672,-4.253054618835449,2386.830459833145
D4:22:CD:00:05:5D,173.38584899902344,-77.01923370361328,-38.854923248291016,-6.552461624145508,3.68520450592041,-3.5104494094848633,2386.8334605693817
D4:22:CD:00:05:6B,73.52811431884766,62.083106994628906,-47.169429779052734,-2.7493410110473633,2.7505264282226562,-7.889839172363281,2386.8334605693817
D4:22:CD:00:49:AA,-173.0321044921875,-63.87211227416992,117.40460205078125,7.075386047363281,2.714189052581787,-7.704456329345703,2386.8334605693817
D4:22:CD:00:05:6E,-73.2013931274414,-65.40257263183594,-117.25052642822266,-1.6645097732543945,-4.186880111694336,-8.402067184448242,2386.8334605693817
D4:22:CD:00:05:5E,-14.24760627746582,-61.958866119384766,128.96376037597656,-14.755243301391602,19.29995346069336,-4.739179611206055,2386.8334605693817
D4:22:CD:00:05:6B,70.03033447265625,64.01187133789062,-52.493438720703125,4.086986541748047,3.152057647705078,-5.298288345336914,2386.837460041046
D4:22:CD:00:49:AA,-172.1812744140625,-65.59247589111328,118.61597442626953,-2.0056042671203613,1.1243202686309814,-7.953479766845703,2386.837460041046
D4:22:CD:00:05:6E,-59.48281478881836,-63.30874252319336,-119.73126220703125,0.24169477820396423,-5.355588912963867,-9.710197448730469,2386.837460041046
D4:22:CD:00:05:5E,-13.614180564880371,-53.33344650268555,123.44979858398438,-8.325998306274414,22.965328216552734,-12.761865615844727,2386.837460041046
D4:22:CD:00:05:5D,-94.01451110839844,-62.82726287841797,-128.90675354003906,-0.7343003749847412,-0.9897365570068359,-0.9057292938232422,2386.839460372925
D4:22:CD:00:05:6B,-90.1960678100586,-33.09170150756836,-63.11457443237305,3.0229783058166504,2.6150054931640625,0.09491920471191406,2386.839460372925
D4:22:CD:00:49:AA,-171.13186645507812,-68.04548645019531,120.14559936523438,-3.911823272705078,0.7870837450027466,-8.252460479736328,2386.839460372925
D4:22:CD:00:05:5E,-15.084901809692383,-50.01485061645508,124.1021728515625,-11.797256469726562,11.954816818237305,-20.560924530029297,2386.839460372925
D4:22:CD:00:05:5D,-95.9876937866211,-64.37451171875,-125.9905014038086,-4.082563400268555,-2.184284210205078,-1.6825885772705078,2386.8414680957794
D4:22:CD:00:05:6B,-79.51797485351562,-27.34967613220215,-69.52006530761719,2.3042988777160645,0.9611012935638428,0.5582246780395508,2386.8414680957794
D4:22:CD:00:05:5E,-19.47600555419922,-53.009681701660156,126.48223876953125,-10.887496948242188,17.930320739746094,-15.578897476196289,2386.8414680957794
D4:22:CD:00:05:5D,-113.32865905761719,-70.39266967773438,-106.31671905517578,-0.7336523532867432,-0.15901967883110046,-1.3663511276245117,2386.9155509471893
D4:22:CD:00:05:6B,-63.55327224731445,-16.52912139892578,-77.55935668945312,2.581496238708496,-2.1429853439331055,-6.200559616088867,2386.9155509471893
D4:22:CD:00:49:AA,-169.8351287841797,-77.85530853271484,90.38720703125,1.8275699615478516,0.3209928870201111,-1.7440738677978516,2386.9155509471893
D4:22:CD:00:05:6E,-140.97662353515625,-82.20557403564453,-92.66069030761719,7.296220779418945,-1.4848253726959229,10.485580444335938,2386.9155509471893
D4:22:CD:00:05:5E,-59.67190170288086,-82.69535064697266,-97.38610076904297,-3.221667766571045,-0.24347713589668274,11.676351547241211,2386.9155509471893
D4:22:CD:00:05:5D,-135.9497833251953,-71.0162124633789,-80.87384796142578,-7.406642913818359,-3.720766067504883,-1.7793445587158203,2386.945564508438
D4:22:CD:00:05:6B,-56.0602912902832,-7.204070568084717,-82.56214141845703,4.59763240814209,-0.5974745750427246,2.4886112213134766,2386.945564508438
D4:22:CD:00:49:AA,176.1165771484375,-78.88655090332031,103.50118255615234,4.249817848205566,1.4798789024353027,0.16096973419189453,2386.945564508438
D4:22:CD:00:05:6E,-89.35809326171875,-69.0165023803711,-140.77218627929688,9.035392761230469,4.414112091064453,17.153858184814453,2386.945564508438
D4:22:CD:00:05:5E,-105.03266906738281,-79.37029266357422,-51.124595642089844,1.1426277160644531,-6.782807350158691,11.158079147338867,2386.945564508438
D4:22:CD:00:05:5D,-158.9827880859375,-68.04329681396484,-56.84951400756836,-3.061476707458496,-1.2292869091033936,-0.061278343200683594,2386.9750900268555
D4:22:CD:00:05:6B,-51.794273376464844,1.7800524234771729,-86.29386138916016,4.723659515380859,0.15436434745788574,11.97894287109375,2386.9750900268555
D4:22:CD:00:49:AA,128.2755889892578,-78.3314208984375,148.380126953125,3.7545857429504395,-1.1161327362060547,-0.08450603485107422,2386.9750900268555
D4:22:CD:00:05:6E,-80.97063446044922,-53.63385772705078,-142.36825561523438,-9.621286392211914,1.2299058437347412,12.922826766967773,2386.9750900268555
D4:22:CD:00:05:5E,-153.1256103515625,-74.47920989990234,-3.3553266525268555,2.7944631576538086,-7.312888145446777,21.38454818725586,2386.9750900268555
D4:22:CD:00:05:5D,-169.7759552001953,-63.56420135498047,-46.32527160644531,-4.138365745544434,-0.2112724781036377,1.1980266571044922,2387.0050899982452
D4:22:CD:00:05:6B,-50.14035415649414,14.087506294250488,-85.72952270507812,8.940967559814453,-2.399059772491455,22.80202865600586,2387.0050899982452
D4:22:CD:00:49:AA,119.65819549560547,-74.93702697753906,155.63385009765625,-7.017576217651367,-4.189841270446777,5.303504943847656,2387.0050899982452
D4:22:CD:00:05:6E,-86.9498519897461,-51.42063903808594,-132.8447723388672,-9.893365859985352,-3.011129856109619,16.186092376708984,2387.0050899982452
D4:22:CD:00:05:5E,-172.77383422851562,-66.25054931640625,15.6655855178833,3.583876609802246,-2.3929662704467773,22.38470458984375,2387.0050899982452
D4:22:CD:00:05:5D,-175.1756134033203,-59.982948303222656,-42.09229278564453,-1.9308886528015137,0.2534443140029907,1.4921655654907227,2387.0350902080536
D4:22:CD:00:05:6B,-39.28510284423828,29.0369930267334,-78.87638092041016,9.917989730834961,-13.08189582824707,19.478904724121094,2387.0350902080536
D4:22:CD:00:49:AA,129.71388244628906,-75.21797180175781,145.58621215820312,-0.3675679564476013,-2.9743151664733887,7.189088821411133,2387.0350902080536
D4:22:CD:00:05:6E,-88.69783782958984,-54.766212463378906,-125.68419647216797,-17.240039825439453,-11.15835952758789,16.695030212402344,2387.0350902080536
D4:22:CD:00:05:5E,-176.35720825195312,-59.987823486328125,18.73697853088379,-1.2062196731567383,1.4223690032958984,12.3028564453125,2387.0350902080536
D4:22:CD:00:05:5D,-177.5802001953125,-57.90044403076172,-40.42963790893555,-2.456305980682373,2.0529303550720215,0.25332164764404297,2387.0656311511993
D4:22:CD:00:05:6B,-17.2760066986084,40.60489273071289,-64.6729507446289,3.431919574737549,-18.520244598388672,12.71047592163086,2387.0656311511993
D4:22:CD:00:49:AA,140.88397216796875,-74.77547454833984,134.50677490234375,1.3703083992004395,-0.041672199964523315,4.3254289627075195,2387.0656311511993
D4:22:CD:00:05:6E,-81.65071105957031,-60.9235725402832,-125.50938415527344,-18.801143646240234,-11.65650749206543,7.798885345458984,2387.0656311511993
D4:22:CD:00:05:5E,-176.267822265625,-56.83465576171875,17.094106674194336,-4.022280693054199,4.099246025085449,-0.43515682220458984,2387.0656311511993
D4:22:CD:00:05:5D,-177.8969268798828,-56.87846755981445,-40.026432037353516,-2.0501041412353516,0.46760183572769165,1.3078203201293945,2387.0957765579224
D4:22:CD:00:05:6B,9.705008506774902,44.3330078125,-47.10165023803711,-0.6817312240600586,-15.093034744262695,6.30150032043457,2387.0957765579224
D4:22:CD:00:49:AA,148.99920654296875,-73.7710952758789,127.01032257080078,-2.417238712310791,0.7175445556640625,6.272609710693359,2387.0957765579224
D4:22:CD:00:05:6E,-63.08842086791992,-65.19801330566406,-132.1346435546875,-17.589385986328125,-11.865503311157227,-2.1381120681762695,2387.0957765579224
D4:22:CD:00:05:5E,-173.8324737548828,-59.03490447998047,14.278216361999512,-3.8623619079589844,4.939713478088379,-8.015888214111328,2387.0957765579224
D4:22:CD:00:05:5D,-177.5242919921875,-57.03981018066406,-40.499794006347656,-1.577028751373291,0.8079783916473389,1.7241086959838867,2387.1254255771637
D4:22:CD:00:05:6B,30.40491485595703,42.078147888183594,-35.40469741821289,-7.722757339477539,-11.984052658081055,3.134577751159668,2387.1254255771637
D4:22:CD:00:49:AA,159.9589385986328,-72.06353759765625,117.48249053955078,-6.115189552307129,-0.455704927444458,9.974418640136719,2387.1254255771637
D4:22:CD:00:05:6E,-37.210453033447266,-66.1176528930664,-141.62359619140625,-13.991893768310547,-15.936965942382812,-7.699209213256836,2387.1254255771637
D4:22:CD:00:05:5E,-168.5833282470703,-67.35437774658203,9.560515403747559,0.7524697780609131,6.20045280456543,-11.527753829956055,2387.1254255771637
D4:22:CD:00:05:5D,-177.21212768554688,-58.84098815917969,-40.7765007019043,-1.3688032627105713,3.0268759727478027,3.0741043090820312,2387.1860678195953
D4:22:CD:00:05:6B,39.958885192871094,37.51091384887695,-31.379981994628906,-13.913450241088867,-7.558560371398926,-1.511857032775879,2387.1860678195953
D4:22:CD:00:49:AA,172.94985961914062,-71.06831359863281,107.98129272460938,-4.627681732177734,2.0308637619018555,14.057445526123047,2387.1860678195953
D4:22:CD:00:05:6E,-12.513486862182617,-65.14044952392578,-148.0206756591797,-11.02436637878418,-15.972175598144531,-11.380025863647461,2387.1860678195953
D4:22:CD:00:05:5E,-148.69200134277344,-80.72077178955078,-7.8211846351623535,6.790787696838379,7.8622236251831055,-8.461990356445312,2387.1860678195953
D4:22:CD:00:05:5D,-177.5340576171875,-63.219966888427734,-39.15286636352539,-2.828256607055664,2.1211981773376465,4.271717071533203,2387.215068101883
D4:22:CD:00:05:6B,42.176666259765625,33.599266052246094,-31.736204147338867,-10.431941986083984,-6.174176216125488,-6.190526008605957,2387.215068101883
D4:22:CD:00:49:AA,-175.6589813232422,-73.45854949951172,103.41204833984375,-2.929439067840576,3.36065673828125,6.817237854003906,2387.215068101883
D4:22:CD:00:05:6E,10.259791374206543,-65.38153839111328,-150.3246307373047,-5.438406944274902,-14.125640869140625,-17.20781707763672,2387.215068101883
D4:22:CD:00:05:5E,-13.182672500610352,-79.6360855102539,-139.03872680664062,2.398989677429199,3.730246067047119,-3.698690414428711,2387.215068101883
D4:22:CD:00:05:5D,179.39366149902344,-72.46572875976562,-34.92383575439453,-6.123140335083008,-5.705330848693848,6.505367279052734,2387.2450675964355
D4:22:CD:00:05:6B,41.85768508911133,31.97181510925293,-33.56781005859375,-2.8961386680603027,2.2228336334228516,-4.900228500366211,2387.2450675964355
D4:22:CD:00:49:AA,-161.37069702148438,-75.1748275756836,94.55518341064453,-0.3469470739364624,1.5669975280761719,1.2509984970092773,2387.2450675964355
D4:22:CD:00:05:6E,35.30238723754883,-68.20941925048828,-156.2845916748047,1.2624773979187012,-9.518081665039062,-19.223438262939453,2387.2450675964355
D4:22:CD:00:05:5E,3.0410683155059814,-62.268272399902344,-155.94085693359375,-9.777660369873047,-7.001128196716309,-3.6500515937805176,2387.2450675964355
D4:22:CD:00:05:5D,174.1719512939453,-75.50984191894531,-24.179338455200195,-5.39034366607666,8.65915298461914,1.4378223419189453,2387.275021314621
D4:22:CD:00:05:6B,42.221656799316406,33.19514846801758,-38.63783264160156,4.57453727722168,6.252763748168945,-4.4012041091918945,2387.275021314621
D4:22:CD:00:49:AA,-145.5238037109375,-76.253662109375,83.920654296875,-1.4000134468078613,1.7654235363006592,-10.560567855834961,2387.275021314621
D4:22:CD:00:05:6E,60.51639938354492,-71.24623107910156,-170.5928955078125,3.4744815826416016,-7.9137067794799805,-12.105871200561523,2387.275021314621
D4:22:CD:00:05:5E,2.1197707653045654,-46.876651763916016,-162.11947631835938,-23.30893325805664,-14.396598815917969,-10.623098373413086,2387.275021314621
D4:22:CD:00:05:5D,177.2119140625,-70.31468200683594,-11.027486801147461,-1.4252591133117676,-2.060710906982422,-2.895040512084961,2387.3051013946533
D4:22:CD:00:05:6B,41.28498840332031,38.86710739135742,-47.411842346191406,7.561452865600586,3.029879570007324,-3.3703513145446777,2387.3051013946533
D4:22:CD:00:49:AA,-136.1101837158203,-77.25647735595703,77.87408447265625,3.221587657928467,1.7334856986999512,-13.222352981567383,2387.3051013946533
D4:22:CD:00:05:6E,79.51425170898438,-72.7032699584961,174.4546356201172,4.082863807678223,-5.103789329528809,-9.368324279785156,2387.3051013946533
D4:22:CD:00:05:5E,-4.950497150421143,-38.17098617553711,-164.89959716796875,-27.337844848632812,-4.32167911529541,-18.757137298583984,2387.3051013946533
D4:22:CD:00:05:5D,179.51889038085938,-68.59810638427734,-8.47300910949707,16.78188705444336,7.822270393371582,-14.183052062988281,2387.335176706314
D4:22:CD:00:05:6B,30.31785011291504,46.957611083984375,-63.58999252319336,12.157037734985352,5.3056440353393555,-7.764286994934082,2387.335176706314
D4:22:CD:00:49:AA,-127.34445190429688,-79.37242126464844,70.65962219238281,0.655622124671936,-0.8303307294845581,-6.178818702697754,2387.335176706314
D4:22:CD:00:05:6E,93.87117004394531,-72.83476257324219,164.81219482421875,2.0837907791137695,0.5711835622787476,-9.389495849609375,2387.335176706314
D4:22:CD:00:05:5E,-6.678255558013916,-35.127830505371094,-163.5318145751953,-13.854938507080078,-5.296039581298828,-24.160362243652344,2387.335176706314
D4:22:CD:00:05:5D,-171.99867248535156,-70.66356658935547,-15.577773094177246,1.7421045303344727,2.0015578269958496,-7.88161563873291,2387.3657126426697
D4:22:CD:00:05:6B,2.9754106998443604,51.808349609375,-93.16502380371094,0.2879452705383301,-5.992889404296875,-22.043922424316406,2387.3657126426697
D4:22:CD:00:49:AA,-106.72074890136719,-80.94486236572266,51.487239837646484,-2.059274196624756,-3.284452438354492,-8.913934707641602,2387.3657126426697
D4:22:CD:00:05:6E,106.70860290527344,-72.47289276123047,166.4796905517578,19.6502685546875,2.688575267791748,-3.3247628211975098,2387.3657126426697
D4:22:CD:00:05:5E,-5.511488914489746,-37.2947883605957,-163.17405700683594,-7.959805488586426,-8.104118347167969,-19.614383697509766,2387.3657126426697
D4:22:CD:00:05:5D,-173.21432495117188,-71.0022964477539,-21.80535888671875,-16.86734390258789,-11.96859359741211,-2.6828927993774414,2387.395718574524
D4:22:CD:00:05:6B,-25.478168487548828,44.85871124267578,-127.917724609375,-23.10144805908203,-18.002796173095703,-45.291114807128906,2387.395718574524
D4:22:CD:00:49:AA,-88.23056030273438,-80.85331726074219,33.17824172973633,3.7703700065612793,-3.1057915687561035,-11.645742416381836,2387.395718574524
D4:22:CD:00:05:6E,103.55052185058594,-72.8278579711914,171.87538146972656,16.049179077148438,1.9190025329589844,-3.4278979301452637,2387.395718574524
D4:22:CD:00:05:5E,-9.275792121887207,-42.47979736328125,-161.7663116455078,-10.36843490600586,-6.817922592163086,-10.021917343139648,2387.395718574524
D4:22:CD:00:05:5D,179.79811096191406,-69.58340454101562,-19.826086044311523,5.88398551940918,-10.227867126464844,-3.0257797241210938,2387.425720691681
D4:22:CD:00:05:6B,-26.469385147094727,40.043968200683594,-140.28085327148438,1.672614336013794,9.409952163696289,-11.11117935180664,2387.425720691681
D4:22:CD:00:49:AA,-72.45165252685547,-79.97189331054688,17.286266326904297,0.7524547576904297,0.8277702331542969,-3.1459732055664062,2387.425720691681
D4:22:CD:00:05:6E,92.23866271972656,-74.81436157226562,174.8639373779297,5.932817459106445,-0.4592936038970947,0.11290931701660156,2387.425720691681
D4:22:CD:00:05:5E,-16.52077293395996,-49.05698013305664,-158.54351806640625,-13.291576385498047,-5.479205131530762,-3.2846717834472656,2387.425720691681
D4:22:CD:00:05:5D,177.4803924560547,-68.84015655517578,-13.300520896911621,2.4900503158569336,-0.8325306177139282,2.7273778915405273,2387.485822916031
D4:22:CD:00:05:6B,-21.488916397094727,43.861289978027344,-128.65692138671875,-14.422794342041016,3.101076126098633,-0.9060173034667969,2387.485822916031
D4:22:CD:00:49:AA,-60.62815475463867,-78.65408325195312,5.873045921325684,-2.3285064697265625,1.7013297080993652,1.0810766220092773,2387.485822916031
D4:22:CD:00:05:6E,82.70858001708984,-78.87142944335938,177.12669372558594,4.650200843811035,-1.2301020622253418,7.962455749511719,2387.485822916031
D4:22:CD:00:05:5E,-24.119243621826172,-56.589298248291016,-153.4904022216797,-19.975677490234375,-3.6060633659362793,-8.780559539794922,2387.485822916031
D4:22:CD:00:05:5D,176.37098693847656,-68.24017333984375,-7.83899450302124,3.364025115966797,4.8522844314575195,1.6284255981445312,2387.5148229599
D4:22:CD:00:05:6B,3.6180245876312256,49.445865631103516,-113.73735809326172,-10.108369827270508,-8.828433990478516,-17.932621002197266,2387.5148229599
D4:22:CD:00:49:AA,-60.63447189331055,-79.25926208496094,5.500819683074951,-3.224188804626465,0.8033585548400879,-0.35486698150634766,2387.5148229599
D4:22:CD:00:05:6E,75.42034149169922,-84.4759292602539,178.5242156982422,9.655916213989258,-2.4404869079589844,6.768709182739258,2387.5148229599
D4:22:CD:00:05:5E,-27.276212692260742,-62.0032844543457,-149.38978576660156,7.029970169067383,-3.1513724327087402,6.803739547729492,2387.5148229599
D4:22:CD:00:05:5D,173.26739501953125,-67.745361328125,-3.2911248207092285,1.6848094463348389,0.0519702211022377,3.8761043548583984,2387.545822620392
D4:22:CD:00:05:6B,32.250125885009766,48.11320495605469,-88.34392547607422,-1.7502503395080566,-12.981405258178711,-15.04293441772461,2387.545822620392
D4:22:CD:00:49:AA,-61.41109848022461,-80.79790496826172,5.006145477294922,0.4984647035598755,-1.4613502025604248,4.936975479125977,2387.545822620392
D4:22:CD:00:05:6E,-159.30726623535156,-89.36573028564453,41.58412170410156,9.684869766235352,-7.159502983093262,4.3840436935424805,2387.545822620392
D4:22:CD:00:05:5E,-23.539209365844727,-64.08929443359375,-151.9049072265625,6.921381950378418,-15.909055709838867,9.24913215637207,2387.545822620392
D4:22:CD:00:05:5D,166.91751098632812,-67.28022003173828,1.5336557626724243,2.4204277992248535,-1.0900139808654785,2.1113624572753906,2387.575380563736
D4:22:CD:00:05:6B,47.65211486816406,38.843109130859375,-68.36802673339844,-1.0347962379455566,-11.079561233520508,-6.311692237854004,2387.575380563736
D4:22:CD:00:49:AA,-59.551673889160156,-82.20235443115234,2.8251006603240967,-0.7568631172180176,-0.23848608136177063,2.5290279388427734,2387.575380563736
D4:22:CD:00:05:6E,-153.85379028320312,-83.3204574584961,17.59511375427246,1.8088369369506836,-7.309897422790527,3.7303762435913086,2387.575380563736
D4:22:CD:00:05:5E,-22.45261573791504,-65.91246795654297,-154.4143524169922,-4.657248497009277,3.956878662109375,7.907773971557617,2387.575380563736
D4:22:CD:00:05:5D,159.49130249023438,-66.10333251953125,7.151745796203613,3.5038485527038574,-0.2219732701778412,2.8921470642089844,2387.6053733825684
D4:22:CD:00:05:6B,50.49979782104492,27.607799530029297,-54.66304397583008,0.20909035205841064,-1.307241439819336,5.223916053771973,2387.6053733825684
D4:22:CD:00:49:AA,-65.44860076904297,-84.28131866455078,7.171293258666992,4.250252723693848,1.5100314617156982,0.5525445938110352,2387.6053733825684
D4:22:CD:00:05:6E,-169.31515502929688,-77.20883178710938,14.717763900756836,-0.6814206838607788,3.512132167816162,3.0453405380249023,2387.6053733825684
D4:22:CD:00:05:5E,-23.273983001708984,-68.01162719726562,-155.87498474121094,-4.332802772521973,-2.9842371940612793,1.6880369186401367,2387.6053733825684
D4:22:CD:00:05:5D,151.52268981933594,-64.74687194824219,12.402575492858887,3.1589465141296387,-1.0932786464691162,3.664175033569336,2387.6354525089264
D4:22:CD:00:05:6B,42.146217346191406,17.660356521606445,-44.76422882080078,-0.7191476821899414,6.54886531829834,2.20028018951416,2387.6354525089264
D4:22:CD:00:49:AA,-86.38392639160156,-86.0353775024414,25.059459686279297,3.8043360710144043,-0.9938033819198608,4.192033767700195,2387.6354525089264
D4:22:CD:00:05:6E,-177.04156494140625,-73.21184539794922,7.824924468994141,0.5936672687530518,4.385466575622559,-0.8482980728149414,2387.6354525089264
D4:22:CD:00:05:5E,-21.647947311401367,-69.71300506591797,-158.73599243164062,-5.365487098693848,-0.18645331263542175,-3.1046996116638184,2387.6354525089264
D4:22:CD:00:05:5D,143.05148315429688,-63.78683853149414,16.671478271484375,6.074875831604004,1.5628407001495361,2.055668830871582,2387.6650869846344
D4:22:CD:00:05:6B,26.47978973388672,9.202104568481445,-37.22522735595703,2.520705223083496,21.246814727783203,5.736790657043457,2387.6650869846344
D4:22:CD:00:49:AA,-130.77032470703125,-85.27930450439453,66.11341857910156,3.2200145721435547,-1.4077191352844238,1.4540128707885742,2387.6650869846344
D4:22:CD:00:05:6E,178.8617401123047,-70.87688446044922,3.0598185062408447,-3.2370805740356445,5.720837593078613,-3.650501251220703,2387.6650869846344
D4:22:CD:00:05:5E,-20.54297637939453,-71.17236328125,-161.12030029296875,-3.8791141510009766,-2.615421772003174,-1.496373176574707,2387.6650869846344
D4:22:CD:00:05:5D,137.49366760253906,-61.34181213378906,15.853026390075684,-4.794889450073242,15.321752548217773,2.82106876373291,2387.6960985660553
D4:22:CD:00:05:6B,3.306419610977173,0.7239764928817749,-31.108810424804688,-2.145386219024658,15.732711791992188,-3.1018552780151367,2387.6960985660553
D4:22:CD:00:49:AA,-154.67449951171875,-81.54237365722656,86.2934341430664,8.755653381347656,0.7082346677780151,-4.362078666687012,2387.6960985660553
D4:22:CD:00:05:6E,176.67617797851562,-69.88411712646484,1.658754825592041,-6.354859352111816,1.346989393234253,-3.2279181480407715,2387.6960985660553
D4:22:CD:00:05:5E,-25.754058837890625,-72.97315216064453,-158.65211486816406,-3.1483983993530273,-2.7080183029174805,2.1591548919677734,2387.6960985660553
D4:22:CD:00:05:5D,137.8187255859375,-56.69109344482422,7.227197647094727,-13.477479934692383,15.891735076904297,9.620153427124023,2387.7250986099243
D4:22:CD:00:05:6B,-12.271288871765137,-7.9451799392700195,-27.753265380859375,-3.705960273742676,-5.034609794616699,0.05050373077392578,2387.7250986099243
D4:22:CD:00:49:AA,-164.20375061035156,-78.8641357421875,90.8161392211914,6.240030288696289,-2.5272045135498047,-2.432835578918457,2387.7250986099243
D4:22:CD:00:05:6E,174.3870391845703,-70.80680084228516,3.137913703918457,-6.66641902923584,2.01930570602417,-3.806990146636963,2387.7250986099243
D4:22:CD:00:05:5E,-27.4648494720459,-73.9429931640625,-157.56338500976562,-3.3035831451416016,1.015749454498291,0.38167762756347656,2387.7250986099243
D4:22:CD:00:05:5D,136.707763671875,-49.699615478515625,-4.008673667907715,-4.509330749511719,13.795389175415039,1.822587013244629,2387.785837650299
D4:22:CD:00:05:6B,-18.24248695373535,-16.769268035888672,-26.346729278564453,3.6606264114379883,7.391207695007324,-3.285019874572754,2387.785837650299
D4:22:CD:00:49:AA,-170.26846313476562,-77.87101745605469,93.3957290649414,-2.4317002296447754,-0.228350430727005,1.2492876052856445,2387.785837650299
D4:22:CD:00:05:6E,173.6084442138672,-73.08198547363281,7.540785789489746,-6.998263359069824,1.3277459144592285,-3.2061643600463867,2387.785837650299
D4:22:CD:00:05:5E,-35.1414794921875,-74.61166381835938,-151.61227416992188,-4.33565616607666,-1.8261756896972656,-1.6209115982055664,2387.785837650299
D4:22:CD:00:05:5D,140.64122009277344,-40.7176513671875,-13.886856079101562,-0.16100820899009705,8.087665557861328,-6.158224105834961,2387.814837694168
D4:22:CD:00:05:6B,-27.50537109375,-26.245248794555664,-26.26833724975586,2.7967538833618164,1.698890209197998,-6.274064064025879,2387.814837694168
D4:22:CD:00:49:AA,-172.64645385742188,-76.65691375732422,94.82322692871094,-1.7734878063201904,0.4630090594291687,0.11698246002197266,2387.814837694168
D4:22:CD:00:05:6E,170.90493774414062,-75.5299072265625,16.796337127685547,-4.789172172546387,0.027489591389894485,-2.725468158721924,2387.814837694168
D4:22:CD:00:05:5E,-49.62368392944336,-75.92442321777344,-139.67926025390625,-5.464585304260254,-6.254476547241211,-5.831452369689941,2387.814837694168
D4:22:CD:00:05:5D,148.21511840820312,-31.700031280517578,-22.289396286010742,1.0007119178771973,3.43898868560791,-11.818340301513672,2387.84583735466
D4:22:CD:00:05:6B,-35.47569274902344,-36.60140609741211,-26.137964248657227,0.04310375452041626,-1.9508721828460693,-2.8546142578125,2387.84583735466
D4:22:CD:00:49:AA,-173.81028747558594,-76.1843032836914,95.8956298828125,3.5872387886047363,1.3405430316925049,-3.2275819778442383,2387.84583735466
D4:22:CD:00:05:6E,163.506591796875,-77.63310241699219,33.66669845581055,-2.6675305366516113,-1.534644365310669,-2.821204662322998,2387.84583735466
D4:22:CD:00:05:5E,-56.20327377319336,-78.12645721435547,-131.65435791015625,-5.605179786682129,-5.967302322387695,-7.814069747924805,2387.84583735466
D4:22:CD:00:05:5D,157.38841247558594,-24.02731704711914,-29.429597854614258,0.5290353298187256,0.12594982981681824,-12.786006927490234,2387.8753790855408
D4:22:CD:00:05:6B,-40.183258056640625,-48.547325134277344,-25.465951919555664,3.6477646827697754,-2.1596789360046387,-4.079998016357422,2387.8753790855408
D4:22:CD:00:49:AA,-175.1707000732422,-75.83586120605469,97.9338607788086,3.2878832817077637,2.3584437370300293,-4.566158294677734,2387.8753790855408
D4:22:CD:00:05:6E,150.37188720703125,-78.50328826904297,57.37051773071289,-1.4920320510864258,-4.985912322998047,-0.7124128341674805,2387.8753790855408
D4:22:CD:00:05:5E,-69.13077545166016,-80.24835205078125,-116.25971221923828,-4.529855728149414,-0.9886304140090942,-0.8300180435180664,2387.8753790855408
D4:22:CD:00:05:5D,165.35633850097656,-18.759370803833008,-35.961673736572266,-0.5263572931289673,-2.4711966514587402,-9.681539535522461,2387.905379295349
D4:22:CD:00:05:6B,-44.15419387817383,-63.228912353515625,-25.877643585205078,4.963029861450195,-3.465099334716797,6.546659469604492,2387.905379295349
D4:22:CD:00:49:AA,-175.78309631347656,-75.64987182617188,99.05589294433594,0.8639649152755737,2.047398567199707,-4.473344802856445,2387.905379295349
D4:22:CD:00:05:6E,128.5902557373047,-76.42151641845703,84.48551940917969,2.810300350189209,-14.312246322631836,5.295132637023926,2387.905379295349
D4:22:CD:00:05:5E,-99.74658966064453,-79.14983367919922,-87.43946838378906,-4.756148338317871,-3.7518038749694824,-1.0326976776123047,2387.905379295349
D4:22:CD:00:05:5D,168.98789978027344,-17.03470802307129,-42.50998306274414,1.2664995193481445,-4.861232757568359,-9.948970794677734,2387.9353787899017
D4:22:CD:00:05:6B,-22.15870475769043,-79.13604736328125,-49.840545654296875,0.37899458408355713,-0.6328974962234497,40.41291046142578,2387.9353787899017
D4:22:CD:00:49:AA,-175.28858947753906,-75.8464126586914,98.77285766601562,1.7162163257598877,0.2564900517463684,-1.6376752853393555,2387.9353787899017
D4:22:CD:00:05:6E,104.24867248535156,-69.4813003540039,108.01448059082031,7.127903938293457,-6.0823516845703125,10.64927864074707,2387.9353787899017
D4:22:CD:00:05:5E,-117.81809997558594,-76.60960388183594,-70.42040252685547,-5.595108985900879,-2.4431586265563965,0.27135276794433594,2387.9353787899017
D4:22:CD:00:05:5D,166.01866149902344,-20.155000686645508,-48.95645523071289,1.8106648921966553,-15.699312210083008,-15.628137588500977,2387.965394973755
D4:22:CD:00:05:6B,46.04069900512695,-78.7977294921875,-112.36251068115234,-5.641472816467285,-5.705866813659668,21.601932525634766,2387.965394973755
D4:22:CD:00:49:AA,-170.39657592773438,-76.24371337890625,94.84927368164062,-0.8963593244552612,0.5457663536071777,-0.3678112030029297,2387.965394973755
D4:22:CD:00:05:6E,86.10154724121094,-57.60956573486328,125.236083984375,12.693277359008789,-2.233886241912842,12.809402465820312,2387.965394973755
D4:22:CD:00:05:5E,-127.62723541259766,-74.16100311279297,-61.47865676879883,-5.677043914794922,-2.1298093795776367,0.6473836898803711,2387.965394973755
D4:22:CD:00:05:5D,160.25389099121094,-24.978961944580078,-53.985450744628906,-7.85427188873291,-4.5385236740112305,48.72767639160156,2387.9949309825897
D4:22:CD:00:05:6B,20.281574249267578,-78.42572021484375,-83.65609741210938,19.852432250976562,-3.620211601257324,7.128208160400391,2387.9949309825897
D4:22:CD:00:49:AA,-164.72958374023438,-76.71270751953125,90.74054718017578,3.950805187225342,1.808070182800293,1.9950485229492188,2387.9949309825897
D4:22:CD:00:05:6E,76.4539566040039,-42.618770599365234,136.1614990234375,18.460124969482422,5.7297563552856445,10.08159065246582,2387.9949309825897
D4:22:CD:00:05:5E,-132.3019256591797,-73.22368621826172,-57.32258224487305,-6.558662414550781,-1.2396929264068604,-1.490605354309082,2387.9949309825897
D4:22:CD:00:05:5D,155.9429168701172,-24.73287010192871,-51.53337478637695,1.0782835483551025,-25.404483795166016,12.415468215942383,2388.025923728943
D4:22:CD:00:05:6B,-37.890201568603516,-69.8807144165039,-34.46897888183594,8.769073486328125,-18.359310150146484,27.056949615478516,2388.025923728943
D4:22:CD:00:49:AA,-163.40716552734375,-76.8394546508789,89.32897186279297,6.28334903717041,2.9019670486450195,5.220515251159668,2388.025923728943
D4:22:CD:00:05:6E,74.29182434082031,-27.683727264404297,140.49166870117188,24.590686798095703,-2.1755595207214355,15.519514083862305,2388.025923728943
D4:22:CD:00:05:5E,-133.4447479248047,-74.10922241210938,-56.37221145629883,-6.432010650634766,-1.653893232345581,0.5213346481323242,2388.025923728943
D4:22:CD:00:05:5D,162.04466247558594,-19.3963680267334,-45.3570671081543,11.197078704833984,-14.191028594970703,14.833988189697266,2388.0854790210724
D4:22:CD:00:05:6B,-45.225284576416016,-57.54912567138672,-29.480937957763672,12.145559310913086,-7.973791122436523,12.32094955444336,2388.0854790210724
D4:22:CD:00:49:AA,-168.78529357910156,-75.1218490600586,91.91659545898438,4.044219017028809,-2.098245620727539,8.204418182373047,2388.0854790210724
D4:22:CD:00:05:6E,73.72489929199219,-9.678903579711914,139.66123962402344,13.258722305297852,5.281402587890625,23.773727416992188,2388.0854790210724
D4:22:CD:00:05:5E,-129.93991088867188,-76.67192840576172,-59.73880386352539,-6.943879127502441,-1.2347681522369385,-0.05992698669433594,2388.0854790210724
D4:22:CD:00:05:5D,163.25247192382812,-11.733658790588379,-42.39718246459961,8.147869110107422,-19.524303436279297,16.61498260498047,2388.1154823303223
D4:22:CD:00:05:6B,-42.90379333496094,-49.83533477783203,-34.8475227355957,7.412258148193359,-6.0766143798828125,-0.8018474578857422,2388.1154823303223
D4:22:CD:00:49:AA,-171.46548461914062,-74.34735107421875,92.95361328125,-1.5513813495635986,0.5249961614608765,8.971118927001953,2388.1154823303223
D4:22:CD:00:05:6E,67.7197036743164,9.117964744567871,134.88917541503906,-4.996936798095703,1.2601518630981445,19.315494537353516,2388.1154823303223
D4:22:CD:00:05:5E,-115.92662811279297,-80.3917465209961,-73.5024185180664,-7.16435432434082,-1.7642529010772705,2.3924150466918945,2388.1154823303223
D4:22:CD:00:05:5D,156.8612518310547,-5.243456840515137,-42.426334381103516,7.904181480407715,-9.486536026000977,1.011678695678711,2388.145478963852
D4:22:CD:00:05:6B,-45.41634750366211,-47.078338623046875,-40.65380859375,-1.153414249420166,-2.613767147064209,-1.0836029052734375,2388.145478963852
D4:22:CD:00:49:AA,-173.97085571289062,-72.89214324951172,95.08573150634766,4.9710798263549805,1.0834009647369385,10.104442596435547,2388.145478963852
D4:22:CD:00:05:6E,59.38948440551758,22.864856719970703,129.01260375976562,-10.600645065307617,0.36288851499557495,6.459018707275391,2388.145478963852
D4:22:CD:00:05:5E,-79.83434295654297,-82.15435028076172,-110.39283752441406,-5.890494346618652,-6.663124084472656,4.715508460998535,2388.145478963852
D4:22:CD:00:05:5D,155.17620849609375,-2.1179323196411133,-43.729347229003906,3.166311264038086,-3.8397631645202637,-8.431245803833008,2388.17502117157
D4:22:CD:00:05:6B,-42.2081298828125,-50.1072998046875,-49.69674301147461,-0.5293130874633789,1.3291919231414795,-0.1526336669921875,2388.17502117157
D4:22:CD:00:49:AA,-178.51168823242188,-72.09166717529297,98.03962707519531,10.3388671875,2.751129150390625,9.338455200195312,2388.17502117157
D4:22:CD:00:05:6E,54.26709747314453,31.978830337524414,124.00836944580078,-15.839210510253906,-4.790026664733887,-6.861922264099121,2388.17502117157
D4:22:CD:00:05:5E,-39.14849853515625,-77.75919342041016,-153.14273071289062,0.636777400970459,-10.177425384521484,10.24964714050293,2388.17502117157
D4:22:CD:00:05:5D,157.69822692871094,-3.8843469619750977,-45.35749816894531,-2.3967232704162598,-1.352280616760254,-14.288240432739258,2388.205020427704
D4:22:CD:00:05:6B,-40.16633987426758,-55.79712677001953,-59.75058364868164,-2.0844922065734863,-1.674839735031128,-3.379878044128418,2388.205020427704
D4:22:CD:00:49:AA,175.66830444335938,-72.48632049560547,100.56829833984375,4.6680803298950195,2.1335601806640625,5.914319038391113,2388.205020427704
D4:22:CD:00:05:6E,49.138240814208984,37.713741302490234,119.96261596679688,-11.734867095947266,2.421110153198242,-9.300161361694336,2388.205020427704
D4:22:CD:00:05:5E,-20.63716697692871,-72.89210510253906,-166.5718994140625,-7.010044097900391,-2.8128485679626465,-4.5882720947265625,2388.205020427704
D4:22:CD:00:05:5D,159.5792694091797,-11.832539558410645,-46.37346267700195,-4.44205379486084,-3.355057716369629,-25.14333724975586,2388.235020637512
D4:22:CD:00:05:6B,-37.32014083862305,-62.182403564453125,-70.58772277832031,-6.560271263122559,2.780673027038574,-3.1080846786499023,2388.235020637512
D4:22:CD:00:49:AA,169.31060791015625,-73.01991271972656,103.4355697631836,-0.16414767503738403,1.9993600845336914,1.4330806732177734,2388.235020637512
D4:22:CD:00:05:6E,43.10269546508789,42.89645004272461,117.07037353515625,-2.978379726409912,2.452894687652588,-8.846382141113281,2388.235020637512
D4:22:CD:00:05:5E,-13.742947578430176,-70.96321105957031,-172.7829132080078,-5.247711181640625,-12.808002471923828,-10.922586441040039,2388.235020637512
D4:22:CD:00:05:5D,158.3537139892578,-26.110055923461914,-46.556270599365234,-1.9399933815002441,-7.064523696899414,-23.52077865600586,2388.2655601501465
D4:22:CD:00:05:6B,-26.5015926361084,-67.79645538330078,-83.93202209472656,-3.27712345123291,2.8181052207946777,-9.261253356933594,2388.2655601501465
D4:22:CD:00:49:AA,163.66188049316406,-73.13836669921875,106.46940612792969,1.2205371856689453,1.4677398204803467,-5.474112510681152,2388.2655601501465
D4:22:CD:00:05:6E,36.969295501708984,47.736732482910156,114.98377990722656,3.3287429809570312,-2.978661060333252,-10.092397689819336,2388.2655601501465
D4:22:CD:00:05:5E,-20.599477767944336,-70.69713592529297,-172.83230590820312,1.1304495334625244,3.426581382751465,-7.999813079833984,2388.2655601501465
D4:22:CD:00:05:5D,154.03099060058594,-45.64820861816406,-45.401344299316406,5.150602340698242,-12.708974838256836,-10.211416244506836,2388.295579433441
D4:22:CD:00:05:6B,-16.94097328186035,-71.9363021850586,-96.48892211914062,-2.789125442504883,1.9410793781280518,-10.470577239990234,2388.295579433441
D4:22:CD:00:49:AA,160.13522338867188,-72.72606658935547,107.74336242675781,0.16009527444839478,0.9127246141433716,-11.35063362121582,2388.295579433441
D4:22:CD:00:05:6E,34.27946472167969,51.827510833740234,114.83106994628906,4.723691940307617,-3.4380264282226562,-9.586372375488281,2388.295579433441
D4:22:CD:00:05:5E,-21.444581985473633,-68.07353973388672,-173.2053985595703,2.42872953414917,6.728893280029297,-7.686955451965332,2388.295579433441
D4:22:CD:00:05:5D,147.5205841064453,-68.93201446533203,-42.02828598022461,8.292852401733398,-7.345487594604492,21.942127227783203,2388.3255763053894
D4:22:CD:00:05:6B,-6.636838912963867,-74.84581756591797,-110.3165283203125,-1.255061388015747,2.6515727043151855,-9.645441055297852,2388.3255763053894
D4:22:CD:00:49:AA,156.61537170410156,-72.35391235351562,108.48660278320312,-1.4971528053283691,-0.4343193769454956,-11.166248321533203,2388.3255763053894
D4:22:CD:00:05:6E,39.480552673339844,55.162044525146484,120.33084869384766,3.4165258407592773,-0.9745374917984009,-8.408309936523438,2388.3255763053894
D4:22:CD:00:05:5E,-21.41487693786621,-67.12313842773438,-173.14857482910156,-21.55910873413086,2.348611354827881,-18.06348419189453,2388.3255763053894
D4:22:CD:00:05:5D,2.6679019927978516,-85.7123031616211,102.44168090820312,-4.912418365478516,9.139318466186523,39.498779296875,2388.385773420334
D4:22:CD:00:05:6B,3.5398170948028564,-76.39054107666016,-123.98595428466797,-0.7256186008453369,3.0679221153259277,-9.523000717163086,2388.385773420334
D4:22:CD:00:49:AA,153.77345275878906,-72.69866943359375,108.44574737548828,-0.6170055866241455,-2.149536609649658,-10.933980941772461,2388.385773420334
D4:22:CD:00:05:6E,51.50667190551758,56.97785568237305,135.01275634765625,-1.2409756183624268,-0.569413423538208,-10.43691635131836,2388.385773420334
D4:22:CD:00:05:5E,-34.38318634033203,-70.50879669189453,-165.56565856933594,2.349578380584717,0.9994510412216187,-3.5723719596862793,2388.385773420334
D4:22:CD:00:05:5D,-6.657560348510742,-72.16232299804688,114.62079620361328,-13.127645492553711,26.761306762695312,-45.95624542236328,2388.4157745838165
D4:22:CD:00:05:6B,14.72299861907959,-77.07623291015625,-137.46707153320312,-0.27541279792785645,3.1783971786499023,-7.8617753982543945,2388.4157745838165
D4:22:CD:00:49:AA,150.50453186035156,-73.71159362792969,110.24333190917969,0.9826184511184692,-3.338618278503418,-12.387786865234375,2388.4157745838165
D4:22:CD:00:05:6E,66.93482971191406,53.674861907958984,156.650146484375,-7.114562034606934,-3.2988996505737305,-19.497520446777344,2388.4157745838165
D4:22:CD:00:05:5E,-46.8530158996582,-72.44136810302734,-154.67474365234375,-1.4851000308990479,-2.9382057189941406,-2.2054333686828613,2388.4157745838165
D4:22:CD:00:05:5D,8.238099098205566,-74.33824920654297,102.73450469970703,-14.417074203491211,6.338213920593262,-4.341131210327148,2388.4457755088806
D4:22:CD:00:05:6B,28.960866928100586,-77.1250228881836,-152.62257385253906,-0.07114958763122559,3.326993942260742,-4.833462715148926,2388.4457755088806
D4:22:CD:00:49:AA,147.8849639892578,-74.10181427001953,109.79940032958984,4.451616287231445,-6.457686424255371,-6.500809669494629,2388.4457755088806
D4:22:CD:00:05:6E,78.72628784179688,44.26774597167969,172.6945343017578,-20.586292266845703,-6.613863945007324,-26.40499496459961,2388.4457755088806
D4:22:CD:00:05:5E,-64.9203109741211,-73.4629898071289,-138.2235107421875,-1.717329502105713,-10.411855697631836,-0.4813985824584961,2388.4457755088806
D4:22:CD:00:05:5D,21.845529556274414,-75.82244873046875,85.82280731201172,-4.884849548339844,3.080418586730957,2.830683708190918,2388.474874019623
D4:22:CD:00:05:6B,44.89805603027344,-76.55924224853516,-169.02951049804688,-0.6564425230026245,2.9447503089904785,-0.7187299728393555,2388.474874019623
D4:22:CD:00:49:AA,148.79225158691406,-73.8388671875,103.93898010253906,-1.6480343341827393,0.3615648150444031,2.219961166381836,2388.474874019623
D4:22:CD:00:05:6E,89.69800567626953,40.601585388183594,174.33956909179688,4.510760307312012,2.4807987213134766,-1.0980901718139648,2388.474874019623
D4:22:CD:00:05:5E,-79.32274627685547,-72.92469024658203,-124.9376449584961,-7.454388618469238,-5.263816833496094,3.351151466369629,2388.474874019623
D4:22:CD:00:05:5D,36.39218521118164,-75.95968627929688,69.83296203613281,4.466277122497559,5.1927490234375,-0.4864358901977539,2388.5058755874634
D4:22:CD:00:05:6B,58.55567169189453,-75.89669036865234,176.2816925048828,-1.914966106414795,1.067911148071289,3.2324743270874023,2388.5058755874634
D4:22:CD:00:49:AA,149.81698608398438,-74.84588623046875,103.45923614501953,-8.850288391113281,4.745514869689941,-0.9827518463134766,2388.5058755874634
D4:22:CD:00:05:6E,95.1742172241211,46.235050201416016,164.35498046875,-9.800214767456055,-3.4495434761047363,10.872318267822266,2388.5058755874634
D4:22:CD:00:05:5E,-81.47810363769531,-71.70589447021484,-121.96781158447266,-5.833220481872559,0.04906757175922394,12.069108963012695,2388.5058755874634
D4:22:CD:00:05:5D,54.900543212890625,-75.48072814941406,54.83261489868164,0.8705426454544067,11.31104850769043,-4.5379486083984375,2388.5348737239838
D4:22:CD:00:05:6B,71.69517517089844,-76.75252532958984,160.3990936279297,-3.0950751304626465,3.083677291870117,9.766929626464844,2388.5348737239838
D4:22:CD:00:49:AA,155.8677520751953,-75.56207275390625,99.49903106689453,2.9037442207336426,2.0675415992736816,2.2499589920043945,2388.5348737239838
D4:22:CD:00:05:6E,76.96553802490234,54.821475982666016,141.44000244140625,-22.968826293945312,-0.26761430501937866,-12.749040603637695,2388.5348737239838
D4:22:CD:00:05:5E,-77.87982940673828,-70.20506286621094,-124.04804992675781,-6.304366111755371,-3.4012632369995117,6.32501220703125,2388.5348737239838
D4:22:CD:00:05:5D,75.93931579589844,-74.60042572021484,39.700531005859375,-3.958707332611084,7.661118507385254,-1.4910078048706055,2388.5648896694183
D4:22:CD:00:05:6B,92.51573944091797,-77.63225555419922,140.2495880126953,-3.13375186920166,7.800053596496582,14.067901611328125,2388.5648896694183
D4:22:CD:00:49:AA,161.11842346191406,-77.04113006591797,97.36288452148438,12.583169937133789,-1.66001296043396,10.624898910522461,2388.5648896694183
D4:22:CD:00:05:6E,51.64936065673828,59.37197494506836,108.05471801757812,-5.53856086730957,11.595024108886719,-14.273172378540039,2388.5648896694183
D4:22:CD:00:05:5E,-69.6141128540039,-67.78265380859375,-128.4727325439453,-3.0088415145874023,-8.591817855834961,6.940849304199219,2388.5648896694183
D4:22:CD:00:05:5D,89.99984741210938,-74.76249694824219,27.869739532470703,6.37932014465332,2.2959952354431152,4.608894348144531,2388.595425605774
D4:22:CD:00:05:6B,114.58090209960938,-77.61857604980469,124.70587921142578,0.7627218961715698,1.093637228012085,12.770944595336914,2388.595425605774
D4:22:CD:00:49:AA,166.66481018066406,-77.78336334228516,94.34104919433594,6.085055351257324,-1.9872422218322754,9.838768005371094,2388.595425605774
D4:22:CD:00:05:6E,35.22026443481445,56.135581970214844,80.56069946289062,-4.406909942626953,0.3000691533088684,-7.559612274169922,2388.595425605774
D4:22:CD:00:05:5E,-51.93486022949219,-65.24755859375,-136.821533203125,4.192958831787109,-4.997528076171875,1.432748794555664,2388.595425605774
D4:22:CD:00:05:5D,91.92440795898438,-77.50061798095703,24.043865203857422,8.842199325561523,-1.3972811698913574,5.538442611694336,2388.6254251003265
D4:22:CD:00:05:6B,135.51612854003906,-78.9966812133789,108.48336791992188,3.9090399742126465,1.6297895908355713,4.870176315307617,2388.6254251003265
D4:22:CD:00:49:AA,170.1914520263672,-78.88558959960938,94.25113677978516,-1.90043306350708,-2.8059263229370117,2.461965560913086,2388.6254251003265
D4:22:CD:00:05:6E,27.309606552124023,49.77320861816406,65.55706787109375,4.873926162719727,-1.2901079654693604,-4.031861305236816,2388.6254251003265
D4:22:CD:00:05:5E,-46.90056610107422,-64.076904296875,-133.9530792236328,-36.840797424316406,-6.587515830993652,-16.428485870361328,2388.6254251003265
D4:22:CD:00:05:5D,94.15506744384766,-80.42669677734375,19.17133903503418,-0.6991360187530518,-10.897106170654297,6.37982177734375,2388.6859600543976
D4:22:CD:00:05:6B,155.28811645507812,-78.78092193603516,93.82865905761719,13.88270378112793,-7.5248918533325195,-7.014516830444336,2388.6859600543976
D4:22:CD:00:49:AA,175.90036010742188,-78.0554428100586,94.94137573242188,-0.9811463356018066,-4.434816360473633,-3.512173652648926,2388.6859600543976
D4:22:CD:00:05:6E,31.690383911132812,46.173362731933594,60.613922119140625,15.044105529785156,-9.345947265625,-5.640398025512695,2388.6859600543976
D4:22:CD:00:05:5E,-54.67627716064453,-65.1631851196289,-118.0013656616211,-31.913616180419922,-8.697509765625,-12.990039825439453,2388.6859600543976
D4:22:CD:00:05:5D,113.73542022705078,-81.32828521728516,1.1614025831222534,3.950613498687744,-3.154715061187744,0.7896518707275391,2388.714967250824
D4:22:CD:00:05:6B,170.1351776123047,-77.68504333496094,81.34366607666016,-1.725111484527588,-2.151271343231201,-6.194089889526367,2388.714967250824
D4:22:CD:00:49:AA,-178.10008239746094,-75.48089599609375,95.4729232788086,-4.778608322143555,4.441449165344238,-7.203164100646973,2388.714967250824
D4:22:CD:00:05:6E,52.88270950317383,45.29428482055664,65.49622344970703,9.86451530456543,-7.2067975997924805,-1.1840553283691406,2388.714967250824
D4:22:CD:00:05:5E,-77.29579162597656,-65.06111907958984,-89.90007019042969,-13.195968627929688,-9.031856536865234,-8.165302276611328,2388.714967250824
D4:22:CD:00:05:5D,134.10101318359375,-80.5534439086914,-17.37420082092285,1.7125539779663086,1.8876547813415527,-0.20002174377441406,2388.744966983795
D4:22:CD:00:05:6B,169.96775817871094,-77.65028381347656,86.75848388671875,-3.7222161293029785,-4.210502624511719,-3.543076992034912,2388.744966983795
D4:22:CD:00:49:AA,-177.5978546142578,-73.48702239990234,96.43915557861328,5.997900009155273,4.656644821166992,-4.095890045166016,2388.744966983795
D4:22:CD:00:05:6E,76.97303009033203,41.495689392089844,75.38914489746094,-3.9456958770751953,-6.496312141418457,6.9266815185546875,2388.744966983795
D4:22:CD:00:05:5E,-101.35224151611328,-61.09498977661133,-62.41262435913086,-1.1825599670410156,-5.764513969421387,-13.435047149658203,2388.744966983795
D4:22:CD:00:05:5D,144.3232879638672,-79.14627075195312,-25.668155670166016,1.608327865600586,4.426786422729492,0.4957876205444336,2388.7755093574524
D4:22:CD:00:05:6B,157.62644958496094,-78.53701782226562,95.61396026611328,-6.320342063903809,-5.119699478149414,1.8028926849365234,2388.7755093574524
D4:22:CD:00:49:AA,-178.7470703125,-71.6249008178711,96.03558349609375,2.299633502960205,1.6160070896148682,-0.4302959442138672,2388.7755093574524
D4:22:CD:00:05:6E,92.39717864990234,31.931236267089844,79.82706451416016,-3.3935461044311523,-3.387213706970215,9.446617126464844,2388.7755093574524
D4:22:CD:00:05:5E,-121.579345703125,-55.14963912963867,-42.931392669677734,2.7719783782958984,0.7762950658798218,-16.131980895996094,2388.7755093574524
D4:22:CD:00:05:5D,150.99513244628906,-77.31216430664062,-29.939788818359375,-2.4032058715820312,-0.06333574652671814,1.3020191192626953,2388.8055086135864
D4:22:CD:00:05:6B,145.76300048828125,-81.0670394897461,99.2138671875,-12.50731086730957,-0.20589447021484375,0.6325387954711914,2388.8055086135864
D4:22:CD:00:49:AA,179.1571807861328,-68.9611587524414,95.86972045898438,-5.522915840148926,1.2965879440307617,-2.18402099609375,2388.8055086135864
D4:22:CD:00:05:6E,100.33787536621094,20.73826026916504,75.36843872070312,2.204925060272217,-3.156352996826172,1.2293004989624023,2388.8055086135864
D4:22:CD:00:05:5E,-137.9651641845703,-49.7565803527832,-30.741056442260742,2.348824977874756,2.89447021484375,-14.54283332824707,2388.8055086135864
D4:22:CD:00:05:5D,154.44271850585938,-75.7635498046875,-32.840850830078125,-1.9526426792144775,-0.09658306837081909,0.9472246170043945,2388.8355090618134
D4:22:CD:00:05:6B,142.59429931640625,-84.74402618408203,96.45907592773438,-8.380014419555664,1.257131576538086,-1.812270164489746,2388.8355090618134
D4:22:CD:00:49:AA,177.64102172851562,-67.08067321777344,95.12003326416016,-5.034036636352539,2.1710867881774902,3.6517162322998047,2388.8355090618134
D4:22:CD:00:05:6E,106.97792053222656,7.967399597167969,66.42257690429688,1.1476573944091797,4.117950439453125,-2.810580253601074,2388.8355090618134
D4:22:CD:00:05:5E,-151.5923309326172,-46.708251953125,-22.999496459960938,1.8740100860595703,1.7592506408691406,-11.480329513549805,2388.8355090618134
D4:22:CD:00:05:5D,157.4207305908203,-74.42224884033203,-35.60989761352539,0.2901111841201782,-0.596961259841919,-0.20296096801757812,2388.8645231723785
D4:22:CD:00:05:6B,164.109130859375,-89.37850189208984,69.0627212524414,-5.175146102905273,2.68234920501709,-3.2197117805480957,2388.8645231723785
D4:22:CD:00:49:AA,175.90716552734375,-66.34248352050781,95.88314056396484,-0.2870071530342102,3.1704859733581543,3.115044593811035,2388.8645231723785
D4:22:CD:00:05:6E,113.22403717041016,-6.285383224487305,55.83005142211914,7.1900634765625,7.616674423217773,-0.7854518890380859,2388.8645231723785
D4:22:CD:00:05:5E,-162.14569091796875,-48.16001892089844,-16.902118682861328,3.377225399017334,1.4111285209655762,-6.281045913696289,2388.8645231723785
D4:22:CD:00:05:5D,160.1183319091797,-72.425048828125,-37.80221176147461,2.855832099914551,-1.3234190940856934,-1.132014274597168,2388.8950514793396
D4:22:CD:00:05:6B,-46.473297119140625,-84.31362915039062,-86.75199890136719,-3.6266093254089355,4.943371772766113,-3.2779898643493652,2388.8950514793396
D4:22:CD:00:49:AA,170.8159942626953,-66.47463989257812,98.42626953125,1.568145990371704,1.8990802764892578,-2.8135342597961426,2388.8950514793396
D4:22:CD:00:05:6E,116.51252746582031,-22.928138732910156,45.83394241333008,13.402666091918945,7.092741966247559,4.878430366516113,2388.8950514793396
D4:22:CD:00:05:5E,-167.10028076171875,-55.223907470703125,-11.176249504089355,10.855369567871094,3.314178466796875,0.8613309860229492,2388.8950514793396
D4:22:CD:00:05:5D,162.60189819335938,-69.6495361328125,-38.98303985595703,1.2023513317108154,1.1896600723266602,-0.2857837677001953,2388.95507645607
D4:22:CD:00:05:6B,-46.839569091796875,-76.38463592529297,-92.48635864257812,-2.3681230545043945,5.976312637329102,-2.7991185188293457,2388.95507645607
D4:22:CD:00:49:AA,165.01060485839844,-67.29886627197266,101.40038299560547,-2.580636978149414,1.5910027027130127,-1.2466840744018555,2388.95507645607
D4:22:CD:00:05:6E,112.23616027832031,-42.13076400756836,37.040794372558594,17.463470458984375,4.66887092590332,19.455543518066406,2388.95507645607
D4:22:CD:00:05:5E,-163.85169982910156,-63.44437789916992,-5.648514270782471,-34.16248321533203,-5.527709007263184,47.64568328857422,2388.95507645607
D4:22:CD:00:05:5D,164.39508056640625,-65.6698989868164,-38.19650650024414,2.975008487701416,0.7798651456832886,-0.7347354888916016,2388.9856119155884
D4:22:CD:00:05:6B,-48.019004821777344,-66.96385192871094,-95.58865356445312,-2.4237589836120605,8.097164154052734,-0.21965885162353516,2388.9856119155884
D4:22:CD:00:49:AA,157.98086547851562,-68.62223052978516,106.10176849365234,-3.147311210632324,1.801988124847412,0.1077728271484375,2388.9856119155884
D4:22:CD:00:05:6E,95.58164978027344,-55.90552520751953,32.25678634643555,-1.8399651050567627,4.701013565063477,19.58382797241211,2388.9856119155884
D4:22:CD:00:05:5E,-158.56793212890625,-66.88359069824219,-5.777615070343018,9.861377716064453,3.200666904449463,6.173494338989258,2388.9856119155884
D4:22:CD:00:05:5D,166.0906982421875,-61.15171432495117,-36.87327194213867,-1.372131109237671,-1.3089463710784912,0.6127462387084961,2389.015614748001
D4:22:CD:00:05:6B,-50.17332458496094,-56.51486587524414,-95.04024505615234,-2.854597568511963,8.672557830810547,3.823972702026367,2389.015614748001
D4:22:CD:00:49:AA,149.25401306152344,-70.45318603515625,113.25566101074219,-2.321786880493164,1.3638036251068115,-0.6370124816894531,2389.015614748001
D4:22:CD:00:05:6E,86.1202392578125,-55.77385711669922,25.154666900634766,29.621051788330078,2.9626331329345703,-2.150672435760498,2389.015614748001
D4:22:CD:00:05:5E,-161.32354736328125,-66.90763092041016,-6.120758056640625,11.196168899536133,4.188332557678223,15.364288330078125,2389.015614748001
D4:22:CD:00:05:5D,166.57754516601562,-57.29743194580078,-35.938838958740234,0.17259708046913147,-0.08942931890487671,0.34832096099853516,2389.044729948044
D4:22:CD:00:05:6B,-51.856510162353516,-45.03822708129883,-93.12212371826172,-0.00664210319519043,8.527894973754883,9.682134628295898,2389.044729948044
D4:22:CD:00:49:AA,138.84422302246094,-71.96305084228516,123.56521606445312,-2.4888620376586914,0.2961199879646301,-1.5477685928344727,2389.044729948044
D4:22:CD:00:05:6E,90.60346984863281,-54.27974319458008,24.543968200683594,9.618095397949219,11.479156494140625,4.013323783874512,2389.044729948044
D4:22:CD:00:05:5E,-160.7235870361328,-63.00206756591797,-10.220382690429688,3.6416406631469727,2.1557040214538574,22.136646270751953,2389.044729948044
D4:22:CD:00:05:5D,166.70285034179688,-54.528953552246094,-35.67599868774414,-1.6920974254608154,-1.773334264755249,1.1417951583862305,2389.075264930725
D4:22:CD:00:05:6B,-47.668251037597656,-33.383033752441406,-92.67817687988281,13.273126602172852,10.532369613647461,8.31025505065918,2389.075264930725
D4:22:CD:00:49:AA,133.34848022460938,-72.03909301757812,129.11917114257812,-3.372905731201172,2.9253416061401367,3.349306106567383,2389.075264930725
D4:22:CD:00:05:6E,92.37679290771484,-50.76588439941406,24.523223876953125,17.70252227783203,15.769620895385742,5.219912528991699,2389.075264930725
D4:22:CD:00:05:5E,-157.33038330078125,-55.492923736572266,-12.503070831298828,7.326811790466309,-10.38913345336914,20.10157012939453,2389.075264930725
