Device,EulerX,EulerY,EulerZ,FreeAccX,FreeAccY,FreeAccZ,Timestamp
D4:22:CD:00:05:6B,-77.27383422851562,-26.175077438354492,-38.2662467956543,-2.247722625732422,16.15001678466797,12.766609191894531,2232.3022401332855
D4:22:CD:00:49:AA,139.85543823242188,-68.42417907714844,159.0115966796875,-5.110547065734863,-4.9427995681762695,12.290166854858398,2232.3022401332855
D4:22:CD:00:05:6E,79.69355773925781,-38.37886047363281,19.13814926147461,13.0106201171875,16.179798126220703,5.231480598449707,2232.3022401332855
D4:22:CD:00:05:5E,-154.9944610595703,-42.91659927368164,15.045733451843262,16.653907775878906,0.17650869488716125,6.638761520385742,2232.3022401332855
D4:22:CD:00:05:6B,-74.27619171142578,-14.182564735412598,-36.63276290893555,-2.4583139419555664,21.63300323486328,21.66006851196289,2232.3042483329773
D4:22:CD:00:49:AA,142.34307861328125,-68.91944885253906,157.40573120117188,-2.231930732727051,-0.8473809957504272,9.308177947998047,2232.3042483329773
D4:22:CD:00:05:6E,87.67955780029297,-37.84077453613281,24.070716857910156,4.652300834655762,12.166149139404297,9.425905227661133,2232.3042483329773
D4:22:CD:00:05:5E,-155.81210327148438,-39.096290588378906,16.191404342651367,12.317428588867188,-0.7863982915878296,1.808053970336914,2232.3042483329773
D4:22:CD:00:05:5D,165.43441772460938,-73.55838012695312,-117.27254486083984,0.6244499683380127,-2.7212047576904297,-1.3536415100097656,2232.307248353958
D4:22:CD:00:05:6B,-66.8420181274414,0.9308489561080933,-32.72145080566406,7.445582389831543,14.708066940307617,23.988502502441406,2232.307248353958
D4:22:CD:00:49:AA,143.26576232910156,-69.32319641113281,156.8805694580078,-1.7909882068634033,1.7736976146697998,6.98832893371582,2232.307248353958
D4:22:CD:00:05:6E,92.62081146240234,-43.50529479980469,31.042646408081055,-3.831179141998291,9.602752685546875,7.687326431274414,2232.307248353958
D4:22:CD:00:05:5E,-156.60079956054688,-41.18566131591797,15.971031188964844,2.616743564605713,4.56707763671875,-0.41257667541503906,2232.307248353958
D4:22:CD:00:05:5D,173.33319091796875,-75.31690216064453,-125.0322036743164,0.3657722473144531,-2.557804584503174,-1.283308982849121,2232.3102486133575
D4:22:CD:00:05:6E,99.91502380371094,-52.579959869384766,38.34076690673828,-6.865050315856934,3.2100720405578613,8.582056045532227,2232.3102486133575
D4:22:CD:00:05:5D,-173.11985778808594,-76.83635711669922,-137.1680450439453,0.04191448539495468,-3.0504074096679688,-1.8926482200622559,2232.3868782520294
D4:22:CD:00:05:6B,-97.65071868896484,-46.6203498840332,-56.33196258544922,1.6793212890625,1.9387538433074951,-5.484665870666504,2232.3868782520294
D4:22:CD:00:49:AA,130.30755615234375,-59.89960479736328,165.4418182373047,0.22792169451713562,0.10007040202617645,-7.890840530395508,2232.3868782520294
D4:22:CD:00:05:5E,-169.81640625,-32.57706069946289,-54.86517333984375,10.26507568359375,-3.4450464248657227,-0.5482578277587891,2232.3868782520294
D4:22:CD:00:05:5D,-167.4745635986328,-76.78218078613281,-138.13226318359375,1.7994062900543213,1.1360979080200195,-2.008352279663086,2232.4168858528137
D4:22:CD:00:05:6B,-92.03411102294922,-42.95545959472656,-62.40907287597656,2.2570557594299316,1.7599141597747803,-5.824499130249023,2232.4168858528137
D4:22:CD:00:49:AA,127.98289489746094,-58.900081634521484,167.21559143066406,-0.8224458694458008,0.433341920375824,-6.883223533630371,2232.4168858528137
D4:22:CD:00:05:6E,45.58273696899414,-78.6100082397461,84.077880859375,-3.869595527648926,-1.433448076248169,17.582416534423828,2232.4168858528137
D4:22:CD:00:05:5E,-160.1671600341797,-52.308502197265625,-65.83853912353516,11.842506408691406,-14.724298477172852,6.910285949707031,2232.4168858528137
D4:22:CD:00:05:5D,-170.36007690429688,-73.59107971191406,-131.50839233398438,2.402705669403076,-2.2097530364990234,-0.5722198486328125,2232.476891040802
D4:22:CD:00:05:6B,-83.29222106933594,-34.7462158203125,-72.79360961914062,2.2335996627807617,1.0321967601776123,-4.770177841186523,2232.476891040802
D4:22:CD:00:49:AA,123.67512512207031,-58.722591400146484,170.73545837402344,-3.31620454788208,-0.6266481876373291,-2.7275638580322266,2232.476891040802
D4:22:CD:00:05:6E,25.2620849609375,-79.50324249267578,92.0922622680664,-0.43863970041275024,2.1316704750061035,12.973880767822266,2232.476891040802
D4:22:CD:00:05:5E,-142.6644287109375,-70.72085571289062,-85.77267456054688,-0.6902884244918823,-4.961798667907715,14.558666229248047,2232.476891040802
D4:22:CD:00:05:5D,-172.65325927734375,-68.88172149658203,-126.00730895996094,-0.8408809900283813,2.1285648345947266,-0.8999547958374023,2232.506425142288
D4:22:CD:00:05:6B,-77.49124145507812,-25.112049102783203,-80.53509521484375,2.0462913513183594,-0.08687758445739746,0.7117824554443359,2232.506425142288
D4:22:CD:00:49:AA,120.7088851928711,-60.832969665527344,173.93333435058594,-3.6647472381591797,-0.7640285491943359,1.6525392532348633,2232.506425142288
D4:22:CD:00:05:6E,7.210164546966553,-83.7230224609375,94.8817138671875,11.110122680664062,6.015759468078613,6.866046905517578,2232.506425142288
D4:22:CD:00:05:5E,-135.45614624023438,-79.46936798095703,-88.84056854248047,-9.502664566040039,-11.15310287475586,18.380878448486328,2232.506425142288
D4:22:CD:00:05:5D,-175.97645568847656,-63.91027069091797,-118.78926086425781,-0.45385444164276123,3.298950672149658,2.0987424850463867,2232.5364220142365
D4:22:CD:00:05:6B,-76.44459533691406,-12.656513214111328,-86.3997573852539,-2.927812099456787,-1.6298329830169678,8.860427856445312,2232.5364220142365
D4:22:CD:00:49:AA,120.68981170654297,-63.509639739990234,175.31515502929688,-6.597172737121582,-2.962616443634033,4.332958221435547,2232.5364220142365
D4:22:CD:00:05:6E,-81.42694854736328,-80.59635925292969,175.3119354248047,10.506757736206055,-5.034754753112793,13.32425308227539,2232.5364220142365
D4:22:CD:00:05:5E,-174.77960205078125,-84.17533111572266,-39.44137191772461,-8.8648681640625,-4.4852294921875,15.946285247802734,2232.5364220142365
D4:22:CD:00:05:5D,-177.51548767089844,-60.78258514404297,-113.47432708740234,2.8417983055114746,5.3139190673828125,-0.7400331497192383,2232.566422224045
D4:22:CD:00:05:6B,-79.57048797607422,2.660855770111084,-90.72232055664062,1.4385333061218262,0.7322468757629395,18.65355682373047,2232.566422224045
D4:22:CD:00:49:AA,126.21602630615234,-66.29595947265625,172.02752685546875,-4.992283821105957,0.5683902502059937,12.820707321166992,2232.566422224045
D4:22:CD:00:05:6E,-82.95867156982422,-70.50052642822266,-179.46810913085938,-1.3006844520568848,2.0859947204589844,13.44291877746582,2232.566422224045
D4:22:CD:00:05:5E,141.33399963378906,-78.60710144042969,7.798620223999023,2.444977283477783,-1.1515471935272217,11.178457260131836,2232.566422224045
D4:22:CD:00:05:5D,-177.59622192382812,-59.781005859375,-110.98463439941406,-0.6325311660766602,3.411489963531494,4.1931047439575195,2232.5987293720245
D4:22:CD:00:05:6B,-80.89927673339844,20.318071365356445,-93.47826385498047,10.36837387084961,-4.26805305480957,15.844514846801758,2232.5987293720245
D4:22:CD:00:49:AA,130.1579132080078,-69.70940399169922,170.2462921142578,-2.6666131019592285,-1.6349091529846191,13.048776626586914,2232.5987293720245
D4:22:CD:00:05:6E,-76.79501342773438,-64.95870971679688,-176.2307891845703,-12.338714599609375,5.247837066650391,10.834447860717773,2232.5987293720245
D4:22:CD:00:05:5E,125.27114868164062,-75.66230010986328,28.664514541625977,5.800912857055664,9.255203247070312,1.5114936828613281,2232.5987293720245
D4:22:CD:00:05:5D,-177.42152404785156,-60.61294174194336,-108.830078125,-1.9779350757598877,3.3853864669799805,2.130173683166504,2232.6267561912537
D4:22:CD:00:05:6B,-73.90088653564453,38.194644927978516,-90.15763092041016,14.095458984375,-17.000717163085938,18.51396942138672,2232.6267561912537
D4:22:CD:00:49:AA,134.96092224121094,-72.55005645751953,167.25689697265625,-3.734529495239258,-1.5250818729400635,6.891696929931641,2232.6267561912537
D4:22:CD:00:05:6E,-68.4595947265625,-63.288299560546875,-171.8328399658203,-12.533931732177734,3.2698960304260254,5.314505577087402,2232.6267561912537
D4:22:CD:00:05:5E,103.02037048339844,-76.58636474609375,51.06735610961914,7.71151065826416,11.16623306274414,-7.329793930053711,2232.6267561912537
D4:22:CD:00:05:5D,-176.21095275878906,-62.84988021850586,-108.76646423339844,-4.167855262756348,4.332239151000977,3.254868507385254,2232.656768321991
D4:22:CD:00:05:6B,-49.8501091003418,51.508827209472656,-76.05642700195312,7.209145545959473,-22.606143951416016,7.390171051025391,2232.656768321991
D4:22:CD:00:49:AA,142.45091247558594,-75.73989868164062,162.87464904785156,-4.584739685058594,-0.37608689069747925,8.170915603637695,2232.656768321991
D4:22:CD:00:05:6E,-54.54420471191406,-64.0151138305664,-168.2457733154297,-10.70938491821289,3.1547417640686035,0.3153390884399414,2232.656768321991
D4:22:CD:00:05:5E,62.242286682128906,-76.85721588134766,90.41207885742188,7.5742340087890625,9.354120254516602,-7.9244842529296875,2232.656768321991
D4:22:CD:00:05:5D,-176.0547332763672,-67.12711334228516,-107.37858581542969,-2.4284472465515137,2.2426986694335938,7.702507019042969,2232.6863119602203
D4:22:CD:00:05:6B,-17.747838973999023,56.65909194946289,-55.83232498168945,1.5732498168945312,-16.719100952148438,1.1854543685913086,2232.6863119602203
D4:22:CD:00:49:AA,155.7830810546875,-79.27057647705078,154.1023406982422,-2.2478866577148438,-0.13678836822509766,4.567265510559082,2232.6863119602203
D4:22:CD:00:05:6E,-38.191043853759766,-65.3114242553711,-164.84481811523438,-13.99237060546875,-4.546234130859375,-8.282890319824219,2232.6863119602203
D4:22:CD:00:05:5E,24.784517288208008,-70.06217193603516,125.76878356933594,2.6740760803222656,8.095357894897461,-8.149559020996094,2232.6863119602203
D4:22:CD:00:05:5D,-176.94210815429688,-72.22240447998047,-105.67377471923828,1.6883337497711182,-8.868206024169922,10.512533187866211,2232.716311454773
D4:22:CD:00:05:6B,8.837380409240723,56.94289779663086,-41.596126556396484,2.921450138092041,-7.988866806030273,-2.1293082237243652,2232.716311454773
D4:22:CD:00:49:AA,175.96237182617188,-81.46015167236328,138.93365478515625,-0.1699683964252472,-0.12441401183605194,-2.861689567565918,2232.716311454773
D4:22:CD:00:05:6E,-28.248441696166992,-66.29716491699219,-158.96730041503906,-8.733634948730469,-7.292413711547852,-10.02717399597168,2232.716311454773
D4:22:CD:00:05:5E,8.074466705322266,-58.57255935668945,140.18096923828125,-5.895042419433594,4.526830673217773,-8.460113525390625,2232.716311454773
D4:22:CD:00:05:5D,177.63221740722656,-77.2758560180664,-105.86939239501953,0.5235944986343384,-2.1751890182495117,-3.732412815093994,2232.776329278946
D4:22:CD:00:05:6B,25.496755599975586,56.74180221557617,-34.62906265258789,-1.888357400894165,-2.3513450622558594,-3.531801223754883,2232.776329278946
D4:22:CD:00:49:AA,-166.26986694335938,-80.6243667602539,125.60743713378906,1.342752456665039,1.5886383056640625,-7.452057838439941,2232.776329278946
D4:22:CD:00:05:6E,-22.592052459716797,-67.4786376953125,-150.9179229736328,-3.8795509338378906,-8.922595977783203,-10.662919998168945,2232.776329278946
D4:22:CD:00:05:5E,-0.14578546583652496,-46.39508819580078,144.15740966796875,-14.12575912475586,5.104979515075684,-7.870848655700684,2232.776329278946
D4:22:CD:00:05:5D,170.75961303710938,-76.65172576904297,-100.65255737304688,5.812437057495117,6.50004768371582,-5.938750267028809,2232.8068585395813
D4:22:CD:00:05:6B,31.891376495361328,56.059391021728516,-33.692291259765625,-3.459620475769043,3.183915615081787,-3.214371681213379,2232.8068585395813
D4:22:CD:00:49:AA,-161.5028839111328,-79.90350341796875,122.48677825927734,3.25917911529541,3.6045799255371094,-8.29360580444336,2232.8068585395813
D4:22:CD:00:05:6E,-19.683032989501953,-68.70723724365234,-144.35142517089844,2.6151299476623535,-7.689251899719238,-7.660757064819336,2232.8068585395813
D4:22:CD:00:05:5E,-7.61215353012085,-36.908935546875,145.1420135498047,-21.526168823242188,5.28660774230957,-14.447643280029297,2232.8068585395813
D4:22:CD:00:05:5D,166.984130859375,-74.22508239746094,-94.47711944580078,3.10518741607666,-9.849594116210938,-11.104211807250977,2232.866861343384
D4:22:CD:00:05:6B,24.502090454101562,54.57255554199219,-36.11478042602539,-3.896674156188965,2.9251694679260254,-6.982329368591309,2232.866861343384
D4:22:CD:00:49:AA,-155.35244750976562,-81.39302825927734,116.19876861572266,-0.3479836583137512,1.8713483810424805,-12.537811279296875,2232.866861343384
D4:22:CD:00:05:6E,-9.686942100524902,-68.5986328125,-144.35560607910156,5.102418899536133,-6.146856307983398,-6.643258094787598,2232.866861343384
D4:22:CD:00:05:5E,-13.834734916687012,-32.33521270751953,145.7950897216797,-13.189229965209961,4.779058456420898,-20.8160400390625,2232.866861343384
D4:22:CD:00:05:5D,168.5935516357422,-75.65711975097656,-93.636474609375,1.5775196552276611,-9.158239364624023,-15.108465194702148,2232.869873046875
D4:22:CD:00:05:6B,9.583536148071289,54.52927017211914,-43.28876876831055,-4.506253242492676,0.1274120807647705,-11.186431884765625,2232.869873046875
D4:22:CD:00:49:AA,-149.8410186767578,-82.51785278320312,111.5782470703125,-1.627373218536377,0.11127854883670807,-8.894979476928711,2232.869873046875
D4:22:CD:00:05:6E,2.262593984603882,-67.4136962890625,-149.58604431152344,4.533382415771484,-3.7164206504821777,-5.846519470214844,2232.869873046875
D4:22:CD:00:05:5E,-13.029882431030273,-32.13164138793945,146.44761657714844,-12.141159057617188,4.873199462890625,-25.95833969116211,2232.869873046875
D4:22:CD:00:05:5D,168.37246704101562,-77.43869018554688,-91.12755584716797,-8.64132308959961,35.532379150390625,4.625832557678223,2232.89617228508
D4:22:CD:00:05:6B,-1.6721878051757812,55.829803466796875,-59.911312103271484,-1.9913594722747803,-2.7950782775878906,-12.541223526000977,2232.89617228508
D4:22:CD:00:49:AA,-142.86776733398438,-84.05564880371094,104.7037582397461,0.16881436109542847,-0.42705005407333374,-7.4321184158325195,2232.89617228508
D4:22:CD:00:05:6E,14.572253227233887,-65.33692169189453,-156.2796173095703,1.3042776584625244,-2.3931517601013184,-5.717802047729492,2232.89617228508
D4:22:CD:00:05:5E,-14.483467102050781,-38.461490631103516,149.17559814453125,-19.36224365234375,-1.1124796867370605,-19.623138427734375,2232.89617228508
D4:22:CD:00:05:5D,162.23439025878906,-72.85182189941406,-80.38614654541016,-2.8264336585998535,-1.7290534973144531,-10.471529006958008,2232.927171945572
D4:22:CD:00:05:6B,-8.41324520111084,55.187896728515625,-86.90151977539062,-1.779423713684082,-0.7684738636016846,-12.804296493530273,2232.927171945572
D4:22:CD:00:49:AA,-129.12916564941406,-85.1448974609375,91.5816879272461,-1.6479933261871338,-1.586766242980957,-4.488617897033691,2232.927171945572
D4:22:CD:00:05:6E,24.659465789794922,-63.585906982421875,-160.63351440429688,2.2151665687561035,-6.450762748718262,-4.413471221923828,2232.927171945572
D4:22:CD:00:05:5E,-20.480072021484375,-47.77601623535156,151.33502197265625,-7.319857597351074,-18.86123275756836,16.004470825195312,2232.927171945572
D4:22:CD:00:05:5D,160.39820861816406,-69.682373046875,-72.76667022705078,-2.502613067626953,1.5335187911987305,4.655719757080078,2232.9571726322174
D4:22:CD:00:05:6B,-14.754624366760254,48.81265640258789,-114.45126342773438,-4.037723541259766,-4.331586837768555,-20.46274185180664,2232.9571726322174
D4:22:CD:00:49:AA,-103.87748718261719,-86.20460510253906,66.00755310058594,-1.9616310596466064,-2.2463603019714355,1.9427165985107422,2232.9571726322174
D4:22:CD:00:05:6E,24.40338897705078,-63.20570373535156,-159.75057983398438,3.941678524017334,-6.876801490783691,-2.3663034439086914,2232.9571726322174
D4:22:CD:00:05:5E,-15.964949607849121,-54.71281433105469,149.70021057128906,-10.54886245727539,-1.512707233428955,3.523681640625,2232.9571726322174
D4:22:CD:00:05:5D,158.52127075195312,-68.18148803710938,-69.41683197021484,4.9968976974487305,-0.2723225951194763,4.258098602294922,2232.9867103099823
D4:22:CD:00:05:6B,-19.480453491210938,40.32376480102539,-134.25790405273438,-18.572444915771484,-13.245964050292969,-23.450801849365234,2232.9867103099823
D4:22:CD:00:49:AA,-87.65164947509766,-86.18941497802734,49.28113555908203,-0.5926249027252197,-0.9892222881317139,7.294609069824219,2232.9867103099823
D4:22:CD:00:05:6E,16.329151153564453,-64.28340148925781,-152.8130340576172,2.172966480255127,-3.767688751220703,0.0808248519897461,2232.9867103099823
D4:22:CD:00:05:5E,-16.606082916259766,-60.67991256713867,150.1780242919922,0.7547619342803955,9.51104736328125,2.5702285766601562,2232.9867103099823
D4:22:CD:00:05:5D,152.74273681640625,-67.28992462158203,-65.04054260253906,-1.7481260299682617,-2.670304775238037,8.057552337646484,2233.0167105197906
D4:22:CD:00:05:6B,-27.5274715423584,41.246803283691406,-139.8229217529297,7.308422088623047,10.020746231079102,-5.334650039672852,2233.0167105197906
D4:22:CD:00:49:AA,-88.33963775634766,-86.60569763183594,48.351051330566406,1.4717397689819336,-0.731440544128418,3.0143356323242188,2233.0167105197906
D4:22:CD:00:05:6E,6.383467197418213,-65.57460021972656,-141.06356811523438,1.6971063613891602,-4.536405563354492,4.156079292297363,2233.0167105197906
D4:22:CD:00:05:5E,-20.24493980407715,-65.43212127685547,149.60191345214844,1.9259438514709473,12.49554443359375,-3.1610002517700195,2233.0167105197906
D4:22:CD:00:05:5D,145.73683166503906,-66.34986877441406,-59.5932502746582,-3.2217063903808594,-2.5222644805908203,6.502202987670898,2233.0767300128937
D4:22:CD:00:05:6B,-36.30854034423828,44.732181549072266,-125.78140258789062,-11.758638381958008,-0.6385345458984375,3.0894947052001953,2233.0767300128937
D4:22:CD:00:49:AA,-102.84825897216797,-86.39566040039062,61.490760803222656,-2.0080699920654297,-4.511953353881836,5.400491714477539,2233.0767300128937
D4:22:CD:00:05:6E,-5.542786121368408,-66.43445587158203,-127.57478332519531,5.116039276123047,-8.965574264526367,4.564859390258789,2233.0767300128937
D4:22:CD:00:05:5E,-14.758065223693848,-68.74637603759766,143.4345703125,-10.567609786987305,-3.8910064697265625,10.25564956665039,2233.0767300128937
D4:22:CD:00:05:5D,138.37660217285156,-65.56865692138672,-54.21476745605469,2.288515567779541,-0.3504600524902344,2.870027542114258,2233.1062591075897
D4:22:CD:00:05:6B,-14.71467113494873,41.76076889038086,-107.43241882324219,-13.181293487548828,0.14557981491088867,-17.94281005859375,2233.1062591075897
D4:22:CD:00:49:AA,-114.2996826171875,-84.7690200805664,71.32962799072266,1.5847363471984863,3.1138691902160645,0.7909946441650391,2233.1062591075897
D4:22:CD:00:05:6E,-18.68513298034668,-67.10589599609375,-118.23114776611328,3.7984156608581543,-8.838006973266602,3.5213117599487305,2233.1062591075897
D4:22:CD:00:05:5E,-6.380499839782715,-71.97920989990234,136.15957641601562,-6.628528594970703,2.252145767211914,-4.668353080749512,2233.1062591075897
D4:22:CD:00:05:5D,130.00950622558594,-66.19007110595703,-50.673526763916016,9.31218147277832,2.3331737518310547,-0.6927156448364258,2233.1362583637238
D4:22:CD:00:05:6B,-2.118492603302002,31.005556106567383,-87.58724975585938,-7.86700439453125,-7.869490623474121,-10.466131210327148,2233.1362583637238
D4:22:CD:00:49:AA,-123.90399169921875,-83.42359924316406,77.21227264404297,10.233076095581055,7.422447204589844,-4.695464134216309,2233.1362583637238
D4:22:CD:00:05:6E,-26.265653610229492,-69.4338150024414,-118.37387084960938,-0.884024977684021,-4.955960273742676,-0.33670806884765625,2233.1362583637238
D4:22:CD:00:05:5E,-1.941352367401123,-74.05553436279297,131.1189422607422,-7.036499977111816,2.3045525550842285,-1.9414634704589844,2233.1362583637238
D4:22:CD:00:05:5D,125.04496002197266,-65.89364624023438,-57.29178237915039,16.259483337402344,16.401195526123047,1.8327455520629883,2233.1662578582764
D4:22:CD:00:05:6B,0.8783748149871826,17.658140182495117,-73.43838500976562,-4.574009895324707,-1.9557030200958252,-3.045027732849121,2233.1662578582764
D4:22:CD:00:49:AA,-140.96688842773438,-81.4896240234375,89.08949279785156,8.449483871459961,-1.0969665050506592,-1.3446378707885742,2233.1662578582764
D4:22:CD:00:05:6E,-30.507211685180664,-72.39312744140625,-121.11157989501953,-5.525732040405273,3.605576515197754,-0.07090282440185547,2233.1662578582764
D4:22:CD:00:05:5E,-1.7744247913360596,-75.82148742675781,129.26055908203125,-4.10698127746582,3.041506290435791,-0.011227607727050781,2233.1662578582764
D4:22:CD:00:05:5D,132.53005981445312,-60.02519989013672,-73.64736938476562,17.603469848632812,13.475788116455078,6.965108871459961,2233.196806192398
D4:22:CD:00:05:6B,1.0170769691467285,3.1242709159851074,-60.94860076904297,-1.2675509452819824,-5.609499931335449,0.46875953674316406,2233.196806192398
D4:22:CD:00:49:AA,-147.28904724121094,-79.48085021972656,92.9193344116211,-2.0283989906311035,-3.413525104522705,6.443687438964844,2233.196806192398
D4:22:CD:00:05:6E,-34.34404373168945,-72.90154266357422,-120.4678726196289,-2.257869243621826,-2.5640034675598145,-0.6972999572753906,2233.196806192398
D4:22:CD:00:05:5E,3.1233232021331787,-76.34251403808594,124.0918197631836,-1.7236905097961426,2.9564528465270996,-0.34464073181152344,2233.196806192398
D4:22:CD:00:05:5D,142.7439727783203,-49.77138900756836,-89.16441345214844,10.487113952636719,4.355703353881836,2.6290512084960938,2233.2268059253693
D4:22:CD:00:05:6B,-3.896775007247925,-10.373647689819336,-47.0664176940918,1.623582124710083,-5.503505706787109,3.4804153442382812,2233.2268059253693
D4:22:CD:00:49:AA,-147.23239135742188,-79.38077545166016,93.02230072021484,0.10849452018737793,2.388296127319336,0.5201683044433594,2233.2268059253693
D4:22:CD:00:05:6E,-35.71596908569336,-71.77532958984375,-119.71807098388672,-5.064101219177246,-5.401731491088867,-0.1844310760498047,2233.2268059253693
D4:22:CD:00:05:5E,10.612213134765625,-76.79902648925781,118.0220947265625,-3.6901168823242188,1.7510216236114502,-2.1875476837158203,2233.2268059253693
D4:22:CD:00:05:5D,150.25845336914062,-38.218650817871094,-100.31253051757812,-0.7876513004302979,-1.0880985260009766,-4.5078887939453125,2233.2568078041077
D4:22:CD:00:05:6B,-4.269757270812988,-20.79925537109375,-32.621070861816406,9.516206741333008,-5.256508827209473,6.737092971801758,2233.2568078041077
D4:22:CD:00:49:AA,-146.98989868164062,-78.30563354492188,93.42352294921875,5.0828447341918945,5.363665580749512,-0.3088550567626953,2233.2568078041077
D4:22:CD:00:05:6E,-33.79189682006836,-71.56449890136719,-121.35785675048828,-5.321412086486816,-3.531169891357422,4.00543212890625e-05,2233.2568078041077
D4:22:CD:00:05:5E,14.450075149536133,-78.73340606689453,114.35455322265625,-3.8839030265808105,1.163550615310669,-1.8213529586791992,2233.2568078041077
D4:22:CD:00:05:5D,156.92654418945312,-27.368013381958008,-107.11691284179688,-2.9834070205688477,-2.364635944366455,-12.229059219360352,2233.2863545417786
D4:22:CD:00:05:6B,-5.821841239929199,-26.20969009399414,-20.59502601623535,15.473989486694336,17.245140075683594,3.7561426162719727,2233.2863545417786
D4:22:CD:00:49:AA,-151.06570434570312,-77.54173278808594,98.4898681640625,1.4332139492034912,1.2357258796691895,0.3733348846435547,2233.2863545417786
D4:22:CD:00:05:6E,-26.07196617126465,-72.291015625,-127.72789764404297,-1.843451738357544,-1.7582764625549316,0.3072023391723633,2233.2863545417786
D4:22:CD:00:05:5E,14.831441879272461,-81.93959045410156,113.37089538574219,-2.543290615081787,0.8824776411056519,-1.2511281967163086,2233.2863545417786
D4:22:CD:00:05:5D,164.76010131835938,-19.528791427612305,-111.41706848144531,-3.300955295562744,0.2919608950614929,-9.567426681518555,2233.316355228424
D4:22:CD:00:05:6B,-16.649330139160156,-25.96660804748535,-16.47706413269043,7.539243698120117,6.523702621459961,2.1500682830810547,2233.316355228424
D4:22:CD:00:49:AA,-154.23406982421875,-77.86095428466797,103.40009307861328,-1.6715271472930908,-0.538419246673584,-1.8639850616455078,2233.316355228424
D4:22:CD:00:05:6E,-8.908228874206543,-72.55502319335938,-141.23370361328125,-0.7346721887588501,-2.544124126434326,-2.0893425941467285,2233.316355228424
D4:22:CD:00:05:5E,12.602903366088867,-85.92715454101562,114.74494934082031,-2.4429779052734375,2.6166863441467285,-1.1643304824829102,2233.316355228424
D4:22:CD:00:05:5D,167.96517944335938,-16.646202087402344,-115.74407196044922,-7.418890953063965,-1.9614205360412598,-11.689680099487305,2233.376594543457
D4:22:CD:00:05:6B,-22.46741485595703,-21.99264907836914,-19.939119338989258,-7.0554609298706055,-4.0715179443359375,-6.551059722900391,2233.376594543457
D4:22:CD:00:49:AA,-153.0424041748047,-78.8834457397461,104.51593780517578,1.8063960075378418,2.186981201171875,-4.1982011795043945,2233.376594543457
D4:22:CD:00:05:6E,13.179698944091797,-70.94766235351562,-159.93380737304688,0.9692929983139038,-4.811823844909668,-2.025031566619873,2233.376594543457
D4:22:CD:00:05:5E,-124.21846771240234,-89.22468566894531,-110.58019256591797,-2.795240879058838,2.494490623474121,-0.9448680877685547,2233.376594543457
D4:22:CD:00:05:5D,166.45428466796875,-18.655216217041016,-119.72000885009766,-9.510709762573242,-8.095417022705078,-15.65768814086914,2233.4071197509766
D4:22:CD:00:05:6B,-22.35279655456543,-19.79564666748047,-24.8844051361084,-16.223430633544922,-1.1812701225280762,-12.208343505859375,2233.4071197509766
D4:22:CD:00:49:AA,-152.95350646972656,-79.4112319946289,105.66204071044922,5.977414131164551,4.974774360656738,-4.113217353820801,2233.4071197509766
D4:22:CD:00:05:6E,31.460067749023438,-66.908935546875,-177.3889923095703,-0.3232264518737793,-4.319527626037598,-2.8069005012512207,2233.4071197509766
D4:22:CD:00:05:5E,-153.9156951904297,-85.01736450195312,-83.60701751708984,-3.9591140747070312,2.214676856994629,-0.36565589904785156,2233.4071197509766
D4:22:CD:00:05:5D,166.46580505371094,-24.604894638061523,-121.347412109375,-13.104970932006836,-13.945072174072266,-10.045244216918945,2233.436126947403
D4:22:CD:00:05:6B,-20.66555404663086,-22.64907455444336,-28.154756546020508,-11.306869506835938,2.225189208984375,-12.426021575927734,2233.436126947403
D4:22:CD:00:49:AA,-153.71060180664062,-79.65611267089844,105.09856414794922,9.538572311401367,3.485888957977295,-3.2742233276367188,2233.436126947403
D4:22:CD:00:05:6E,42.79914474487305,-60.839534759521484,169.63560485839844,-0.8084506988525391,-9.449834823608398,-0.680537223815918,2233.436126947403
D4:22:CD:00:05:5E,-157.90191650390625,-81.43450164794922,-82.26968383789062,-5.152775764465332,1.2043702602386475,0.010309219360351562,2233.436126947403
D4:22:CD:00:05:5D,169.13038635253906,-27.70328140258789,-123.09439086914062,-17.91765594482422,3.094266891479492,32.23700714111328,2233.467128276825
D4:22:CD:00:05:6B,-20.11811065673828,-32.029754638671875,-31.327482223510742,-1.5908782482147217,-1.952925205230713,-11.452640533447266,2233.467128276825
D4:22:CD:00:49:AA,-151.2854766845703,-80.06629180908203,98.54581451416016,3.1317548751831055,-1.6041560173034668,-0.7768096923828125,2233.467128276825
D4:22:CD:00:05:6E,47.520790100097656,-53.513465881347656,160.5730438232422,0.09749199450016022,-9.524044036865234,5.785426139831543,2233.467128276825
D4:22:CD:00:05:5E,-161.9911346435547,-80.1187744140625,-79.02149200439453,-1.7354950904846191,3.4509167671203613,1.023941993713379,2233.467128276825
D4:22:CD:00:05:5D,171.58016967773438,-25.72854232788086,-122.0347900390625,-14.720279693603516,-7.959758758544922,7.017648696899414,2233.496755838394
D4:22:CD:00:05:6B,-14.746137619018555,-47.1378173828125,-39.42905044555664,9.929994583129883,-12.930362701416016,8.457557678222656,2233.496755838394
D4:22:CD:00:49:AA,-149.83181762695312,-78.93961334228516,93.827392578125,-5.632944107055664,-7.875143051147461,-1.0162668228149414,2233.496755838394
D4:22:CD:00:05:6E,45.71674346923828,-44.67060470581055,157.72421264648438,-0.7115739583969116,-7.77005672454834,14.223152160644531,2233.496755838394
D4:22:CD:00:05:5E,-167.22715759277344,-79.95531463623047,-74.09622955322266,-3.757112503051758,3.230372905731201,0.17823028564453125,2233.496755838394
D4:22:CD:00:05:5D,176.1883087158203,-20.95927619934082,-120.69644927978516,-9.101202011108398,-11.201484680175781,7.586732864379883,2233.526755094528
D4:22:CD:00:05:6B,11.142477989196777,-57.20975112915039,-61.969112396240234,15.813468933105469,-17.796634674072266,54.95653533935547,2233.526755094528
D4:22:CD:00:49:AA,-151.33941650390625,-77.70162963867188,95.20914459228516,-2.9786362648010254,-0.6185014247894287,6.8522186279296875,2233.526755094528
D4:22:CD:00:05:6E,44.797061920166016,-31.4632625579834,157.4581756591797,-2.5321202278137207,5.349336624145508,15.615015029907227,2233.526755094528
D4:22:CD:00:05:5E,-171.09170532226562,-80.83441162109375,-70.759033203125,-4.377569198608398,3.5537376403808594,0.22485828399658203,2233.526755094528
D4:22:CD:00:05:5D,175.5333709716797,-14.617356300354004,-121.31521606445312,-16.721561431884766,-10.47587776184082,11.276657104492188,2233.5567548274994
D4:22:CD:00:05:6B,20.709360122680664,-56.367740631103516,-62.3165283203125,21.95970916748047,2.0727100372314453,-0.4667806625366211,2233.5567548274994
D4:22:CD:00:49:AA,-152.6986846923828,-77.5810775756836,96.27860260009766,4.206055641174316,3.969043254852295,6.64079475402832,2233.5567548274994
D4:22:CD:00:05:6E,51.95951461791992,-15.55113410949707,156.52346801757812,2.1721420288085938,15.599239349365234,12.434347152709961,2233.5567548274994
D4:22:CD:00:05:5E,-173.53598022460938,-83.13098907470703,-69.11701202392578,-4.1330156326293945,4.421268463134766,0.7032575607299805,2233.5567548274994
D4:22:CD:00:05:5D,169.42022705078125,-8.515527725219727,-122.19011688232422,-9.554927825927734,-6.938725471496582,5.825138092041016,2233.587296485901
D4:22:CD:00:05:6B,-1.964951753616333,-52.37010192871094,-38.3004150390625,21.341636657714844,-14.659599304199219,12.789627075195312,2233.587296485901
D4:22:CD:00:49:AA,-157.61891174316406,-77.69622802734375,100.16090393066406,4.690330505371094,6.841953277587891,3.780548095703125,2233.587296485901
D4:22:CD:00:05:6E,61.292213439941406,-0.7249619960784912,153.3389892578125,2.7701101303100586,13.271171569824219,17.979053497314453,2233.587296485901
D4:22:CD:00:05:5E,-176.15167236328125,-87.60395812988281,-67.81368255615234,-6.316052436828613,4.892614364624023,1.735001564025879,2233.587296485901
D4:22:CD:00:05:5D,167.39772033691406,-4.597047328948975,-123.14959716796875,-6.203001022338867,-0.5871564149856567,-1.870500087738037,2233.61630320549
D4:22:CD:00:05:6B,-16.052627563476562,-42.43535232543945,-26.549129486083984,9.916004180908203,-9.884151458740234,11.096735000610352,2233.61630320549
D4:22:CD:00:49:AA,-161.61383056640625,-77.57289123535156,102.3919448852539,4.382558822631836,3.0559768676757812,10.636148452758789,2233.61630320549
D4:22:CD:00:05:6E,66.24081420898438,11.945155143737793,150.32525634765625,-1.0631515979766846,5.24224853515625,18.213741302490234,2233.61630320549
D4:22:CD:00:05:5E,1.122713565826416,-83.77049255371094,113.3932113647461,-6.815079689025879,1.336846113204956,11.882543563842773,2233.61630320549
D4:22:CD:00:05:5D,167.72439575195312,-5.064135551452637,-123.47933197021484,-3.5941624641418457,2.805234909057617,-6.7108001708984375,2233.67631816864
D4:22:CD:00:05:6B,-21.575151443481445,-34.371822357177734,-26.945762634277344,4.957082748413086,-8.744781494140625,-0.08570480346679688,2233.67631816864
D4:22:CD:00:49:AA,-167.86892700195312,-78.37385559082031,105.41914367675781,7.269366264343262,5.168688774108887,11.150156021118164,2233.67631816864
D4:22:CD:00:05:6E,68.00547790527344,21.95008659362793,150.08682250976562,-5.994952201843262,-10.44444465637207,11.122699737548828,2233.67631816864
D4:22:CD:00:05:5E,8.54250431060791,-74.36103820800781,110.0760498046875,-11.916738510131836,3.1145095825195312,1.8339214324951172,2233.67631816864
D4:22:CD:00:05:5D,167.19281005859375,-10.337860107421875,-123.14142608642578,-2.140814781188965,3.491344928741455,-13.019990921020508,2233.7068462371826
D4:22:CD:00:05:6B,-30.057098388671875,-31.457700729370117,-31.092018127441406,-3.1426777839660645,-5.966991424560547,-7.415657997131348,2233.7068462371826
D4:22:CD:00:49:AA,-178.45167541503906,-80.29576873779297,111.8038101196289,5.975030899047852,3.834604263305664,9.91948127746582,2233.7068462371826
D4:22:CD:00:05:6E,66.41935729980469,29.278602600097656,150.78079223632812,-5.274684906005859,-15.260583877563477,-0.3355093002319336,2233.7068462371826
D4:22:CD:00:05:5E,10.947067260742188,-77.86833190917969,108.91793060302734,-12.954147338867188,17.50365447998047,-14.313400268554688,2233.7068462371826
D4:22:CD:00:05:5D,164.0388946533203,-19.999330520629883,-122.1438217163086,-7.607268333435059,0.8252742290496826,-18.98781967163086,2233.7368581295013
D4:22:CD:00:05:6B,-36.57500457763672,-34.9014778137207,-38.690433502197266,-6.878813743591309,-0.8733155727386475,-1.3888931274414062,2233.7368581295013
D4:22:CD:00:49:AA,162.6278839111328,-82.76636505126953,126.1591796875,-2.811771869659424,1.07072114944458,-3.2347793579101562,2233.7368581295013
D4:22:CD:00:05:6E,61.21012878417969,36.10752868652344,149.6408233642578,-2.372201919555664,-14.959552764892578,-8.879951477050781,2233.7368581295013
D4:22:CD:00:05:5E,-29.01705551147461,-87.25092315673828,143.37982177734375,1.8379802703857422,-14.110017776489258,-3.3796916007995605,2233.7368581295013
D4:22:CD:00:05:5D,159.13296508789062,-32.53201675415039,-119.5802230834961,-6.058258056640625,-3.0012927055358887,-18.084571838378906,2233.766846179962
D4:22:CD:00:05:6B,-38.52569580078125,-42.14438247680664,-48.664710998535156,-3.860872745513916,0.45849621295928955,-6.017247200012207,2233.766846179962
D4:22:CD:00:49:AA,145.29876708984375,-82.98091125488281,140.05490112304688,-2.4709858894348145,-2.8665432929992676,-12.848873138427734,2233.766846179962
D4:22:CD:00:05:6E,53.777774810791016,42.4166374206543,146.0989990234375,-1.9497058391571045,-11.806758880615234,-14.266855239868164,2233.766846179962
D4:22:CD:00:05:5E,-122.69243621826172,-87.5910873413086,-131.1493377685547,5.896737098693848,-15.536096572875977,-14.007244110107422,2233.766846179962
D4:22:CD:00:05:5D,155.0363006591797,-47.689666748046875,-114.46049499511719,-5.307831764221191,-4.843247413635254,-7.662906646728516,2233.7969419956207
D4:22:CD:00:05:6B,-38.8935546875,-49.731422424316406,-60.037330627441406,-2.9788284301757812,0.05083632469177246,-7.1941022872924805,2233.7969419956207
D4:22:CD:00:49:AA,139.74896240234375,-83.43863677978516,145.44406127929688,-5.431149482727051,-7.082763671875,-6.356483459472656,2233.7969419956207
D4:22:CD:00:05:6E,48.17905807495117,46.42314529418945,142.8003692626953,3.645045757293701,-5.216643333435059,-13.709674835205078,2233.7969419956207
D4:22:CD:00:05:5E,-105.43701934814453,-88.11487579345703,-146.01075744628906,5.28816032409668,4.443225860595703,6.5155029296875,2233.7969419956207
D4:22:CD:00:05:5D,146.43582153320312,-65.40752410888672,-104.23696899414062,-0.9447159767150879,-7.204475402832031,8.152143478393555,2233.826942205429
D4:22:CD:00:05:6B,-40.21520233154297,-56.722877502441406,-72.0118179321289,-1.8866372108459473,1.1806273460388184,-6.071419715881348,2233.826942205429
D4:22:CD:00:49:AA,127.47802734375,-85.36849212646484,158.07472229003906,-0.8039568662643433,4.9744110107421875,-10.453788757324219,2233.826942205429
D4:22:CD:00:05:6E,49.1256103515625,48.74109649658203,143.16741943359375,-2.3895788192749023,0.45277708768844604,-7.524629592895508,2233.826942205429
D4:22:CD:00:05:5E,-124.58592987060547,-87.63371276855469,-126.29498291015625,-0.8630193471908569,-5.355607986450195,-3.692387580871582,2233.826942205429
D4:22:CD:00:05:5D,104.02169799804688,-82.11792755126953,-56.920501708984375,16.77568817138672,-0.9379868507385254,24.599048614501953,2233.8569428920746
D4:22:CD:00:05:6B,-45.20659637451172,-61.51295852661133,-82.06401062011719,-5.898959159851074,12.180068969726562,0.868133544921875,2233.8569428920746
D4:22:CD:00:49:AA,96.83772277832031,-86.1142578125,-171.8289031982422,6.9136810302734375,3.640892505645752,-13.693607330322266,2233.8569428920746
D4:22:CD:00:05:6E,50.526329040527344,50.59409713745117,151.32394409179688,-11.96824836730957,-7.099370956420898,-10.255279541015625,2233.8569428920746
D4:22:CD:00:05:5E,-146.18603515625,-83.53104400634766,-111.5496826171875,-6.399799346923828,-1.3666234016418457,-0.6009883880615234,2233.8569428920746
D4:22:CD:00:05:5D,28.96248435974121,-78.39453887939453,27.10117530822754,1.4124891757965088,35.142860412597656,-2.517123222351074,2233.8864929676056
D4:22:CD:00:05:6B,-52.2554817199707,-64.16594696044922,-89.20841217041016,-1.5958118438720703,2.021063804626465,-8.803056716918945,2233.8864929676056
D4:22:CD:00:49:AA,79.60731506347656,-85.3733139038086,-155.4312744140625,-0.675276517868042,-0.7934063673019409,-8.090887069702148,2233.8864929676056
D4:22:CD:00:05:6E,42.593753814697266,50.7288932800293,165.17115783691406,-16.648998260498047,-13.089860916137695,-22.953369140625,2233.8864929676056
D4:22:CD:00:05:5E,-150.1487579345703,-80.54890441894531,-111.31354522705078,-3.499697208404541,1.5768437385559082,1.6633262634277344,2233.8864929676056
D4:22:CD:00:05:5D,26.842979431152344,-75.9523696899414,23.105422973632812,14.466836929321289,13.05402946472168,-13.405828475952148,2233.9164929389954
D4:22:CD:00:05:6B,-62.776611328125,-66.67840576171875,-92.75967407226562,-2.253659725189209,3.9166035652160645,-5.4913434982299805,2233.9164929389954
D4:22:CD:00:49:AA,85.03243255615234,-85.64126586914062,-160.77378845214844,-1.6587340831756592,-4.933383941650391,-1.2138938903808594,2233.9164929389954
D4:22:CD:00:05:6E,42.04360580444336,53.67203903198242,177.8452911376953,-1.946234941482544,22.025833129882812,-27.247657775878906,2233.9164929389954
D4:22:CD:00:05:5E,-144.3372344970703,-79.3720703125,-116.82408905029297,-4.1828718185424805,0.010897597298026085,2.262690544128418,2233.9164929389954
D4:22:CD:00:05:5D,52.04421615600586,-77.27590942382812,-4.8593010902404785,8.966697692871094,5.58275032043457,-0.3912944793701172,2234.006290912628
D4:22:CD:00:05:6B,-58.100341796875,-71.36563110351562,-99.94756317138672,-0.6091549396514893,7.321542739868164,1.2971687316894531,2234.006290912628
D4:22:CD:00:49:AA,116.7837905883789,-86.3547134399414,168.58682250976562,4.687045097351074,1.1437559127807617,2.1665754318237305,2234.006290912628
D4:22:CD:00:05:6E,69.1065673828125,61.25718688964844,176.6031494140625,11.178916931152344,-6.891208648681641,-2.5123400688171387,2234.006290912628
D4:22:CD:00:05:5E,-136.80857849121094,-78.04615783691406,-123.62492370605469,-2.0578722953796387,-1.1239080429077148,6.431337356567383,2234.006290912628
D4:22:CD:00:05:5D,90.01506042480469,-75.02367401123047,-40.09231948852539,7.2836456298828125,-10.829727172851562,5.772876739501953,2234.0102903842926
D4:22:CD:00:05:6B,-33.9645881652832,-76.47229766845703,-117.33967590332031,-0.7998573780059814,0.9417059421539307,-0.2312164306640625,2234.0102903842926
D4:22:CD:00:49:AA,147.89016723632812,-86.3980484008789,138.86195373535156,4.797102928161621,3.7902188301086426,4.2107086181640625,2234.0102903842926
D4:22:CD:00:05:6E,85.84028625488281,64.71661376953125,168.18331909179688,3.983659267425537,-3.3644485473632812,-5.451970100402832,2234.0102903842926
D4:22:CD:00:05:5E,-130.62451171875,-75.98602294921875,-128.8585205078125,-4.146998405456543,-1.3458268642425537,5.709043502807617,2234.0102903842926
D4:22:CD:00:05:5D,111.22913360595703,-73.32485961914062,-60.06869888305664,5.199271202087402,-13.282474517822266,-3.5176644325256348,2234.036290168762
D4:22:CD:00:05:6B,-12.961616516113281,-79.03619384765625,-136.3404541015625,-1.7819905281066895,-2.9649200439453125,3.546359062194824,2234.036290168762
D4:22:CD:00:49:AA,163.34410095214844,-85.88267517089844,124.3917236328125,-0.06616698205471039,1.7486298084259033,2.980475425720215,2234.036290168762
D4:22:CD:00:05:6E,86.19470977783203,66.63907623291016,153.5207977294922,-8.416864395141602,-1.549478530883789,-0.8149547576904297,2234.036290168762
D4:22:CD:00:05:5E,-122.74303436279297,-73.76631927490234,-133.7079620361328,-5.1396026611328125,-3.2531018257141113,4.759076118469238,2234.036290168762
D4:22:CD:00:05:5D,125.82544708251953,-72.36493682861328,-73.8023910522461,4.416769981384277,1.0975048542022705,4.800082206726074,2234.06635761261
D4:22:CD:00:05:6B,-13.268939018249512,-80.28044891357422,-140.81369018554688,-1.0461094379425049,-1.1646006107330322,7.912017822265625,2234.06635761261
D4:22:CD:00:49:AA,170.20797729492188,-85.1211929321289,119.63590240478516,0.9243060350418091,0.8428764343261719,5.926569938659668,2234.06635761261
D4:22:CD:00:05:6E,61.3324089050293,64.65552520751953,123.19371795654297,-11.304512023925781,-1.6240456104278564,-4.854206085205078,2234.06635761261
D4:22:CD:00:05:5E,-115.38876342773438,-71.33818054199219,-136.92953491210938,-7.283849716186523,-6.648709297180176,2.441112518310547,2234.06635761261
D4:22:CD:00:05:5D,138.03689575195312,-71.2591781616211,-85.29486846923828,0.4243876338005066,-4.170991897583008,2.458184242248535,2234.0959062576294
D4:22:CD:00:05:6B,-24.814855575561523,-81.13754272460938,-133.1834259033203,0.3465992212295532,3.0143074989318848,8.976203918457031,2234.0959062576294
D4:22:CD:00:49:AA,176.74148559570312,-84.55752563476562,116.18535614013672,4.255001068115234,-2.022599697113037,3.762409210205078,2234.0959062576294
D4:22:CD:00:05:6E,39.37275695800781,52.21426773071289,97.78079986572266,-9.948003768920898,-4.928794860839844,-15.160043716430664,2234.0959062576294
D4:22:CD:00:05:5E,-110.04731750488281,-70.08396911621094,-136.76683044433594,-22.840068817138672,6.719324111938477,-7.882431983947754,2234.0959062576294
D4:22:CD:00:05:5D,148.30975341796875,-70.28860473632812,-92.07242584228516,-5.706945419311523,6.51942253112793,3.543996810913086,2234.1269059181213
D4:22:CD:00:05:6B,-24.422327041625977,-81.91947174072266,-129.23764038085938,1.834801197052002,2.0829272270202637,6.9093170166015625,2234.1269059181213
D4:22:CD:00:49:AA,178.07559204101562,-83.96837615966797,117.72620391845703,0.7494324445724487,-1.470766544342041,1.579890251159668,2234.1269059181213
D4:22:CD:00:05:6E,31.814701080322266,33.94318771362305,85.97844696044922,-7.511748313903809,-2.1598997116088867,-17.347488403320312,2234.1269059181213
D4:22:CD:00:05:5E,-115.87869262695312,-69.1590347290039,-123.24272155761719,-14.583364486694336,12.997522354125977,0.6198520660400391,2234.1269059181213
D4:22:CD:00:05:5D,154.82608032226562,-69.88457489013672,-95.28913879394531,-4.594545364379883,-3.095797538757324,5.2670488357543945,2234.1569056510925
D4:22:CD:00:05:6B,-16.5745906829834,-82.40927124023438,-128.49984741210938,2.776508331298828,-2.2290477752685547,2.288771629333496,2234.1569056510925
D4:22:CD:00:49:AA,173.87550354003906,-83.38103485107422,126.29362487792969,-5.34848690032959,-2.5568437576293945,-2.6370396614074707,2234.1569056510925
D4:22:CD:00:05:6E,31.355783462524414,14.632792472839355,77.84063720703125,5.105867385864258,6.18483829498291,-7.523885726928711,2234.1569056510925
D4:22:CD:00:05:5E,-122.08012390136719,-67.44525909423828,-105.95573425292969,-15.66810417175293,8.801216125488281,-4.824997901916504,2234.1569056510925
D4:22:CD:00:05:5D,163.05723571777344,-69.32290649414062,-102.12335205078125,-1.2208325862884521,0.34854453802108765,0.5062408447265625,2234.186460494995
D4:22:CD:00:05:6B,-21.04464340209961,-82.38362121582031,-119.31328582763672,2.9969873428344727,-2.1914620399475098,-0.5391168594360352,2234.186460494995
D4:22:CD:00:49:AA,174.0430908203125,-81.70426940917969,130.88868713378906,-5.300990104675293,0.16186976432800293,-6.426262855529785,2234.186460494995
D4:22:CD:00:05:6E,34.678367614746094,-1.1343380212783813,68.07453918457031,-0.18747574090957642,10.801031112670898,5.351197242736816,2234.186460494995
D4:22:CD:00:05:5E,-136.04324340820312,-64.15479278564453,-85.38736724853516,-9.450929641723633,2.913351535797119,-9.768482208251953,2234.186460494995
D4:22:CD:00:05:5D,169.58486938476562,-68.26904296875,-109.20757293701172,1.2871768474578857,0.5756152868270874,-0.007355690002441406,2234.216459751129
D4:22:CD:00:05:6B,-31.363019943237305,-81.5522232055664,-104.91809844970703,-1.2036519050598145,-2.1149239540100098,-3.9052419662475586,2234.216459751129
D4:22:CD:00:49:AA,177.04920959472656,-79.0088119506836,130.82412719726562,2.7992286682128906,2.8164024353027344,-1.469223976135254,2234.216459751129
D4:22:CD:00:05:6E,34.418365478515625,-11.084495544433594,57.50102615356445,14.795999526977539,1.0355679988861084,9.560989379882812,2234.216459751129
D4:22:CD:00:05:5E,-148.01312255859375,-59.46125030517578,-68.36463928222656,1.787592887878418,5.3198957443237305,-11.295047760009766,2234.216459751129
D4:22:CD:00:05:5D,173.17886352539062,-67.91985321044922,-114.1595458984375,3.140822410583496,-1.9185717105865479,-0.5335464477539062,2234.246460199356
D4:22:CD:00:05:6B,-38.770328521728516,-80.26419067382812,-91.87679290771484,-5.579895973205566,-3.614325523376465,-3.71821928024292,2234.246460199356
D4:22:CD:00:49:AA,177.47518920898438,-76.39518737792969,131.22679138183594,1.3681352138519287,3.666109561920166,0.37465858459472656,2234.246460199356
D4:22:CD:00:05:6E,38.92299270629883,-14.059800148010254,51.81241989135742,20.32032012939453,-10.605524063110352,1.549957275390625,2234.246460199356
D4:22:CD:00:05:5E,-156.19007873535156,-54.20478439331055,-57.405235290527344,0.35020655393600464,5.81816291809082,-12.142768859863281,2234.246460199356
D4:22:CD:00:05:5D,174.06930541992188,-67.46406555175781,-116.17686462402344,-1.4402928352355957,0.5918804407119751,0.8628387451171875,2234.307002067566
D4:22:CD:00:05:6B,-42.15235137939453,-78.85869598388672,-83.99833679199219,-4.93773078918457,-5.072231292724609,-1.8800430297851562,2234.307002067566
D4:22:CD:00:49:AA,174.83609008789062,-74.35965728759766,133.71963500976562,-3.841134548187256,0.8447128534317017,0.7883682250976562,2234.307002067566
D4:22:CD:00:05:6E,45.79922866821289,-12.526216506958008,50.78573989868164,-8.014835357666016,0.9472416639328003,5.506756782531738,2234.307002067566
D4:22:CD:00:05:5E,-162.68788146972656,-50.2337532043457,-50.176700592041016,0.24002009630203247,4.212705612182617,-9.000694274902344,2234.307002067566
D4:22:CD:00:05:5D,174.8177947998047,-66.44677734375,-116.9697265625,-0.5970736742019653,0.6481200456619263,1.0482101440429688,2234.3360097408295
D4:22:CD:00:05:6B,-46.49535369873047,-76.43016052246094,-79.34490203857422,-7.339049339294434,-4.398489952087402,0.04098224639892578,2234.3360097408295
D4:22:CD:00:49:AA,173.21334838867188,-73.05563354492188,135.4362030029297,-4.487025260925293,-0.7266898155212402,3.9486122131347656,2234.3360097408295
D4:22:CD:00:05:6E,42.8050422668457,-9.958928108215332,49.8770637512207,-1.1530816555023193,-8.133184432983398,-1.3196191787719727,2234.3360097408295
D4:22:CD:00:05:5E,-169.28237915039062,-48.06554412841797,-45.271385192871094,-0.8376688957214355,0.795098066329956,-6.5812788009643555,2234.3360097408295
D4:22:CD:00:05:5D,175.4246368408203,-65.57798767089844,-117.35179138183594,-0.13642850518226624,0.7055803537368774,0.5908174514770508,2234.3660097122192
D4:22:CD:00:05:6B,-53.5549201965332,-72.12849426269531,-72.4822998046875,-8.638687133789062,-1.7304003238677979,4.606490135192871,2234.3660097122192
D4:22:CD:00:49:AA,172.0204620361328,-72.7637710571289,137.29344177246094,-1.7438504695892334,0.42574542760849,1.049504280090332,2234.3660097122192
D4:22:CD:00:05:6E,51.27910614013672,-7.825542449951172,51.161468505859375,3.0601096153259277,-9.705236434936523,-8.463489532470703,2234.3660097122192
D4:22:CD:00:05:5E,179.57449340820312,-47.54780960083008,-39.64003372192383,-3.2495102882385254,-3.1022605895996094,-1.3593549728393555,2234.3660097122192
D4:22:CD:00:05:5D,175.78797912597656,-64.94295501708984,-117.47467803955078,0.02515571191906929,0.05772780627012253,0.33504772186279297,2234.3965525627136
D4:22:CD:00:05:6B,-56.46898651123047,-66.26022338867188,-66.9059829711914,-4.264096260070801,2.048137664794922,5.938637733459473,2234.3965525627136
D4:22:CD:00:49:AA,169.0342559814453,-72.95296478271484,140.1769256591797,-1.04598069190979,2.54293155670166,-0.24218177795410156,2234.3965525627136
D4:22:CD:00:05:6E,64.78761291503906,-9.336417198181152,53.08190155029297,-8.458433151245117,-0.9414753913879395,-2.1643505096435547,2234.3965525627136
D4:22:CD:00:05:5E,169.02767944335938,-49.81756591796875,-32.7505989074707,5.565823554992676,-8.392681121826172,-1.990109920501709,2234.3965525627136
D4:22:CD:00:05:5D,175.52870178222656,-64.15665435791016,-117.11271667480469,0.11758926510810852,-0.8363243341445923,0.2368783950805664,2234.426552772522
D4:22:CD:00:05:6B,-53.691062927246094,-59.34467315673828,-65.4852066040039,-1.9151346683502197,-0.9948000907897949,1.560556411743164,2234.426552772522
D4:22:CD:00:49:AA,163.97396850585938,-73.16786193847656,144.00570678710938,-1.9570860862731934,0.3890541195869446,-0.4483966827392578,2234.426552772522
D4:22:CD:00:05:6E,70.6111831665039,-16.284717559814453,55.05199432373047,-4.2170000076293945,1.252723217010498,-4.081067085266113,2234.426552772522
D4:22:CD:00:05:5E,167.02040100097656,-55.279258728027344,-25.766002655029297,0.8434869050979614,15.698612213134766,12.189249038696289,2234.426552772522
D4:22:CD:00:05:5D,174.67318725585938,-62.996707916259766,-116.13883209228516,-0.8388261795043945,-0.856284499168396,-0.10939788818359375,2234.4565539360046
D4:22:CD:00:05:6B,-51.13169860839844,-52.45433044433594,-65.70294189453125,0.26338112354278564,-2.259263038635254,-3.50901460647583,2234.4565539360046
D4:22:CD:00:49:AA,158.80055236816406,-73.66290283203125,147.8521728515625,-1.6549899578094482,-1.1168851852416992,-2.8532776832580566,2234.4565539360046
D4:22:CD:00:05:6E,72.66568756103516,-28.114360809326172,56.677616119384766,2.1227025985717773,3.680418014526367,-3.809319496154785,2234.4565539360046
D4:22:CD:00:05:5E,172.7646026611328,-57.33219909667969,-22.148448944091797,7.271139144897461,-3.353407382965088,3.790912628173828,2234.4565539360046
