Device,EulerX,EulerY,EulerZ,FreeAccX,FreeAccY,FreeAccZ,Timestamp
D4:22:CD:00:05:5D,151.8070068359375,-55.747657775878906,-135.44100952148438,2.917137622833252,-0.40068715810775757,-0.6297626495361328,489.38548517227173
D4:22:CD:00:05:6B,-28.537572860717773,-18.837074279785156,11.697441101074219,3.9953670501708984,0.1702202558517456,-5.881869316101074,489.38548517227173
D4:22:CD:00:49:AA,155.35397338867188,-77.5497817993164,117.5029296875,1.4045469760894775,2.1267218589782715,-2.124685287475586,489.38548517227173
D4:22:CD:00:05:6E,-63.34945297241211,-77.26444244384766,-118.95796203613281,-6.382122039794922,-1.5121619701385498,-2.053330898284912,489.38548517227173
D4:22:CD:00:05:5E,-133.0647735595703,-72.85525512695312,-94.5174331665039,-1.4928045272827148,-3.230891227722168,-1.289280891418457,489.38548517227173
D4:22:CD:00:05:6B,-44.26466751098633,-24.524572372436523,26.103492736816406,1.9414968490600586,-7.342526435852051,5.932849884033203,489.3944773674011
D4:22:CD:00:49:AA,157.20278930664062,-78.04523468017578,116.0038833618164,2.2415757179260254,1.3175334930419922,-1.6827316284179688,489.3944773674011
D4:22:CD:00:05:6E,-49.621761322021484,-76.51081848144531,-126.97085571289062,-3.916882038116455,-1.3481688499450684,-4.496616363525391,489.3944773674011
D4:22:CD:00:05:5E,-135.28518676757812,-73.52510833740234,-91.90828704833984,-2.3050265312194824,-4.2540483474731445,-2.654595375061035,489.3944773674011
D4:22:CD:00:05:5D,-158.01748657226562,-67.65257263183594,-105.51576232910156,-2.5241928100585938,1.7407128810882568,0.34627723693847656,489.3984708786011
D4:22:CD:00:05:6B,-42.043212890625,-26.73158836364746,33.98520278930664,0.46744847297668457,-8.204805374145508,7.652536392211914,489.3984708786011
D4:22:CD:00:49:AA,157.16490173339844,-78.46824645996094,116.39735412597656,1.0935699939727783,1.2259840965270996,-3.502976417541504,489.3984708786011
D4:22:CD:00:05:6E,-31.952943801879883,-76.5213623046875,-137.42881774902344,-3.5473127365112305,-1.6875550746917725,-6.013101577758789,489.3984708786011
D4:22:CD:00:05:5E,-138.29519653320312,-72.31165313720703,-88.47953033447266,-2.991325855255127,-6.448441505432129,-4.142578125,489.3984708786011
D4:22:CD:00:05:5D,-171.34593200683594,-64.32395935058594,-92.97203826904297,-1.5863444805145264,0.894599437713623,-0.05750751495361328,489.4044735431671
D4:22:CD:00:49:AA,156.1538848876953,-79.02815246582031,117.88540649414062,-0.015401719138026237,-0.2980976104736328,-5.5318498611450195,489.4044735431671
D4:22:CD:00:05:6E,-7.372071743011475,-76.61029052734375,-152.74630737304688,-2.7400107383728027,-2.5590672492980957,-6.634673118591309,489.4044735431671
D4:22:CD:00:05:5E,-141.36749267578125,-69.39156341552734,-85.25391387939453,-2.74411678314209,-4.486408233642578,-0.5782556533813477,489.4044735431671
D4:22:CD:00:05:5D,173.15960693359375,-57.410362243652344,-84.65316009521484,2.031010627746582,-0.7238055467605591,-0.3941993713378906,489.4084646701813
D4:22:CD:00:05:6B,-74.33361053466797,10.37965202331543,-37.591957092285156,15.926294326782227,-4.238243103027344,9.127355575561523,489.4084646701813
D4:22:CD:00:49:AA,102.27326965332031,-77.32992553710938,165.22994995117188,-2.746001720428467,-4.306870460510254,3.2516441345214844,489.4084646701813
D4:22:CD:00:05:6E,-101.25800323486328,-59.48719024658203,-123.97895812988281,-1.501143217086792,-1.8976976871490479,9.545576095581055,489.4084646701813
D4:22:CD:00:05:5D,174.93167114257812,-59.87941360473633,-86.8027114868164,2.7459449768066406,-0.4082384705543518,-0.0036687850952148438,489.4443199634552
D4:22:CD:00:05:6B,-61.8427619934082,19.42165184020996,-31.659013748168945,19.133079528808594,-4.6322832107543945,1.9803237915039062,489.4443199634552
D4:22:CD:00:49:AA,113.02415466308594,-76.26947021484375,154.0166778564453,-1.887444257736206,-1.345271110534668,0.35634708404541016,489.4443199634552
D4:22:CD:00:05:6E,-90.50912475585938,-60.60111999511719,-127.16809844970703,-4.555667877197266,-2.442491054534912,4.046966552734375,489.4443199634552
D4:22:CD:00:05:5E,171.12831115722656,-79.4885025024414,-65.79292297363281,9.475740432739258,-0.46591466665267944,0.3740720748901367,489.4443199634552
D4:22:CD:00:05:5D,177.3636016845703,-63.00589370727539,-88.65049743652344,3.7548928260803223,0.42880570888519287,0.3068389892578125,489.47445011138916
D4:22:CD:00:05:6B,-45.32231521606445,24.172531127929688,-27.455366134643555,15.395992279052734,-4.574316024780273,-1.704935073852539,489.47445011138916
D4:22:CD:00:49:AA,119.2005844116211,-77.1796875,148.13711547851562,-2.0236692428588867,-0.5066251754760742,-0.6144676208496094,489.47445011138916
D4:22:CD:00:05:6E,-77.35491943359375,-61.990867614746094,-128.3649444580078,-8.5869140625,-2.742466926574707,0.7268285751342773,489.47445011138916
D4:22:CD:00:05:5E,-100.38811492919922,-76.6900634765625,-152.18179321289062,5.553248405456543,0.8876992464065552,1.072072982788086,489.47445011138916
D4:22:CD:00:05:5D,179.54876708984375,-66.42459106445312,-89.6977310180664,0.6760991811752319,-0.8385233879089355,0.10409069061279297,489.5044050216675
D4:22:CD:00:05:6B,-28.60710334777832,26.97698974609375,-26.300304412841797,5.47036075592041,-5.507372856140137,-2.663691997528076,489.5044050216675
D4:22:CD:00:49:AA,127.81692504882812,-78.58438873291016,141.03475952148438,-3.785543918609619,0.904706597328186,-1.5670976638793945,489.5044050216675
D4:22:CD:00:05:6E,-65.56584167480469,-62.47419738769531,-127.40306854248047,-10.902507781982422,-4.858954429626465,-1.009389877319336,489.5044050216675
D4:22:CD:00:05:5E,-72.78392791748047,-58.0648307800293,-177.36659240722656,-0.02038075029850006,1.9740734100341797,-1.4053363800048828,489.5044050216675
D4:22:CD:00:05:5D,-179.5034637451172,-69.61234283447266,-90.34934997558594,-0.4097837209701538,-1.2244348526000977,-0.2756175994873047,489.53440523147583
D4:22:CD:00:05:6B,-15.614086151123047,29.676973342895508,-27.41477394104004,-3.0145554542541504,-6.737296104431152,-4.651637077331543,489.53440523147583
D4:22:CD:00:49:AA,140.0937042236328,-80.17340850830078,131.41807556152344,-3.9947547912597656,0.9420458078384399,-2.9248552322387695,489.53440523147583
D4:22:CD:00:05:6E,-55.80863571166992,-62.66896057128906,-124.9738540649414,-8.602045059204102,-8.73086166381836,-4.49724006652832,489.53440523147583
D4:22:CD:00:05:5E,-64.05767059326172,-48.26753234863281,173.40830993652344,-3.853783130645752,1.5584871768951416,-5.86018180847168,489.53440523147583
D4:22:CD:00:05:5D,-179.20010375976562,-72.36007690429688,-90.57136535644531,0.9212380647659302,-1.5955839157104492,-0.7869806289672852,489.5640585422516
D4:22:CD:00:05:6B,-9.053504943847656,33.19229507446289,-29.975566864013672,-5.358031272888184,-5.799166679382324,-5.587385177612305,489.5640585422516
D4:22:CD:00:49:AA,154.77490234375,-81.98780822753906,119.95164489746094,-1.7814393043518066,0.21653810143470764,-4.62790584564209,489.5640585422516
D4:22:CD:00:05:6E,-47.27976608276367,-63.32025909423828,-123.55821990966797,-3.720277786254883,-8.151411056518555,-5.8164825439453125,489.5640585422516
D4:22:CD:00:05:5E,-58.327117919921875,-42.898033142089844,163.7244873046875,-6.515586853027344,3.212052822113037,-6.191061019897461,489.5640585422516
D4:22:CD:00:05:5D,179.46340942382812,-74.25401306152344,-89.52471160888672,1.4050841331481934,-2.624389171600342,-1.6961231231689453,489.59713339805603
D4:22:CD:00:05:6B,-3.798966646194458,38.148197174072266,-36.42079544067383,-5.894230842590332,-4.308935165405273,-8.1678466796875,489.59713339805603
D4:22:CD:00:49:AA,170.32296752929688,-82.37743377685547,107.45671844482422,0.9229938983917236,0.08329874277114868,-5.664402008056641,489.59713339805603
D4:22:CD:00:05:6E,-39.46466827392578,-63.7973747253418,-124.08350372314453,-2.5578184127807617,-7.675533294677734,-4.888138771057129,489.59713339805603
D4:22:CD:00:05:5E,-54.159210205078125,-39.31415939331055,153.57090759277344,-9.109228134155273,8.465879440307617,-8.955333709716797,489.59713339805603
D4:22:CD:00:05:5D,175.82525634765625,-74.60438537597656,-85.77518463134766,1.624821424484253,-3.656369686126709,-1.6915321350097656,489.6246335506439
D4:22:CD:00:05:6B,1.0520168542861938,43.74443435668945,-49.82448959350586,-3.149746894836426,3.125598907470703,-9.182111740112305,489.6246335506439
D4:22:CD:00:49:AA,177.39724731445312,-81.82048797607422,102.42134857177734,0.48313260078430176,-0.5095210075378418,-4.820119857788086,489.6246335506439
D4:22:CD:00:05:6E,-32.479183197021484,-63.958152770996094,-125.61857604980469,-2.877964973449707,-7.26809024810791,-4.741058349609375,489.6246335506439
D4:22:CD:00:05:5E,-55.55958938598633,-37.616058349609375,144.4957733154297,-12.145303726196289,14.486948013305664,-14.378402709960938,489.6246335506439
D4:22:CD:00:05:5D,170.0542755126953,-73.11454010009766,-79.56490325927734,1.7530081272125244,-2.733722686767578,-0.5311441421508789,489.714159488678
D4:22:CD:00:05:6B,-4.9095072746276855,47.113529205322266,-71.8505859375,0.44447964429855347,0.3127326965332031,-13.617486953735352,489.714159488678
D4:22:CD:00:49:AA,-179.16110229492188,-81.27244567871094,99.6453628540039,-1.2455105781555176,-2.152372360229492,-2.5632262229919434,489.714159488678
D4:22:CD:00:05:6E,-26.756973266601562,-63.781776428222656,-126.52525329589844,-2.3815560340881348,-7.753414154052734,-5.045001983642578,489.714159488678
D4:22:CD:00:05:5E,-62.59764099121094,-38.6647834777832,138.7639617919922,-6.863781929016113,18.49079132080078,-18.020851135253906,489.714159488678
D4:22:CD:00:05:5D,164.5724639892578,-70.65984344482422,-74.68458557128906,-0.6166174411773682,-1.0588574409484863,-0.1823101043701172,489.7191550731659
D4:22:CD:00:05:6B,-23.704320907592773,44.336029052734375,-98.41262817382812,-6.359840393066406,-13.61965560913086,-28.618289947509766,489.7191550731659
D4:22:CD:00:49:AA,-173.4248504638672,-81.07808685302734,93.18122863769531,-0.2441856563091278,-2.5211563110351562,-2.4907760620117188,489.7191550731659
D4:22:CD:00:05:6E,-23.21211051940918,-63.36958694458008,-126.18008422851562,-0.08638501167297363,-7.840332984924316,-6.2841339111328125,489.7191550731659
D4:22:CD:00:05:5E,-69.43179321289062,-42.55509948730469,137.47242736816406,3.127039909362793,21.83977508544922,-15.874652862548828,489.7191550731659
D4:22:CD:00:05:5D,160.5919189453125,-68.637939453125,-70.21308898925781,-2.1614623069763184,5.255975723266602,-1.0664739608764648,489.74378752708435
D4:22:CD:00:05:6B,-29.825223922729492,38.224822998046875,-119.00830078125,-24.022457122802734,-12.579063415527344,-12.351301193237305,489.74378752708435
D4:22:CD:00:49:AA,-167.39730834960938,-81.26234436035156,85.22659301757812,0.3078305125236511,-1.0966429710388184,-2.544891834259033,489.74378752708435
D4:22:CD:00:05:6E,-23.28047752380371,-62.9490852355957,-124.12837982177734,0.25627923011779785,-8.780956268310547,-5.764256477355957,489.74378752708435
D4:22:CD:00:05:5E,-76.29084014892578,-49.07061767578125,144.09812927246094,-8.25932502746582,23.39200210571289,-17.83932113647461,489.74378752708435
D4:22:CD:00:05:5D,155.39111328125,-68.22726440429688,-64.88709259033203,1.3627264499664307,-0.038064032793045044,4.015072822570801,489.7738883495331
D4:22:CD:00:05:6B,-15.667523384094238,38.4150276184082,-120.18415832519531,8.118642807006836,14.766464233398438,-7.344478607177734,489.7738883495331
D4:22:CD:00:49:AA,-161.55638122558594,-81.42157745361328,78.18441009521484,-3.4889068603515625,-0.39918965101242065,2.0150747299194336,489.7738883495331
D4:22:CD:00:05:6E,-28.296289443969727,-63.95149230957031,-119.39010620117188,0.12392158806324005,-8.408843994140625,-4.320764541625977,489.7738883495331
D4:22:CD:00:05:5E,-87.97920227050781,-56.2128791809082,155.92095947265625,-16.80865478515625,-7.846236228942871,-4.317204475402832,489.7738883495331
D4:22:CD:00:05:5D,147.96575927734375,-69.01094055175781,-57.715309143066406,-0.5624253749847412,1.8670587539672852,2.0362939834594727,489.8041763305664
D4:22:CD:00:05:6B,-3.337022542953491,35.17375946044922,-103.88335418701172,-4.304543495178223,-4.444487571716309,-18.709705352783203,489.8041763305664
D4:22:CD:00:49:AA,-159.18983459472656,-79.97681427001953,75.13518524169922,-6.267308235168457,-2.0688118934631348,5.903863906860352,489.8041763305664
D4:22:CD:00:05:6E,-41.44313049316406,-66.53257751464844,-111.13304901123047,3.72059965133667,-11.376192092895508,5.578557968139648,489.8041763305664
D4:22:CD:00:05:5E,-98.0008544921875,-61.711177825927734,167.60531616210938,-10.072078704833984,3.6786327362060547,10.316560745239258,489.8041763305664
D4:22:CD:00:05:5D,138.27305603027344,-71.09504699707031,-48.81072998046875,-1.4605085849761963,1.592322587966919,2.875894546508789,489.8346891403198
D4:22:CD:00:05:6B,-1.5268840789794922,24.516218185424805,-85.40731048583984,-10.332792282104492,-0.12297725677490234,-18.689090728759766,489.8346891403198
D4:22:CD:00:49:AA,-159.0249481201172,-78.7713394165039,72.93701934814453,1.397857666015625,-0.11001932621002197,4.223964691162109,489.8346891403198
D4:22:CD:00:05:6E,-61.46485900878906,-69.66606903076172,-100.56131744384766,4.444250106811523,-8.948348999023438,1.7531347274780273,489.8346891403198
D4:22:CD:00:05:5E,-118.37167358398438,-64.73124694824219,-177.54591369628906,3.7905373573303223,1.235948085784912,5.607516288757324,489.8346891403198
D4:22:CD:00:05:5D,118.08356475830078,-75.43486022949219,-32.27970886230469,4.710578918457031,-2.127490520477295,6.578733444213867,489.86430978775024
D4:22:CD:00:05:6B,-2.9549007415771484,8.05113697052002,-71.20305633544922,-14.475126266479492,-4.154311180114746,-12.02682876586914,489.86430978775024
D4:22:CD:00:49:AA,-157.667724609375,-77.43294525146484,68.31661224365234,6.025228500366211,-1.0927109718322754,3.317476272583008,489.86430978775024
D4:22:CD:00:05:6E,-86.63905334472656,-72.36996459960938,-87.94151306152344,1.9152812957763672,-2.544032573699951,-4.445626258850098,489.86430978775024
D4:22:CD:00:05:5E,-129.3184051513672,-68.03630065917969,-167.0251007080078,-2.7411789894104004,1.9469175338745117,2.805753707885742,489.86430978775024
D4:22:CD:00:05:5D,96.97050476074219,-78.17288970947266,-21.223466873168945,10.192800521850586,13.634899139404297,-2.0980424880981445,489.89430952072144
D4:22:CD:00:05:6B,-3.8393898010253906,-10.051412582397461,-57.962093353271484,-1.953160047531128,-3.9869256019592285,-8.709554672241211,489.89430952072144
D4:22:CD:00:49:AA,-156.59310913085938,-76.03846740722656,64.1985092163086,11.006031036376953,-1.1560661792755127,-2.144726276397705,489.89430952072144
D4:22:CD:00:05:6E,-111.31953430175781,-73.39955139160156,-74.45214080810547,2.2616171836853027,1.3925576210021973,-1.3901405334472656,489.89430952072144
D4:22:CD:00:05:5E,-138.12644958496094,-71.53707885742188,-157.38531494140625,-2.8319578170776367,2.251957893371582,-0.3029441833496094,489.89430952072144
D4:22:CD:00:05:5D,117.06166076660156,-77.18873596191406,-49.59307098388672,18.30951690673828,25.74646759033203,4.039497375488281,489.9244701862335
D4:22:CD:00:05:6B,-16.417434692382812,-26.903411865234375,-39.398319244384766,4.124061584472656,-3.4173340797424316,-5.957759857177734,489.9244701862335
D4:22:CD:00:49:AA,-159.4391632080078,-74.08851623535156,63.494300842285156,4.395665168762207,-2.2690963745117188,-0.4648103713989258,489.9244701862335
D4:22:CD:00:05:6E,-123.72602081298828,-73.51478576660156,-66.76573944091797,4.240161895751953,0.44331836700439453,1.1601810455322266,489.9244701862335
D4:22:CD:00:05:5E,-145.0935516357422,-73.03560638427734,-151.4224090576172,-4.6367292404174805,2.906623363494873,-1.5160093307495117,489.9244701862335
D4:22:CD:00:05:5D,145.28846740722656,-66.7396240234375,-82.21923828125,12.430072784423828,9.300237655639648,8.966753005981445,489.9839768409729
D4:22:CD:00:05:6B,-40.94961929321289,-37.52431106567383,-13.812782287597656,1.2538714408874512,-3.7259955406188965,4.052290916442871,489.9839768409729
D4:22:CD:00:49:AA,-160.55029296875,-73.5544204711914,62.12450408935547,-1.4781503677368164,-0.136951744556427,1.5012006759643555,489.9839768409729
D4:22:CD:00:05:6E,-124.26731872558594,-74.28193664550781,-64.96066284179688,-0.4850141406059265,-2.6951050758361816,1.4698610305786133,489.9839768409729
D4:22:CD:00:05:5E,-149.11672973632812,-73.5117416381836,-149.5257568359375,-2.2807211875915527,1.7905826568603516,-0.1381063461303711,489.9839768409729
D4:22:CD:00:05:5D,155.89846801757812,-52.737953186035156,-96.57283020019531,2.9813170433044434,-1.3397443294525146,1.5560617446899414,490.0140745639801
D4:22:CD:00:05:6B,-60.939781188964844,-39.43281173706055,10.961036682128906,-3.2655625343322754,0.007236599922180176,6.200693130493164,490.0140745639801
D4:22:CD:00:49:AA,-160.4241180419922,-73.0085220336914,61.088584899902344,2.3686718940734863,0.8483433723449707,-0.2144603729248047,490.0140745639801
D4:22:CD:00:05:6E,-126.2166519165039,-75.68849182128906,-61.58499526977539,-1.5424778461456299,-1.914109468460083,1.2784175872802734,490.0140745639801
D4:22:CD:00:05:5E,-153.42196655273438,-73.27114868164062,-147.70655822753906,-2.023665428161621,-0.3664394021034241,0.04614543914794922,490.0140745639801
D4:22:CD:00:05:5D,159.36570739746094,-39.30521011352539,-103.93443298339844,-2.551924228668213,-4.2790679931640625,-5.438301086425781,490.0438997745514
D4:22:CD:00:05:6B,-64.59595489501953,-37.0281867980957,26.802099227905273,-4.6141557693481445,-1.6394121646881104,13.23176383972168,490.0438997745514
D4:22:CD:00:49:AA,-160.69570922851562,-73.00540924072266,60.55830764770508,6.267251014709473,-0.5355288982391357,0.07911300659179688,490.0438997745514
D4:22:CD:00:05:6E,-133.20492553710938,-77.34304809570312,-54.741947174072266,0.28878021240234375,1.4071953296661377,0.5634632110595703,490.0438997745514
D4:22:CD:00:05:5E,-156.73280334472656,-73.34528350830078,-145.72610473632812,-2.7624735832214355,-0.11115701496601105,-0.5883035659790039,490.0438997745514
D4:22:CD:00:05:5D,160.5626678466797,-28.06654930114746,-108.28311920166016,-4.967243194580078,-3.1521530151367188,-10.14987564086914,490.07400393486023
D4:22:CD:00:05:6B,-48.883460998535156,-34.01832580566406,32.67844009399414,-0.12395322322845459,1.5382592678070068,2.0087127685546875,490.07400393486023
D4:22:CD:00:49:AA,-162.7172088623047,-73.59696960449219,61.685760498046875,2.7410669326782227,1.8294386863708496,-2.008906364440918,490.07400393486023
D4:22:CD:00:05:6E,-143.4283905029297,-79.03041076660156,-43.53255844116211,-0.831972599029541,1.5406560897827148,-1.4307937622070312,490.07400393486023
D4:22:CD:00:05:5E,-158.51805114746094,-73.1146240234375,-144.2847900390625,-3.6084818840026855,0.8967107534408569,-1.3705015182495117,490.07400393486023
D4:22:CD:00:05:5D,160.6125946044922,-20.414213180541992,-110.98231506347656,-3.441896438598633,-0.6049294471740723,-8.778478622436523,490.1042356491089
D4:22:CD:00:05:6B,-32.17677688598633,-33.484371185302734,31.21483612060547,-2.248000144958496,5.558315277099609,-8.298879623413086,490.1042356491089
D4:22:CD:00:49:AA,-165.19058227539062,-74.25070190429688,63.73396301269531,-0.26158857345581055,2.736111640930176,-3.218273162841797,490.1042356491089
D4:22:CD:00:05:6E,-160.25286865234375,-80.25434112548828,-24.392953872680664,-0.8184653520584106,0.9935376644134521,-2.521021842956543,490.1042356491089
D4:22:CD:00:05:5E,-159.2688751220703,-71.77958679199219,-143.81594848632812,-4.182533264160156,0.5621495246887207,-2.284532070159912,490.1042356491089
D4:22:CD:00:05:5D,160.31161499023438,-17.09067726135254,-112.88910675048828,-6.604413986206055,-5.8214921951293945,-12.358463287353516,490.1342444419861
D4:22:CD:00:05:6B,-23.679658889770508,-37.490089416503906,25.567729949951172,-2.0186119079589844,6.866168975830078,-4.242130279541016,490.1342444419861
D4:22:CD:00:49:AA,-165.5898895263672,-74.49935913085938,64.91241455078125,0.018920816481113434,1.2401447296142578,-3.92759370803833,490.1342444419861
D4:22:CD:00:05:6E,176.95579528808594,-80.36540985107422,0.09842733293771744,-0.8039828538894653,-0.5370553731918335,-1.7896852493286133,490.1342444419861
D4:22:CD:00:05:5E,-159.15159606933594,-69.2965316772461,-143.99505615234375,-4.024767875671387,0.14503419399261475,-1.722458839416504,490.1342444419861
D4:22:CD:00:05:5D,159.205810546875,-18.567752838134766,-113.39276885986328,-9.307487487792969,-8.87755012512207,-15.567817687988281,490.164124250412
D4:22:CD:00:05:6B,-22.939722061157227,-47.48977279663086,19.75689125061035,7.656890869140625,5.27504825592041,1.1026716232299805,490.164124250412
D4:22:CD:00:49:AA,-164.47264099121094,-74.46966552734375,65.23585510253906,1.8031291961669922,0.3581126928329468,-5.610437393188477,490.164124250412
D4:22:CD:00:05:6E,153.48077392578125,-78.8832015991211,23.74980354309082,0.7833757400512695,-1.3736317157745361,-2.640312671661377,490.164124250412
D4:22:CD:00:05:5E,-158.45437622070312,-66.34710693359375,-144.43923950195312,-1.2032568454742432,-0.11026956140995026,0.020257949829101562,490.164124250412
D4:22:CD:00:05:5D,160.2937469482422,-24.151153564453125,-112.45854187011719,-6.357541084289551,-12.249055862426758,-16.294971466064453,490.19411849975586
D4:22:CD:00:05:6B,-27.626976013183594,-61.37394332885742,16.397071838378906,12.380613327026367,6.998565673828125,21.551441192626953,490.19411849975586
D4:22:CD:00:49:AA,-163.0513153076172,-74.70194244384766,64.87056732177734,3.444291591644287,-1.0315508842468262,-5.624176025390625,490.19411849975586
D4:22:CD:00:05:6E,134.38157653808594,-75.91067504882812,44.29735565185547,3.677154064178467,-0.31511813402175903,-2.4654321670532227,490.19411849975586
D4:22:CD:00:05:5E,-156.96026611328125,-63.526065826416016,-144.6572723388672,-2.6799168586730957,0.1689348816871643,-1.4006481170654297,490.19411849975586
D4:22:CD:00:05:5D,170.52093505859375,-27.59083366394043,-112.18544006347656,-3.112964153289795,-5.434727668762207,22.791973114013672,490.2273712158203
D4:22:CD:00:05:6B,-29.416852951049805,-69.6370620727539,11.976536750793457,6.7850236892700195,8.129167556762695,18.768394470214844,490.2273712158203
D4:22:CD:00:49:AA,-161.193359375,-74.48841094970703,63.284305572509766,-1.7931926250457764,0.4770050048828125,-3.177058219909668,490.2273712158203
D4:22:CD:00:05:6E,120.54850769042969,-71.17792510986328,62.142967224121094,4.566045761108398,-0.9931501150131226,-0.4192991256713867,490.2273712158203
D4:22:CD:00:05:5E,-157.59918212890625,-60.34039306640625,-143.5807342529297,-2.211793899536133,0.37682944536209106,0.3020286560058594,490.2273712158203
D4:22:CD:00:05:5D,175.6270751953125,-29.606138229370117,-110.81499481201172,-0.8749897480010986,-21.899585723876953,-1.4852495193481445,490.28436756134033
D4:22:CD:00:05:6B,-33.468955993652344,-68.84661865234375,14.621557235717773,8.175117492675781,2.3791656494140625,5.094210624694824,490.28436756134033
D4:22:CD:00:49:AA,-155.91810607910156,-74.31724548339844,59.108001708984375,-0.6288018226623535,0.4665137529373169,-0.5742120742797852,490.28436756134033
D4:22:CD:00:05:6E,111.03308868408203,-63.79298400878906,77.01539611816406,4.881674766540527,-2.594722270965576,10.058820724487305,490.28436756134033
D4:22:CD:00:05:5E,-159.4171905517578,-58.09275436401367,-141.07406616210938,-1.5795657634735107,0.19436708092689514,1.5373287200927734,490.28436756134033
D4:22:CD:00:05:5D,176.67315673828125,-31.368898391723633,-110.691162109375,-6.991850852966309,-14.72768783569336,11.459156036376953,490.3143675327301
D4:22:CD:00:05:6B,-36.7784309387207,-63.33778762817383,20.56221580505371,9.44352912902832,5.260750770568848,14.74648666381836,490.3143675327301
D4:22:CD:00:49:AA,-154.84617614746094,-72.51029968261719,60.00417709350586,3.822765350341797,1.2410926818847656,10.53413200378418,490.3143675327301
D4:22:CD:00:05:6E,102.8711929321289,-53.436073303222656,88.39791107177734,7.107062339782715,-1.4733479022979736,23.960983276367188,490.3143675327301
D4:22:CD:00:05:5E,-161.03663635253906,-57.124691009521484,-138.5408477783203,-2.324601650238037,2.5298242568969727,1.3448495864868164,490.3143675327301
D4:22:CD:00:05:5D,176.01185607910156,-29.111486434936523,-108.78703308105469,-5.754449844360352,-12.311727523803711,11.091409683227539,490.34405875205994
D4:22:CD:00:05:6B,-37.73418426513672,-58.083900451660156,20.657318115234375,10.558219909667969,4.509910583496094,8.899402618408203,490.34405875205994
D4:22:CD:00:49:AA,-156.16036987304688,-72.48252868652344,61.76551818847656,3.0653786659240723,2.2003164291381836,10.591753005981445,490.34405875205994
D4:22:CD:00:05:6E,99.11724090576172,-41.66172790527344,96.37609100341797,9.852561950683594,-6.51438045501709,23.788299560546875,490.34405875205994
D4:22:CD:00:05:5E,-161.64796447753906,-57.48031234741211,-137.35614013671875,-3.4625473022460938,1.8335442543029785,0.35916996002197266,490.34405875205994
D4:22:CD:00:05:5D,173.55368041992188,-24.56760597229004,-106.74577331542969,-5.178614616394043,-15.522380828857422,10.829597473144531,490.3740670681
D4:22:CD:00:05:6B,-44.702877044677734,-55.92958068847656,18.669010162353516,8.999893188476562,-2.857597827911377,3.3367509841918945,490.3740670681
D4:22:CD:00:49:AA,-155.61575317382812,-73.55403137207031,62.65262222290039,4.04750919342041,3.0802154541015625,8.009515762329102,490.3740670681
D4:22:CD:00:05:6E,97.80919647216797,-26.759645462036133,100.42050170898438,10.029207229614258,-7.232061386108398,13.533416748046875,490.3740670681
D4:22:CD:00:05:5E,-161.55902099609375,-58.845829010009766,-137.22023010253906,-3.2639212608337402,1.643219232559204,0.034572601318359375,490.3740670681
D4:22:CD:00:05:5D,170.10104370117188,-20.43093490600586,-104.96141815185547,-5.836824417114258,-16.404010772705078,-2.037590980529785,490.4039969444275
D4:22:CD:00:05:6B,-51.03507614135742,-58.027156829833984,15.47579288482666,1.4384644031524658,-5.615635871887207,2.1955032348632812,490.4039969444275
D4:22:CD:00:49:AA,-156.4687957763672,-74.80880737304688,64.42214965820312,3.8752799034118652,1.386983871459961,3.4047985076904297,490.4039969444275
D4:22:CD:00:05:6E,94.47860717773438,-9.699569702148438,101.7452621459961,12.49294662475586,1.2066373825073242,7.78626823425293,490.4039969444275
D4:22:CD:00:05:5E,-161.933837890625,-60.544464111328125,-137.241455078125,-2.006476402282715,0.42280489206314087,0.5967540740966797,490.4039969444275
D4:22:CD:00:05:5D,167.40823364257812,-19.72940444946289,-103.19414520263672,-5.842353820800781,-7.099979400634766,-4.290952682495117,490.43424010276794
D4:22:CD:00:05:6B,-51.97738265991211,-64.12547302246094,10.60966968536377,-2.1080245971679688,-3.462130069732666,1.9508085250854492,490.43424010276794
D4:22:CD:00:49:AA,-158.75196838378906,-76.30349731445312,66.9039077758789,4.367290496826172,1.1405410766601562,2.770045280456543,490.43424010276794
D4:22:CD:00:05:6E,88.50991821289062,6.555886268615723,103.06641387939453,8.725164413452148,7.448264122009277,4.733216285705566,490.43424010276794
D4:22:CD:00:05:5E,-163.27874755859375,-62.6589469909668,-136.32186889648438,-1.4558744430541992,0.3024284243583679,1.8616857528686523,490.43424010276794
D4:22:CD:00:05:5D,167.795654296875,-19.791582107543945,-102.52821350097656,-3.889669895172119,-4.183919906616211,-3.346304416656494,490.46428990364075
D4:22:CD:00:05:6B,-53.8576545715332,-72.5159912109375,5.672083377838135,-1.9825530052185059,-2.1446070671081543,1.7100963592529297,490.46428990364075
D4:22:CD:00:49:AA,-161.8700408935547,-78.06012725830078,70.00086975097656,2.9565391540527344,1.5821402072906494,2.2859725952148438,490.46428990364075
D4:22:CD:00:05:6E,79.31782531738281,20.029666900634766,104.95411682128906,-1.8968310356140137,4.097640037536621,3.7143402099609375,490.46428990364075
D4:22:CD:00:05:5E,-164.66098022460938,-65.90033721923828,-134.8818817138672,-3.3904595375061035,1.1311042308807373,1.6849985122680664,490.46428990364075
D4:22:CD:00:05:5D,166.74522399902344,-23.273731231689453,-103.19396209716797,-9.465808868408203,-1.6869330406188965,-5.964081764221191,490.49451971054077
D4:22:CD:00:05:6B,-56.51380157470703,-82.00657653808594,0.04368878901004791,-5.2833709716796875,-2.827749252319336,2.9064626693725586,490.49451971054077
D4:22:CD:00:49:AA,-164.72369384765625,-79.52401733398438,72.83799743652344,0.9059362411499023,-0.3089854121208191,0.6209611892700195,490.49451971054077
D4:22:CD:00:05:6E,66.8188705444336,29.336267471313477,106.14167022705078,-10.778619766235352,-2.3586225509643555,1.0948476791381836,490.49451971054077
D4:22:CD:00:05:5E,-164.371826171875,-70.01642608642578,-134.167236328125,-4.829428672790527,0.5935925245285034,2.1715288162231445,490.49451971054077
D4:22:CD:00:05:5D,162.49288940429688,-29.43593406677246,-103.74208068847656,-6.952919006347656,-2.77937650680542,-6.421008110046387,490.5245609283447
D4:22:CD:00:05:6B,92.3525161743164,-88.36829376220703,-155.86634826660156,-6.221596717834473,-0.4582638740539551,1.0526065826416016,490.5245609283447
D4:22:CD:00:49:AA,-167.4624786376953,-80.84015655517578,76.41785430908203,-0.18086177110671997,0.017535708844661713,-1.6151752471923828,490.5245609283447
D4:22:CD:00:05:6E,56.644691467285156,35.27703094482422,107.69104766845703,-3.3578591346740723,-3.7506656646728516,-5.075750350952148,490.5245609283447
D4:22:CD:00:05:5E,-161.0006866455078,-74.15460205078125,-135.7634735107422,-4.465163230895996,0.3950456976890564,0.6848850250244141,490.5245609283447
D4:22:CD:00:05:5D,158.7434844970703,-38.196624755859375,-103.11331939697266,-5.952901840209961,-3.626803398132324,-5.222105979919434,490.58427929878235
D4:22:CD:00:05:6B,106.65277099609375,-79.78138732910156,-178.67800903320312,-5.522917747497559,0.6630759239196777,-0.44568634033203125,490.58427929878235
D4:22:CD:00:49:AA,-172.94126892089844,-81.51654815673828,82.94808959960938,0.9883167743682861,-0.7360330820083618,-3.300642490386963,490.58427929878235
D4:22:CD:00:05:6E,54.73158264160156,39.587196350097656,111.61361694335938,-2.040642261505127,-1.802610158920288,-7.439693450927734,490.58427929878235
D4:22:CD:00:05:5E,-153.76815795898438,-77.80372619628906,-140.71807861328125,-2.761148452758789,0.8721877336502075,-1.798081398010254,490.58427929878235
D4:22:CD:00:05:5D,154.1190643310547,-49.240623474121094,-100.12611389160156,-4.239926338195801,-4.791435241699219,-3.1202430725097656,490.61439299583435
D4:22:CD:00:05:6B,99.75625610351562,-72.2168960571289,176.86497497558594,-6.448617935180664,2.2544431686401367,-2.9463682174682617,490.61439299583435
D4:22:CD:00:49:AA,-178.40383911132812,-81.72891998291016,89.27105712890625,2.155466079711914,-0.5008213520050049,-3.2820777893066406,490.61439299583435
D4:22:CD:00:05:6E,57.7907829284668,42.30504608154297,118.29207611083984,-4.458561897277832,-1.0134289264678955,-8.516695022583008,490.61439299583435
D4:22:CD:00:05:5E,-141.1472930908203,-80.6483383178711,-151.03952026367188,-1.7092950344085693,1.6856932640075684,-3.177551746368408,490.61439299583435
D4:22:CD:00:05:5D,147.45156860351562,-61.771453857421875,-92.62648010253906,-0.1807294487953186,-5.896854400634766,0.6391792297363281,490.64399433135986
D4:22:CD:00:05:6B,92.45602416992188,-65.62687683105469,172.40098571777344,-6.733328819274902,1.4663066864013672,-6.152688980102539,490.64399433135986
D4:22:CD:00:49:AA,178.65757751464844,-82.1039047241211,92.95884704589844,2.428774833679199,-0.18702435493469238,-4.782537460327148,490.64399433135986
D4:22:CD:00:05:6E,62.882904052734375,42.854248046875,128.959716796875,-1.9183449745178223,1.206836223602295,-9.050148010253906,490.64399433135986
D4:22:CD:00:05:5E,-123.86239624023438,-82.17750549316406,-166.71279907226562,-1.780822992324829,2.5126051902770996,-4.377377510070801,490.64399433135986
D4:22:CD:00:05:5D,132.45370483398438,-74.49919891357422,-72.67082214355469,3.967684745788574,0.2799452543258667,8.038091659545898,490.67453026771545
D4:22:CD:00:05:6B,88.14247131347656,-60.11905288696289,166.09402465820312,-6.929389953613281,3.3575692176818848,-6.891127586364746,490.67453026771545
D4:22:CD:00:49:AA,177.14437866210938,-82.93445587158203,95.16549682617188,2.166116714477539,-1.2571773529052734,-5.909180641174316,490.67453026771545
D4:22:CD:00:05:6E,69.1176528930664,39.869693756103516,144.01812744140625,-10.032821655273438,1.2371861934661865,-13.765083312988281,490.67453026771545
D4:22:CD:00:05:5E,-108.80123901367188,-82.33194732666016,178.5511932373047,-2.0171151161193848,1.8058686256408691,-3.981499195098877,490.67453026771545
D4:22:CD:00:05:5D,76.41283416748047,-79.33200073242188,-9.160452842712402,10.796552658081055,9.001888275146484,7.154260635375977,490.704128742218
D4:22:CD:00:05:6B,86.91130828857422,-55.906742095947266,160.02301025390625,-6.8685102462768555,6.328865051269531,-6.848596572875977,490.704128742218
D4:22:CD:00:49:AA,178.1126708984375,-84.2340087890625,95.39093780517578,0.20216476917266846,-1.1011030673980713,-4.873354911804199,490.704128742218
D4:22:CD:00:05:6E,71.90887451171875,32.25283432006836,158.55702209472656,-23.85907745361328,3.1016321182250977,-17.73471450805664,490.704128742218
D4:22:CD:00:05:5E,-102.91409301757812,-81.40458679199219,172.486328125,-1.5335702896118164,0.36304569244384766,-3.9593253135681152,490.704128742218
D4:22:CD:00:05:5D,56.5356559753418,-73.51655578613281,24.13860321044922,15.728597640991211,25.552001953125,-12.736799240112305,490.7342221736908
D4:22:CD:00:05:6B,88.35603332519531,-53.38018798828125,156.3397674560547,-6.778163909912109,7.523763656616211,-7.6103515625,490.7342221736908
D4:22:CD:00:49:AA,-173.38961791992188,-86.17095947265625,89.45003509521484,-1.0060217380523682,-0.24251312017440796,-4.611591339111328,490.7342221736908
D4:22:CD:00:05:6E,65.19642639160156,30.622264862060547,162.15679931640625,-8.834224700927734,-4.660089492797852,6.448114395141602,490.7342221736908
D4:22:CD:00:05:5E,-105.63035583496094,-79.68903350830078,174.1309356689453,-4.099043846130371,0.45097535848617554,0.08618736267089844,490.7342221736908
D4:22:CD:00:05:5D,66.54510498046875,-72.0738754272461,20.634510040283203,-0.12370368838310242,29.604736328125,-14.270135879516602,490.7640116214752
D4:22:CD:00:05:6B,90.70118713378906,-53.61430740356445,155.33126831054688,-4.528068542480469,3.689073085784912,-5.232105255126953,490.7640116214752
D4:22:CD:00:49:AA,-151.63259887695312,-87.36641693115234,71.21764373779297,3.973482608795166,-2.0655245780944824,-2.9638733863830566,490.7640116214752
D4:22:CD:00:05:6E,56.310325622558594,37.02550506591797,153.77833557128906,0.03660920262336731,0.19190356135368347,-11.080598831176758,490.7640116214752
D4:22:CD:00:05:5E,-103.98224639892578,-77.76478576660156,171.30198669433594,-4.015117645263672,0.05304230749607086,5.922167778015137,490.7640116214752
D4:22:CD:00:05:5D,82.5850601196289,-72.62903594970703,1.9323936700820923,20.178977966308594,-1.6404130458831787,-0.5959300994873047,490.794557094574
D4:22:CD:00:05:6B,93.23916625976562,-56.63315200805664,154.2571258544922,-3.85385799407959,4.964735984802246,1.528219223022461,490.794557094574
D4:22:CD:00:49:AA,-142.29408264160156,-87.21800231933594,64.47052001953125,9.06032943725586,-0.6354467868804932,3.6378097534179688,490.794557094574
D4:22:CD:00:05:6E,36.27993392944336,45.55177688598633,138.0533447265625,-15.996631622314453,-5.562649726867676,-16.963871002197266,490.794557094574
D4:22:CD:00:05:5E,-92.4281997680664,-76.11105346679688,160.93177795410156,-3.832724094390869,-0.022231940180063248,4.624065399169922,490.794557094574
D4:22:CD:00:05:5D,99.74441528320312,-75.88375854492188,-16.86698341369629,-2.1041688919067383,0.6583220958709717,5.881979942321777,490.82397389411926
D4:22:CD:00:05:6B,97.83686065673828,-59.703975677490234,151.8286895751953,-6.577644348144531,10.168657302856445,3.096538543701172,490.82397389411926
D4:22:CD:00:49:AA,-151.74893188476562,-86.45503234863281,75.22923278808594,3.127413272857666,-2.726797103881836,5.263428688049316,490.82397389411926
D4:22:CD:00:05:6E,7.170130252838135,50.13790512084961,111.03060150146484,4.468723297119141,20.40341567993164,-18.841629028320312,490.82397389411926
D4:22:CD:00:05:5E,-78.3216323852539,-73.76268005371094,149.0659637451172,-5.9516143798828125,0.2851613759994507,2.00955867767334,490.82397389411926
D4:22:CD:00:05:5D,108.18830108642578,-78.9969711303711,-33.35934066772461,-12.100933074951172,-6.067054748535156,13.13807487487793,490.8850963115692
D4:22:CD:00:05:6B,108.93608856201172,-61.884254455566406,150.54855346679688,-4.155284881591797,7.861589431762695,5.1105852127075195,490.8850963115692
D4:22:CD:00:49:AA,-148.2659149169922,-85.61688995361328,74.43543243408203,-0.8583290576934814,-4.379720687866211,-0.3983469009399414,490.8850963115692
D4:22:CD:00:05:6E,-6.714505672454834,47.635746002197266,83.30789947509766,-4.991291046142578,-2.3323349952697754,-14.325536727905273,490.8850963115692
D4:22:CD:00:05:5E,-66.14006042480469,-71.32945251464844,140.5655059814453,-10.267911911010742,5.478184700012207,-4.7461090087890625,490.8850963115692
D4:22:CD:00:05:5D,129.727783203125,-78.21096801757812,-50.41889572143555,2.693934440612793,-0.8472447395324707,-3.3240365982055664,490.9141638278961
D4:22:CD:00:05:6B,119.59964752197266,-65.27396392822266,151.58201599121094,2.9943323135375977,1.4558162689208984,5.107174873352051,490.9141638278961
D4:22:CD:00:49:AA,-152.42776489257812,-83.79708099365234,82.50609588623047,-4.563617706298828,0.541584849357605,0.7494907379150391,490.9141638278961
D4:22:CD:00:05:6E,-15.877779006958008,39.91804504394531,62.52458953857422,9.447694778442383,0.1480138599872589,-7.834413528442383,490.9141638278961
D4:22:CD:00:05:5E,-60.70414733886719,-70.46228790283203,143.15318298339844,-1.4273724555969238,26.037155151367188,-8.875602722167969,490.9141638278961
D4:22:CD:00:05:5D,142.4886016845703,-77.20330810546875,-59.22926330566406,4.661130905151367,5.387350082397461,1.1118459701538086,490.9447662830353
D4:22:CD:00:05:6B,125.167724609375,-70.00077056884766,154.08676147460938,1.9647736549377441,-2.889760971069336,-0.04026222229003906,490.9447662830353
D4:22:CD:00:49:AA,-160.46405029296875,-80.70787811279297,92.26637268066406,-2.6531248092651367,3.1395721435546875,-1.6716699600219727,490.9447662830353
D4:22:CD:00:05:6E,-9.115364074707031,32.094608306884766,47.49269485473633,15.145322799682617,-13.923212051391602,-0.8082046508789062,490.9447662830353
D4:22:CD:00:05:5E,-71.70929718017578,-70.29553985595703,163.6483917236328,-8.669733047485352,21.898334503173828,0.9190254211425781,490.9447662830353
D4:22:CD:00:05:5D,152.49853515625,-76.04078674316406,-69.01612091064453,-1.8169538974761963,1.0125045776367188,1.0716876983642578,490.97397661209106
D4:22:CD:00:05:6B,123.70303344726562,-73.98159790039062,159.29629516601562,4.572836875915527,-10.527288436889648,-1.0694694519042969,490.97397661209106
D4:22:CD:00:49:AA,-168.4759063720703,-78.63091278076172,97.61822509765625,2.8884472846984863,-2.8658227920532227,0.6954221725463867,490.97397661209106
D4:22:CD:00:05:6E,13.850046157836914,26.566452026367188,37.54979705810547,10.255001068115234,-25.342243194580078,-2.584836006164551,490.97397661209106
D4:22:CD:00:05:5E,-105.285400390625,-65.42207336425781,-162.402099609375,-7.476767539978027,11.705860137939453,5.07465934753418,490.97397661209106
D4:22:CD:00:05:5D,160.18185424804688,-75.02464294433594,-75.50413513183594,0.8514813184738159,1.0125539302825928,0.9416599273681641,491.00398540496826
D4:22:CD:00:05:6B,116.55648040771484,-75.36322784423828,165.12518310546875,-4.708657264709473,-11.762123107910156,-2.4719719886779785,491.00398540496826
D4:22:CD:00:49:AA,-172.3649444580078,-77.9233627319336,99.8316650390625,-3.2173051834106445,3.0678343772888184,-1.5523653030395508,491.00398540496826
D4:22:CD:00:05:6E,44.0115966796875,21.846155166625977,35.61701965332031,-4.751976013183594,-4.815561294555664,-11.221879959106445,491.00398540496826
D4:22:CD:00:05:5E,-130.63096618652344,-56.21306610107422,-140.77670288085938,-5.275260925292969,2.831331253051758,-2.410587787628174,491.00398540496826
D4:22:CD:00:05:5D,164.859130859375,-74.29781341552734,-78.99571990966797,-0.33747345209121704,0.912204384803772,0.6749143600463867,491.0340530872345
D4:22:CD:00:05:6B,114.5791015625,-75.52478790283203,167.120849609375,-6.949633598327637,-10.571233749389648,-2.5505623817443848,491.0340530872345
D4:22:CD:00:49:AA,-177.61993408203125,-76.82315826416016,103.95339965820312,-4.63858699798584,0.4616950750350952,0.9672718048095703,491.0340530872345
D4:22:CD:00:05:6E,60.346920013427734,13.69682502746582,36.413814544677734,-0.24732914566993713,4.2642059326171875,4.175912857055664,491.0340530872345
D4:22:CD:00:05:5E,-144.20773315429688,-47.24618911743164,-128.3319549560547,-3.240591049194336,-1.2111012935638428,-6.078578948974609,491.0340530872345
D4:22:CD:00:05:5D,168.99185180664062,-73.94562530517578,-82.5301284790039,-1.7953696250915527,0.2732633352279663,0.7185544967651367,491.06408166885376
D4:22:CD:00:05:6B,118.08081817626953,-75.5346908569336,164.14488220214844,-3.423630714416504,-7.178877830505371,0.8988809585571289,491.06408166885376
D4:22:CD:00:49:AA,177.40989685058594,-76.05858612060547,107.53260803222656,-3.042905330657959,2.3027586936950684,3.9864578247070312,491.06408166885376
D4:22:CD:00:05:6E,71.24217224121094,5.169057369232178,36.288246154785156,-1.9818360805511475,2.887559413909912,13.598581314086914,491.06408166885376
D4:22:CD:00:05:5E,-151.45065307617188,-40.40867614746094,-120.26848602294922,-3.8679723739624023,-1.5806684494018555,-8.053871154785156,491.06408166885376
D4:22:CD:00:05:5D,173.185791015625,-73.9367446899414,-86.4577407836914,0.27931272983551025,0.5020536184310913,0.4647798538208008,491.0953459739685
D4:22:CD:00:05:6B,119.12336730957031,-75.4389419555664,159.8236541748047,-3.326658248901367,-2.402435779571533,2.115062713623047,491.0953459739685
D4:22:CD:00:49:AA,171.8540802001953,-76.20912170410156,112.47864532470703,-2.176903247833252,2.407627582550049,-0.6185436248779297,491.0953459739685
D4:22:CD:00:05:6E,79.26335906982422,0.0029062454123049974,32.481536865234375,-2.478668212890625,9.198387145996094,23.241783142089844,491.0953459739685
D4:22:CD:00:05:5E,-160.03890991210938,-35.840248107910156,-113.99168395996094,-5.278720855712891,0.1438480019569397,-7.911325454711914,491.0953459739685
D4:22:CD:00:05:5D,176.92901611328125,-74.178955078125,-89.8544692993164,-0.1441810429096222,0.24301311373710632,0.13798236846923828,491.12411880493164
D4:22:CD:00:05:6B,114.36962127685547,-75.43124389648438,158.15245056152344,-5.658997535705566,1.1026926040649414,0.8073148727416992,491.12411880493164
D4:22:CD:00:49:AA,163.3173370361328,-75.53282928466797,118.84131622314453,1.9908432960510254,2.477158546447754,-2.491600513458252,491.12411880493164
D4:22:CD:00:05:6E,82.08356475830078,-2.9332501888275146,26.339664459228516,5.434933662414551,1.60042142868042,8.465316772460938,491.12411880493164
D4:22:CD:00:05:5E,-171.78944396972656,-33.67772674560547,-108.21345520019531,-4.726889610290527,-1.1716222763061523,-3.085966110229492,491.12411880493164
D4:22:CD:00:05:5D,179.67478942871094,-74.20327758789062,-92.70864868164062,0.2859950661659241,-0.952921986579895,-0.187255859375,491.1842658519745
D4:22:CD:00:05:6B,105.5823974609375,-75.73721313476562,161.34800720214844,-4.674802780151367,3.3454909324645996,-0.8879356384277344,491.1842658519745
D4:22:CD:00:49:AA,155.8487091064453,-74.03984832763672,122.8756103515625,-0.5256979465484619,0.45692217350006104,0.4443016052246094,491.1842658519745
D4:22:CD:00:05:6E,82.79712677001953,-6.2527689933776855,20.21779441833496,6.053811073303223,-0.3259471654891968,0.561457633972168,491.1842658519745
D4:22:CD:00:05:5E,178.52459716796875,-34.64505386352539,-101.78096008300781,-0.4581403136253357,-9.461784362792969,-1.1804628372192383,491.1842658519745
D4:22:CD:00:05:5D,-179.2290496826172,-73.59564971923828,-93.75736236572266,2.588594436645508,-1.7643027305603027,-0.9899568557739258,491.2440688610077
D4:22:CD:00:05:6B,93.07991027832031,-76.71687316894531,168.36643981933594,-3.226226329803467,4.099353790283203,-2.3125710487365723,491.2440688610077
D4:22:CD:00:49:AA,148.97410583496094,-73.31890869140625,126.27613067626953,-2.677900791168213,-0.9621268510818481,-1.5532808303833008,491.2440688610077
D4:22:CD:00:05:6E,81.70526123046875,-12.08647346496582,14.531828880310059,7.288421630859375,-0.7257148027420044,-5.396681785583496,491.2440688610077
D4:22:CD:00:05:5E,177.29739379882812,-39.23421096801758,-95.13616943359375,4.578523635864258,-16.90361785888672,-5.22667121887207,491.2440688610077
D4:22:CD:00:05:5D,-179.41189575195312,-72.38909912109375,-92.84597778320312,1.9321370124816895,-0.8967132568359375,-0.9035463333129883,491.24906158447266
D4:22:CD:00:05:6B,76.33062744140625,-77.69181823730469,-178.76727294921875,-3.9791698455810547,5.958550453186035,-3.4246511459350586,491.24906158447266
D4:22:CD:00:49:AA,141.67230224609375,-72.80054473876953,129.808837890625,0.669043779373169,0.10886125266551971,-4.373159408569336,491.24906158447266
D4:22:CD:00:05:6E,79.26920318603516,-20.736045837402344,9.462315559387207,11.347375869750977,-2.73026180267334,-5.409883499145508,491.24906158447266
D4:22:CD:00:05:5E,-176.38992309570312,-44.86077117919922,-90.21266174316406,8.010660171508789,4.202086448669434,20.510223388671875,491.24906158447266
D4:22:CD:00:05:5D,179.10447692871094,-70.5877914428711,-90.64739990234375,1.4589641094207764,-2.053774833679199,-0.991058349609375,491.27428793907166
D4:22:CD:00:05:6B,57.504024505615234,-77.41876983642578,-160.24896240234375,-0.8774760961532593,5.168209075927734,-2.0277934074401855,491.27428793907166
D4:22:CD:00:49:AA,134.01673889160156,-71.69536590576172,133.90773010253906,0.014047117903828621,-0.009403189644217491,-3.8033738136291504,491.27428793907166
D4:22:CD:00:05:6E,75.30794525146484,-30.881986618041992,6.177380561828613,14.703439712524414,-1.6215100288391113,1.4726228713989258,491.27428793907166
D4:22:CD:00:05:5E,-178.04515075683594,-43.8425178527832,-89.99149322509766,0.7600548267364502,-11.683279037475586,-7.513318061828613,491.27428793907166
D4:22:CD:00:05:5D,177.7355194091797,-68.33606719970703,-87.89490509033203,0.11949338018894196,0.09721226990222931,-0.4788827896118164,491.3044419288635
D4:22:CD:00:05:6B,34.38505172729492,-75.92023468017578,-137.8700714111328,-3.236374855041504,5.168485641479492,0.998173713684082,491.3044419288635
D4:22:CD:00:49:AA,127.8075942993164,-70.32791900634766,137.7496337890625,-4.2403564453125,-0.8544191122055054,-3.263327121734619,491.3044419288635
D4:22:CD:00:05:6E,67.92906188964844,-39.89216995239258,7.56998348236084,20.22021484375,-6.9196319580078125,-3.2039403915405273,491.3044419288635
D4:22:CD:00:05:5E,174.86802673339844,-43.34428405761719,-90.06072998046875,11.202926635742188,-9.833747863769531,5.845303535461426,491.3044419288635
D4:22:CD:00:05:5D,176.77069091796875,-65.9785385131836,-86.23990631103516,-2.697906970977783,-0.21638736128807068,0.37375831604003906,491.3347120285034
D4:22:CD:00:05:6B,4.538732051849365,-72.70165252685547,-112.15476989746094,-3.9176831245422363,5.5450639724731445,3.5988759994506836,491.3347120285034
D4:22:CD:00:49:AA,124.4201889038086,-69.4139175415039,140.09393310546875,-3.385768413543701,1.999183177947998,1.8275470733642578,491.3347120285034
D4:22:CD:00:05:6E,67.92366027832031,-47.369049072265625,13.603811264038086,19.785240173339844,-2.0486936569213867,-1.2744808197021484,491.3347120285034
D4:22:CD:00:05:5E,171.41127014160156,-43.82034683227539,-91.60076141357422,-4.015987396240234,-8.832792282104492,5.827183723449707,491.3347120285034
D4:22:CD:00:05:5D,175.98019409179688,-63.84272003173828,-85.97218322753906,-1.313810110092163,0.8588466644287109,1.077712059020996,491.3642327785492
D4:22:CD:00:05:6B,-45.28528594970703,-64.30397033691406,-82.00164794921875,-23.242107391357422,19.430923461914062,9.588550567626953,491.3642327785492
D4:22:CD:00:49:AA,122.35860443115234,-69.40352630615234,141.6817169189453,-0.03818181902170181,0.9607557058334351,5.972745895385742,491.3642327785492
D4:22:CD:00:05:6E,73.15129852294922,-51.72866439819336,17.672483444213867,12.519084930419922,3.646242618560791,4.319768905639648,491.3642327785492
D4:22:CD:00:05:5E,169.88528442382812,-43.630714416503906,-91.85639190673828,-8.761287689208984,-7.063179016113281,7.581624984741211,491.3642327785492
D4:22:CD:00:05:5D,175.99000549316406,-62.84437942504883,-86.6657943725586,-1.9316577911376953,0.832011342048645,1.9710073471069336,491.39443612098694
D4:22:CD:00:05:6B,-56.28533172607422,-50.90205383300781,-65.73700714111328,-15.427865982055664,11.35993766784668,20.97626495361328,491.39443612098694
D4:22:CD:00:49:AA,119.4975357055664,-69.66358947753906,142.66770935058594,-1.4639959335327148,2.4929075241088867,7.006010055541992,491.39443612098694
D4:22:CD:00:05:6E,79.08419036865234,-55.40422058105469,21.168060302734375,17.230255126953125,9.80838394165039,3.743328094482422,491.39443612098694
D4:22:CD:00:05:5E,172.67266845703125,-42.06721115112305,-92.24433135986328,-4.816139221191406,-15.166679382324219,11.307321548461914,491.39443612098694
D4:22:CD:00:05:5D,175.56759643554688,-63.447418212890625,-87.96568298339844,-0.7970033884048462,1.9829797744750977,1.7373733520507812,491.4245066642761
D4:22:CD:00:05:6B,-59.709136962890625,-33.001888275146484,-52.25008010864258,-3.196258068084717,2.479480743408203,25.51114273071289,491.4245066642761
D4:22:CD:00:49:AA,119.5632553100586,-70.05130767822266,141.08140563964844,-6.137441635131836,1.9412260055541992,7.988554000854492,491.4245066642761
D4:22:CD:00:05:6E,84.44918060302734,-60.318172454833984,24.48950958251953,10.737184524536133,10.295751571655273,6.816062927246094,491.4245066642761
D4:22:CD:00:05:5E,-177.3649139404297,-41.67530822753906,-93.32276153564453,1.3419404029846191,-15.811567306518555,5.267001152038574,491.4245066642761
D4:22:CD:00:05:5D,176.10096740722656,-65.170166015625,-88.93142700195312,2.564836025238037,1.5586678981781006,0.7629098892211914,491.48415637016296
D4:22:CD:00:05:6B,-53.72773742675781,-15.340188026428223,-42.25784683227539,11.529745101928711,-7.774628639221191,16.811771392822266,491.48415637016296
D4:22:CD:00:49:AA,123.3473129272461,-70.4294662475586,136.7562255859375,-4.806899070739746,-0.6986621618270874,4.573281288146973,491.48415637016296
D4:22:CD:00:05:6E,90.63915252685547,-66.04505157470703,26.32818031311035,8.28451919555664,6.315613746643066,7.413637161254883,491.48415637016296
D4:22:CD:00:05:5E,-174.21002197265625,-37.32438659667969,-96.3373031616211,-1.8229680061340332,-13.035890579223633,1.4682655334472656,491.48415637016296
D4:22:CD:00:05:5D,176.9969024658203,-67.54965209960938,-88.56629180908203,2.229309558868408,0.5942074060440063,0.20283126831054688,491.51529908180237
D4:22:CD:00:05:6B,-42.337432861328125,-0.9702123999595642,-35.79103469848633,10.679656982421875,-4.688770294189453,2.7625436782836914,491.51529908180237
D4:22:CD:00:49:AA,125.12004852294922,-71.00533294677734,135.41847229003906,-1.173473834991455,1.1197054386138916,3.229151725769043,491.51529908180237
D4:22:CD:00:05:6E,99.68533325195312,-71.46492004394531,27.812353134155273,2.5544204711914062,3.9431724548339844,4.313948631286621,491.51529908180237
D4:22:CD:00:05:5E,-170.241455078125,-36.93801498413086,-99.1163330078125,8.755655288696289,-13.353071212768555,-3.0037460327148438,491.51529908180237
