Timestamp,D4:22:CD:00:05:5D_EulerX,D4:22:CD:00:05:5D_EulerY,D4:22:CD:00:05:5D_EulerZ,D4:22:CD:00:05:5D_FreeAccX,D4:22:CD:00:05:5D_FreeAccY,D4:22:CD:00:05:5D_FreeAccZ,D4:22:CD:00:05:5E_EulerX,D4:22:CD:00:05:5E_EulerY,D4:22:CD:00:05:5E_EulerZ,D4:22:CD:00:05:5E_FreeAccX,D4:22:CD:00:05:5E_FreeAccY,D4:22:CD:00:05:5E_FreeAccZ,D4:22:CD:00:05:6B_EulerX,D4:22:CD:00:05:6B_EulerY,D4:22:CD:00:05:6B_EulerZ,D4:22:CD:00:05:6B_FreeAccX,D4:22:CD:00:05:6B_FreeAccY,D4:22:CD:00:05:6B_FreeAccZ,D4:22:CD:00:05:6E_EulerX,D4:22:CD:00:05:6E_EulerY,D4:22:CD:00:05:6E_EulerZ,D4:22:CD:00:05:6E_FreeAccX,D4:22:CD:00:05:6E_FreeAccY,D4:22:CD:00:05:6E_FreeAccZ,D4:22:CD:00:49:AA_EulerX,D4:22:CD:00:49:AA_EulerY,D4:22:CD:00:49:AA_EulerZ,D4:22:CD:00:49:AA_FreeAccX,D4:22:CD:00:49:AA_FreeAccY,D4:22:CD:00:49:AA_FreeAccZ
512.0220160484314,-176.68832397460938,-46.39131164550781,-51.7663459777832,-1.9720752239227293,-1.54286789894104,2.3301095962524414,-170.98582458496094,-41.44398498535156,-20.610258102416992,12.81523895263672,-3.5853476524353027,3.817955017089844,-89.53965759277344,-7.476423263549805,-149.58978271484375,14.391740798950195,-3.1681480407714844,28.701251983642575,75.3932876586914,-21.932126998901367,41.895240783691406,19.06880187988281,9.405399322509766,-7.9344072341918945,138.1015625,-72.44746398925781,139.57119750976562,0.206131249666214,0.3272828459739685,9.994745254516602
512.0270304679871,-175.58766174316406,-47.56142425537109,-53.46401596069336,-1.849083662033081,-1.305889129638672,1.342733383178711,-173.5582733154297,-43.50435256958008,-20.827781677246094,1.539334774017334,-2.4863839149475098,4.0973100662231445,-82.38479614257812,8.552820205688477,-146.71083068847656,1.3372416496276855,4.042860984802246,13.27012062072754,69.77987670898438,-20.31460189819336,42.1957893371582,12.378780364990234,4.802294731140137,-8.726907730102539,140.74269104003906,-73.74272155761719,136.71359252929688,-0.6919938325881958,0.8685257434844971,7.888660430908203
512.0945525169373,-169.78707885742188,-68.58820343017578,-76.86670684814453,-6.030895233154297,1.0205011367797852,0.5903244018554688,-124.37969970703124,-73.70480346679688,-70.57294464111328,-1.2854056358337402,-9.507207870483398,12.627609252929688,-83.84947204589844,-33.81410598754883,-92.91577911376952,0.7868944406509399,-3.0645813941955566,6.404487609863281,-24.578258514404297,-53.8995246887207,93.38935089111328,15.350456237792969,9.190059661865234,14.653600692749023,125.01881408691406,-74.89605712890625,162.9285430908203,-1.7244806289672852,0.4812667369842529,11.367809295654297
512.1244168281555,-173.4372100830078,-64.36253356933594,-72.98217010498047,-4.751731872558594,1.5344007015228271,0.7334070205688477,160.58132934570312,-81.21495056152344,6.8296074867248535,-4.568906784057617,-1.5824589729309082,9.750551223754885,-85.38468933105469,-25.019611358642575,-97.49686431884766,11.53427505493164,-5.968234062194824,19.026657104492188,-85.37144470214844,-48.12715148925781,148.7452850341797,-6.234146118164063,11.053361892700195,13.669374465942385,134.85037231445312,-75.7326431274414,154.53541564941406,0.9872459173202516,-1.7881391048431396,7.65153694152832
512.1839592456818,-173.8909912109375,-61.07447814941406,-73.3460693359375,-3.428286075592041,2.460302352905273,2.3305721282958984,139.93153381347656,-75.76971435546875,29.73887252807617,5.898082733154297,2.9248762130737305,2.377018928527832,-88.72305297851562,-17.94907569885254,-100.29093170166016,5.584665298461914,-1.971251964569092,9.260969161987305,-103.8345718383789,-51.22032165527344,165.73004150390625,-11.86163330078125,8.561935424804688,9.851932525634766,147.33226013183594,-74.43975830078125,141.69166564941406,-0.4747267365455627,-1.2231836318969729,11.893083572387695
512.2142779827118,-173.37506103515625,-59.71271896362305,-74.93179321289062,-1.145038604736328,3.015254020690918,2.7472028732299805,110.6211929321289,-78.1789321899414,62.97243881225586,3.431253433227539,5.674529075622559,0.2380027770996093,-100.28814697265624,-9.566266059875488,-97.0152816772461,22.635875701904297,2.0205135345458984,37.42266845703125,-108.90518951416016,-54.18253707885742,170.7262420654297,-11.695795059204102,9.94078254699707,7.138595581054688,152.28988647460938,-73.67182922363281,138.2989959716797,-3.0698394775390625,-1.1884572505950928,9.06720733642578
512.2446041107178,-172.41224670410156,-60.56211853027344,-76.3268814086914,-0.0924400985240936,3.1751766204833984,3.0640764236450195,61.71260452270508,-74.15365600585938,114.42305755615234,0.035390704870224,7.238422393798828,-0.2334699630737304,-88.4017562866211,-2.238563060760498,-91.7805633544922,4.536761283874512,-2.4943418502807617,26.31325912475586,-107.18265533447266,-55.36395263671875,174.9012908935547,-15.347679138183594,11.43731689453125,6.5948486328125,156.30296325683594,-74.47425079345703,137.3086700439453,-3.895623207092285,-2.8755478858947754,6.095190048217773
512.2744889259338,-169.99737548828125,-63.92876815795898,-77.82054138183594,-3.654594898223877,2.872023582458496,4.11556339263916,37.94439697265625,-65.0186538696289,134.2466583251953,-5.023872375488281,9.24180030822754,-0.3993606567382812,-72.3689956665039,3.884106159210205,-87.7602310180664,-3.2653493881225586,-3.896363258361816,8.16366958618164,-107.3865737915039,-57.94553756713867,-177.48739624023438,-15.236469268798828,13.341827392578123,0.3128700256347656,163.12237548828125,-75.31537628173828,135.08621215820312,-3.1327152252197266,0.4414512515068054,1.6288652420043943
512.3045070171356,-167.34661865234375,-69.4319839477539,-79.26127624511719,-7.775321960449219,-5.306077003479004,9.759466171264648,22.73188781738281,-56.43929672241211,143.63333129882812,-8.90715217590332,15.106327056884766,-3.5360870361328125,-57.80770111083984,10.135741233825684,-86.29025268554688,-7.485475540161133,-6.221554756164551,4.637275695800781,-114.4495849609375,-60.26301956176758,-166.33621215820312,-11.220840454101562,9.36631202697754,-4.712838172912598,170.34620666503906,-75.0096206665039,133.69500732421875,-1.2381916046142578,-0.5839484930038452,-5.234819412231445
512.3345015048981,-163.05404663085938,-75.51251983642578,-83.54006958007812,2.195730209350586,-10.725004196166992,5.906603813171387,13.897309303283691,-50.316505432128906,150.88815307617188,-13.881399154663086,10.091533660888672,-11.845752716064451,-38.820308685302734,17.152658462524414,-85.78533935546875,-11.85992431640625,-4.394233703613281,-4.847332954406738,-122.46968841552734,-61.04304885864258,-154.88739013671875,-7.794184684753418,4.220227241516113,-6.581668853759766,175.3092498779297,-73.34342956542969,133.41514587402344,0.8549932241439819,0.4029518365859985,-7.091429710388184
512.3644983768463,-159.2467041015625,-80.525146484375,-89.37367248535156,0.3951515555381775,-1.8185477256774905,-7.505912780761719,6.9045586585998535,-47.41728591918945,156.50531005859375,-12.02523422241211,0.6522057056427002,-15.686845779418944,-20.898412704467773,24.68147850036621,-84.67837524414062,-4.116954803466797,0.3917539119720459,-13.997318267822266,-129.4114532470703,-61.3627815246582,-144.33267211914062,-5.5745038986206055,0.5832239389419556,-10.420660018920898,175.05947875976562,-72.38351440429688,134.2521209716797,2.998457431793213,1.93515419960022,-7.647120475769043
512.423476934433,-167.8596649169922,-83.70337677001953,-76.11785888671875,-0.1955705881118774,5.515647888183594,-9.98359489440918,-1.460943579673767,-46.87158966064453,160.42044067382812,-7.850793838500977,-1.1813533306121826,-16.039554595947266,-14.19957160949707,33.42249298095703,-86.33702850341797,14.043270111083984,1.262065887451172,-12.411602020263672,-134.10992431640625,-61.97134017944336,-136.04437255859375,-3.9012985229492183,-0.2624908089637756,-10.344064712524414,175.9406280517578,-73.64179992675781,133.3435516357422,1.326167345046997,0.0749834030866622,-11.155000686645508
512.4286086559296,155.2478790283203,-84.46019744873047,-35.433258056640625,-0.7326542139053345,-5.009923934936523,-7.654109954833984,-9.816949844360352,-47.76688003540039,163.15504455566406,-8.526237487792969,-1.7691051959991455,-13.454769134521484,-19.71571350097656,43.18251800537109,-95.01466369628906,5.11400032043457,1.8187353610992432,-12.849992752075195,-136.2225341796875,-62.88255310058594,-129.98289489746094,-4.143960952758789,-0.5905293226242065,-9.813594818115234,178.38357543945312,-75.24806213378906,132.1932373046875,-1.5605268478393557,-1.230708122253418,-9.458858489990234
512.4838442802429,130.9777374267578,-82.77762603759766,-10.759454727172852,2.708308219909668,9.832109451293944,-10.817745208740234,-16.698171615600586,-50.75477981567383,165.0460968017578,-16.231361389160156,1.377821445465088,-11.48012924194336,-31.307790756225582,48.56266021728516,-114.96648406982422,-2.823092460632324,3.2040019035339355,-14.496366500854492,-136.958984375,-64.03668975830078,-125.21932220458984,-5.378493309020996,-1.601736068725586,-9.712907791137695,-178.4017333984375,-76.40828704833984,130.49314880371094,-0.9372756481170654,-2.373937129974365,-7.230010032653809
512.5138268470764,136.6831512451172,-79.96937561035156,-10.607656478881836,0.5387197732925415,10.16692352294922,-2.7539501190185547,-19.003890991210938,-57.04239273071289,167.35464477539062,-22.984622955322266,-0.9011690616607666,-17.213932037353516,-48.167327880859375,43.73222351074219,-142.40057373046875,-15.95180320739746,-5.555821418762207,-31.039775848388672,-137.65631103515625,-65.06844329833984,-121.8190460205078,-8.053258895874023,-3.954602718353272,-6.898069381713867,-175.0767822265625,-77.45849609375,129.0302276611328,0.7888525724411011,-2.035698890686035,-4.237326622009277
512.544041633606,141.15371704101562,-77.29525756835938,-14.613140106201172,3.8986659049987793,-1.1234488487243652,-2.166001319885254,-20.4000301361084,-65.12901306152344,169.54185485839844,-1.96761417388916,-13.549922943115234,6.710803985595703,-55.38916397094727,36.18611907958984,-158.90257263183594,-29.770023345947266,-2.4645071029663086,-23.178356170654297,-137.58436584472656,-66.25975799560547,-121.30372619628906,-7.965539932250977,-5.009622573852539,-2.747706890106201,-176.4651336669922,-76.36752319335938,130.14718627929688,1.9906702041625977,-0.4231738448143005,2.0396595001220703
512.5731620788574,142.8400115966797,-74.11817932128906,-15.6155424118042,2.0116043090820312,1.3069095611572266,2.382160186767578,-12.012712478637695,-69.21277618408203,165.79351806640625,-4.105114936828613,0.4633237719535827,4.013908386230469,-66.41070556640625,42.09886932373047,-151.98414611816406,8.292291641235352,19.068389892578125,-2.387162685394287,-136.61697387695312,-66.6961898803711,-121.72723388671876,-7.097017288208008,-5.4594316482543945,0.9000425338745117,-178.49929809570312,-75.4451675415039,132.258056640625,-3.658213138580322,0.0736960172653198,6.5267333984375
512.6040019989014,141.35467529296875,-72.67388153076172,-12.468896865844728,-1.2974205017089844,0.2829713821411133,8.689573287963867,-3.0537657737731934,-70.99797058105469,158.69703674316406,-0.3847585916519165,-0.9075955152511596,3.233731269836426,-61.06520462036133,51.52088928222656,-127.18807220458984,-26.251399993896484,-9.840570449829102,-9.294097900390623,-139.8441162109375,-64.47862243652344,-119.6516342163086,-12.077836990356444,-11.95378875732422,1.2130060195922852,179.43325805664062,-76.0655288696289,135.05870056152344,-3.3781309127807617,-0.5432177782058716,8.20406723022461
512.634293794632,135.53866577148438,-73.03791809082031,-6.019008636474609,-2.4404358863830566,-3.7813315391540527,10.556386947631836,2.6548187732696533,-72.26477813720703,152.55215454101562,-1.6643297672271729,14.281618118286133,13.388011932373049,-41.32026290893555,52.276798248291016,-97.14128875732422,-4.29334831237793,-2.2253317832946777,-23.74547576904297,-151.3885955810547,-61.18352508544922,-116.56370544433594,-13.899824142456056,-11.310270309448242,6.899265289306641,179.1137237548828,-75.23259735107422,135.48367309570312,-0.0636537969112396,1.509862184524536,6.180019378662109
512.664297580719,120.38155364990234,-75.4263916015625,7.099522590637207,0.8736691474914551,-0.0039184056222438,3.8546295166015625,8.78395938873291,-74.55610656738281,146.1214599609375,-3.264431953430176,1.2736217975616455,-3.879159450531006,-31.64667510986328,46.01412582397461,-76.66841888427734,-5.883031845092773,-4.899202346801758,-0.0586318969726562,-169.29641723632812,-59.03606414794922,-110.76876831054688,-4.700372695922852,-6.433134078979492,1.407536506652832,177.97869873046875,-73.96357727050781,133.59085083007812,3.537230968475342,1.963318347930908,-3.4540977478027344
512.6943323612213,98.62398529052734,-75.59429168701172,22.711557388305664,6.140169143676758,4.939066886901856,-1.72637939453125,18.970521926879883,-75.96795654296875,136.94322204589844,-4.839077949523926,1.1298065185546875,-0.6288623809814453,-27.65318489074707,38.25429534912109,-65.66999053955078,-2.636751651763916,2.0803122520446777,9.115509033203123,174.59593200683594,-57.14693832397461,-102.45764923095705,6.377202033996582,-7.322237968444824,-3.673795700073242,178.51438903808594,-71.61700439453125,129.58377075195312,9.56210708618164,-0.324775755405426,-1.3020429611206057
512.7243318557739,96.04261779785156,-73.298828125,18.548547744750977,-5.8619794845581055,17.38973617553711,-2.1549506187438965,28.609731674194336,-77.06654357910156,127.71764373779295,-4.368991851806641,0.603983998298645,-0.7720670700073242,-27.78411102294922,29.676708221435547,-56.2668571472168,-5.946686744689941,4.950587272644043,7.436748504638672,168.06259155273438,-56.91168975830078,-98.74496459960938,8.512992858886719,-7.678725242614746,-7.621461868286133,-178.95248413085938,-70.36177062988281,123.95811462402344,5.6664018630981445,2.4688663482666016,-1.047260284423828
512.7844824790955,110.02394104003906,-67.9129409790039,-7.647024154663086,11.196752548217772,32.03331756591797,8.45962905883789,36.27402877807617,-77.78778076171875,119.74615478515624,-5.758943557739258,0.5505626201629639,-0.5131797790527344,-25.909326553344727,18.85023307800293,-45.72248077392578,-2.220758438110352,-0.5253784656524658,0.8049964904785156,165.8295135498047,-58.75326919555664,-101.6357192993164,5.057798385620117,-2.168579578399658,-1.398167610168457,-175.3350830078125,-70.20672607421875,118.637939453125,1.7268388271331787,1.356497049331665,-1.8363142013549805
512.8144927024841,127.30028533935548,-56.31478118896485,-30.50913429260254,10.925857543945312,16.060962677001953,7.017892837524414,39.09981155395508,-77.83478546142578,115.90347290039062,-5.650177955627441,1.4344961643218994,-0.4063119888305664,-27.418184280395508,5.780342102050781,-35.7957649230957,10.42131805419922,10.010993957519531,-9.332382202148438,168.49232482910156,-60.60159683227539,-105.44361877441406,-0.0622671321034431,2.399708747863769,6.437158584594727,-174.10577392578125,-69.27020263671875,115.94673919677734,1.7831180095672607,4.685934066772461,4.995394706726074
512.8450560569763,138.72006225585938,-43.65945816040039,-45.4725227355957,7.735523223876953,4.537590026855469,-3.247011661529541,37.821754455566406,-77.14441680908203,115.11486053466795,-5.215968132019043,2.3767104148864746,-0.3767929077148437,-42.71017074584961,-8.09594440460205,-27.08940696716309,2.811347007751465,-11.859769821166992,-3.68374252319336,168.9306640625,-61.72679138183594,-107.4638900756836,-1.1046617031097412,2.928549766540528,6.370800018310547,-171.3016357421875,-69.39252471923828,111.91747283935548,1.2896003723144531,3.8922929763793945,5.517281532287598
512.8740613460541,148.38307189941406,-32.28240966796875,-56.41352844238281,3.2745237350463867,-3.610487937927246,-9.063203811645508,35.05535125732422,-76.67906951904297,114.77911376953124,-2.213308334350586,0.8186066150665283,1.144108772277832,-51.22665023803711,-20.540502548217773,-19.723390579223636,-1.5524213314056396,-8.747154235839844,9.413408279418944,167.25845336914062,-62.06717300415039,-107.78784942626952,-0.1761925816535949,-0.288873016834259,3.294230461120605,-168.3295440673828,-70.13329315185547,108.66478729248048,2.320467948913574,4.919407844543457,1.374921798706055
512.9049410820007,158.44149780273438,-24.349853515625,-64.45477294921875,-2.04504919052124,-3.818103790283203,-13.87718391418457,34.53395080566406,-74.1666488647461,116.59007263183594,-1.2983074188232422,0.823522686958313,-0.3450851440429687,-48.6483039855957,-30.09396743774414,-14.835124969482422,-1.577298879623413,-2.5502419471740723,5.28964900970459,166.3821258544922,-62.460227966308594,-106.50263214111328,-0.9547252655029296,-1.912144899368286,0.8891544342041016,-167.58004760742188,-70.6005859375,107.01939392089844,3.150264263153076,3.137685775756836,0.0725669860839843
512.9344010353088,167.66845703125,-22.283618927001957,-71.81195068359375,-1.803293228149414,-5.698092460632324,-9.133710861206056,34.37181091308594,-73.52812957763672,117.1946029663086,-3.665394306182861,0.803219199180603,-1.6852807998657229,-44.45668411254883,-36.95309448242188,-13.005449295043944,1.224233865737915,0.8012430667877197,0.5041332244873047,166.99232482910156,-63.01453399658203,-103.17215728759766,-1.3918735980987549,-2.2756919860839844,-2.675502300262451,-167.40443420410156,-71.57145690917969,106.01783752441406,1.5817275047302246,1.4282712936401367,-1.7945632934570312
512.9645237922668,170.8811798095703,-26.80086898803711,-79.67703247070312,-5.251901626586914,-16.427894592285156,-7.029723167419434,35.60192108154297,-73.99055480957031,115.95909881591795,-1.288313388824463,-0.933794379234314,1.033426284790039,-42.11715698242188,-42.93951416015625,-13.59702205657959,2.522716999053955,1.3583240509033203,-0.5845365524291992,168.38900756835938,-63.34402084350586,-98.32903289794922,-2.710641860961914,-2.0826897621154785,-5.067777633666992,-167.44204711914062,-72.37165069580078,104.57431030273438,2.9283833503723145,0.6679238080978394,-6.269623756408691
512.9940659999847,169.45729064941406,-35.62479782104492,-85.9210433959961,-5.311988830566406,-19.355976104736328,1.4723396301269531,38.73794937133789,-76.39055633544922,113.9030303955078,-2.08654260635376,-0.4379090070724487,0.2807674407958984,-40.01705932617188,-49.7542724609375,-17.34015464782715,4.5960845947265625,-0.3791800737380981,1.1414976119995115,169.96168518066406,-63.35693740844727,-92.43539428710938,-3.6313867568969727,-2.226694107055664,-5.3292646408081055,-166.86175537109375,-72.23052215576172,101.59677124023438,3.2618603706359863,-2.839787483215332,-7.644064903259277
513.0531904697418,171.074951171875,-40.29808044433594,-91.39352416992188,-13.437288284301758,-8.354700088500977,8.326244354248047,41.90481185913086,-80.07353973388672,110.8521728515625,-5.334257125854492,-0.8053170442581177,-7.473588943481445,-33.24784469604492,-58.14519500732422,-27.542848587036133,7.125219345092773,-1.447554349899292,11.966302871704102,169.85093688964844,-64.89920043945312,-87.0337142944336,-4.476222991943359,-8.136695861816406,-3.2707266807556152,-166.15554809570312,-70.63449096679688,99.12674713134766,-1.814659833908081,-3.648411273956299,-6.364267349243164
513.0838537216187,175.067626953125,-41.83183288574219,-94.80651092529295,-13.586544036865234,-6.166939735412598,-3.283411026000977,48.34067153930664,-83.30104064941406,101.86504364013672,-8.4090576171875,1.8058698177337649,-8.333833694458008,-21.6693172454834,-63.84813690185547,-44.24070358276367,10.22712516784668,-2.928009510040283,15.206008911132812,166.20066833496094,-67.95018005371094,-83.26367950439453,-2.9370017051696777,-4.0452070236206055,-4.398117065429688,-166.20108032226562,-68.39562225341797,96.5224151611328,0.2948862314224243,1.8886268138885496,-2.651707649230957
513.1141605377197,179.74794006347656,-42.67093276977539,-94.92343139648438,-3.435311317443848,-4.55661678314209,-3.3731932640075684,57.55023193359375,-85.88682556152344,88.51194763183594,-6.51761531829834,-0.6590081453323364,-5.635197639465332,-26.682775497436523,-63.76321029663086,-45.72896957397461,6.279616355895996,3.478443145751953,2.9439430236816406,156.5100555419922,-69.48783111572266,-73.440185546875,-9.077869415283203,-5.906526565551758,-1.727590560913086,-168.1138916015625,-67.7900390625,95.4680633544922,1.801607847213745,2.712077617645264,-2.589357852935791
513.1441776752472,-176.1962127685547,-42.54709243774414,-93.4557647705078,5.818573951721191,-3.113020896911621,-0.3225059509277344,104.69524383544922,-88.49285888671875,40.582496643066406,0.2516282796859741,-6.0463409423828125,-0.0655298233032226,-33.185543060302734,-57.579471588134766,-38.66295623779297,7.67034912109375,-10.12216567993164,4.00468635559082,136.61192321777344,-67.41944885253906,-49.3486442565918,-12.236766815185549,-12.291131973266602,2.9198713302612305,-170.86720275878906,-67.06942749023438,96.09461975097656,-1.938964605331421,1.4382975101470947,0.2887868881225586
513.1742744445801,-174.5386199951172,-41.09798049926758,-91.20904541015624,11.378955841064451,-7.393524169921875,3.448627471923828,179.1103057861328,-87.43570709228516,-35.40138626098633,-4.928561210632324,2.4129385948181152,0.6044597625732422,-37.32437515258789,-48.96356964111328,-34.6437873840332,12.415063858032228,-16.0904541015625,0.1947336196899414,117.45694732666016,-58.049312591552734,-23.172590255737305,-16.77643585205078,-14.469400405883787,15.150300979614258,-172.85687255859375,-66.99826049804688,97.17658233642578,-2.427431583404541,3.3289623260498047,6.683820724487305
513.2041440010071,-178.06805419921875,-37.49665451049805,-89.17259979248047,3.493260383605957,-16.580387115478516,8.935407638549805,-169.2661590576172,-86.28374481201172,-48.75895690917969,-4.932183265686035,1.4517607688903809,-0.8896369934082031,-46.47132110595703,-40.0976791381836,-35.94076156616211,7.82908821105957,-14.572805404663086,-2.920694351196289,111.39588165283205,-41.0428581237793,-5.600827217102051,-5.687607765197754,-13.107511520385742,16.064453125,-173.47422790527344,-67.12997436523438,98.05927276611328,5.474234580993652,4.564905166625977,8.613298416137695
513.2337675094604,175.7393035888672,-30.292436599731445,-86.88157653808594,-3.055464744567871,-21.87628173828125,19.42258071899414,-170.04098510742188,-84.89653778076172,-50.50234603881836,-2.46858024597168,1.9514052867889404,0.0899896621704101,-58.03794097900391,-33.63507080078125,-42.04722595214844,-2.811227798461914,-15.887422561645508,0.2448759078979492,115.87772369384766,-18.88936996459961,4.530663013458252,-1.6150133609771729,-8.865432739257812,14.958730697631836,-173.55653381347656,-67.68903350830078,97.52371215820312,2.2485971450805664,1.348496913909912,1.4064569473266602
513.2641053199768,171.6761932373047,-23.180309295654297,-83.99170684814453,2.980041027069092,-21.078372955322266,1.1368341445922852,-176.37149047851562,-84.5623550415039,-45.49700546264648,-4.674995422363281,1.9073898792266848,0.1234941482543945,-64.38633728027344,-33.907135009765625,-51.282005310058594,-8.764791488647461,-7.60590934753418,5.838920593261719,124.20308685302734,3.315706729888916,8.478118896484375,3.046199321746826,-0.7945272922515869,1.424790382385254,-175.51609802246094,-67.93236541748047,98.16690826416016,0.8301539421081543,2.8355183601379395,3.855496406555176
513.2947125434875,172.00082397460938,-17.241323471069336,-82.083251953125,-2.2943406105041504,-8.353151321411133,6.170651435852051,174.58323669433594,-85.7880630493164,-37.41827392578125,-5.373570442199707,2.4712634086608887,0.4787282943725586,-65.14010620117188,-39.34543228149414,-62.30546951293945,-8.565635681152344,0.280069351196289,6.343505859375,132.77133178710938,20.848567962646484,6.935230255126953,6.66094970703125,-2.874627590179444,11.627965927124023,-177.11453247070312,-69.78565216064453,98.93253326416016,1.92669677734375,2.441166400909424,7.169216156005859
513.3237097263336,173.3214874267578,-14.396903038024902,-81.37242126464844,-6.718084335327148,-1.2551958560943604,4.259739875793457,130.7689666748047,-88.48767852783203,5.23784065246582,-5.80033016204834,3.292813777923584,1.3302373886108398,-63.2513427734375,-46.29741287231445,-74.9258804321289,-7.2718095779418945,2.3068909645080566,6.911245346069336,129.44947814941406,33.08023452758789,3.557184219360352,9.206209182739258,-0.0341138839721679,8.071592330932617,179.70294189453125,-71.09788513183594,101.00257110595705,3.491915225982666,6.002975463867188,6.422435760498047
513.3843114376068,171.15074157714844,-15.169899940490724,-81.82736206054688,-4.317988395690918,4.25902271270752,-2.5973262786865234,24.267690658569336,-81.19658660888672,116.8281478881836,-0.0387548804283142,5.0190839767456055,-0.1400899887084961,-56.31769180297852,-52.35927581787109,-90.34427642822266,-9.878580093383787,7.30638313293457,8.693014144897461,118.01397705078124,41.607704162597656,0.2486734241247177,1.7956385612487793,3.603895664215088,-1.881680965423584,175.88250732421875,-72.20701599121094,103.7478256225586,2.279882431030273,2.155201911926269,6.468765258789063
513.4145243167877,167.9195098876953,-19.83892250061035,-82.57748413085938,-2.5097622871398926,4.681866645812988,-11.73908233642578,18.60186004638672,-76.48445892333984,123.22146606445312,-6.478411674499512,6.8685503005981445,-1.443129539489746,-47.56968688964844,-56.98120880126953,-107.38255310058594,-7.47364330291748,8.794574737548828,2.2841053009033203,107.83302307128906,47.85787582397461,-2.3224284648895264,-2.790469169616699,-1.3010740280151367,-4.634336471557617,171.9586181640625,-73.4271011352539,106.53215026855467,-0.0086007788777351,1.5192368030548096,3.096865653991699
513.4446303844452,164.5329132080078,-29.13800430297852,-82.64067840576172,-2.0115108489990234,-3.316048145294189,-21.85333251953125,1.7589315176010132,-80.5676040649414,133.7935791015625,-12.478815078735352,14.022104263305664,-5.003322601318359,-41.389869689941406,-60.658111572265625,-124.06597900390624,-2.699808120727539,7.834359169006348,-1.983633518218994,99.09642791748048,51.68917465209961,-3.636617183685303,-0.6888426542282104,-1.9187729358673096,-1.0737218856811523,168.44137573242188,-74.55821990966797,108.93372344970705,2.5939674377441406,0.907595992088318,-6.125699996948242
513.4737038612366,162.0237274169922,-42.26482009887695,-82.03509521484375,-2.587073802947998,-7.261031150817871,-17.275066375732422,-97.92570495605467,-84.10089874267578,-137.79443359375,7.208819389343262,-12.717845916748049,-6.423571586608887,-39.06947708129883,-63.25000381469727,-138.53445434570312,1.185973882675171,6.546229362487793,-7.04570198059082,86.58374786376953,52.50430679321289,-4.628372669219971,-3.018751621246338,0.3078305125236511,-3.1516776084899902,165.78749084472656,-75.07382202148438,110.204345703125,2.1924614906311035,-1.409630298614502,-13.33914566040039
513.5045745372772,159.9593963623047,-58.02460861206055,-81.3043212890625,-0.647480845451355,-6.404146194458008,-7.695524215698242,-115.126953125,-81.52898406982422,-130.53335571289062,-6.146370887756348,-12.184720993041992,-9.703004837036133,-41.32040023803711,-64.93696594238281,-148.41485595703125,3.316432476043701,3.49759292602539,-11.138587951660156,73.35086059570312,48.45870590209961,-2.8947830200195312,-3.5253963470458984,-0.3243870735168457,-8.737558364868164,161.4093017578125,-75.77437591552734,113.3898696899414,-1.9874005317687988,-0.3449070453643799,-9.291324615478516
513.5357263088226,160.2649383544922,-75.85865020751953,-79.37416076660156,1.406299114227295,-0.3374558091163635,10.641180038452148,-118.04998779296876,-81.14447784423828,-130.22366333007812,-2.525282859802246,-2.2546658515930176,-4.310108184814453,-50.36013412475586,-66.82577514648438,-152.2345428466797,2.4684386253356934,5.827259063720703,-9.78657341003418,62.2738151550293,39.90750503540039,5.2829270362854,0.5209592580795288,2.9738264083862305,-13.159757614135742,155.6954345703125,-77.50873565673828,118.9172134399414,0.6466889381408691,4.293440818786621,-5.588436126708984
513.5642051696777,0.7895712852478027,-87.27501678466797,83.67216491699219,1.4204533100128174,23.69541931152344,14.168699264526367,-122.78740692138672,-79.65711975097656,-125.57872772216795,0.2260356247425079,1.2965524196624756,0.2808427810668945,-55.64789962768555,-68.7631607055664,-153.02340698242188,10.704627990722656,11.518106460571287,-3.2315454483032227,45.53101348876953,29.482606887817383,17.941923141479492,9.228046417236328,15.012388229370115,-17.07421112060547,140.81036376953125,-80.11288452148438,132.37107849121094,1.810204267501831,0.0598029568791389,-4.541215896606445
513.5939137935638,-2.155022144317627,-78.8219223022461,88.66580963134766,-9.72152328491211,27.377140045166016,-9.578907012939451,-133.19923400878906,-75.86397552490234,-119.53845977783205,-7.277796745300293,-0.7577214241027832,0.356663703918457,-47.82793045043945,-70.33625030517578,-154.85211181640625,5.281525611877441,5.116765022277832,-3.926187038421631,23.679155349731445,25.87112808227539,30.8330078125,23.18450164794922,0.1909689605236053,-16.82744598388672,136.23104858398438,-80.3919906616211,135.4642791748047,-0.6449567079544067,-2.881465435028076,-2.1135311126708984
513.6239247322083,5.882137298583984,-80.21636199951172,77.8758773803711,9.736671447753906,23.307178497314453,-7.790261268615723,-134.4287567138672,-73.54761505126953,-120.31379699707033,-3.5166239738464355,0.0277734957635402,3.041625022888184,-44.67036056518555,-70.37589263916016,-153.75404357910156,1.689119815826416,5.484622001647949,-2.9284205436706543,31.938777923583984,29.867403030395508,35.469093322753906,-1.7051622867584229,-18.838546752929688,-12.917545318603516,137.0027313232422,-81.55255126953125,135.8605194091797,2.695662498474121,0.8957659006118774,2.5929317474365234
513.6845512390137,85.82543182373047,-84.57523345947266,2.62943959236145,8.830745697021484,4.721804618835449,10.256000518798828,-129.32850646972656,-72.64591979980469,-124.96674346923828,-3.3468780517578125,0.4889283180236816,3.2573442459106445,-48.69010162353516,-68.75774383544922,-149.26356506347656,2.3362059593200684,6.150835037231445,0.1974411010742187,62.51071166992188,37.08027648925781,31.29085922241211,-11.08111572265625,-3.1758995056152344,-14.672780990600586,136.42071533203125,-81.84298706054688,137.21817016601562,7.398269653320312,2.996337890625,1.1682615280151367
513.743611574173,138.08868408203125,-79.01423645019531,-44.59051132202149,3.707883834838867,-12.969058990478516,6.609283447265625,-120.3655014038086,-72.7558822631836,-132.82699584960938,-4.443375587463379,-3.2827610969543457,3.73439884185791,-54.00937271118164,-66.43802642822266,-144.36924743652344,-0.0696591138839721,3.7770895957946777,2.7673254013061523,85.4581527709961,47.29143142700195,22.905855178833008,-0.8460084199905396,17.415054321289062,3.8348541259765625,144.3989715576172,-81.15875244140625,128.6127471923828,3.3202266693115234,2.0467495918273926,2.5366220474243164
513.749608039856,147.51263427734375,-76.05487060546875,-53.96656036376953,13.743911743164062,-13.65830421447754,-2.644605159759521,-109.71063995361328,-71.53501892089844,-141.04702758789062,-4.466948509216309,-1.602206468582153,-1.3335962295532229,-60.51610565185547,-65.02617645263672,-138.54019165039062,-1.3013420104980469,3.559287071228028,4.246777534484863,81.46910095214844,56.64803314208984,7.12063455581665,14.786779403686523,7.604409217834473,-1.1048297882080078,151.49461364746094,-80.07512664794922,121.9282455444336,-0.2450171411037445,-1.6641747951507568,2.899985313415528
513.7738404273987,159.8562774658203,-74.83039093017578,-63.21810150146485,-3.034319400787353,3.980593204498291,5.289520263671875,-106.55014038085938,-68.0346908569336,-140.78530883789062,-7.958390235900879,-5.370718955993652,-0.6738262176513672,-64.31069946289062,-65.339111328125,-131.61343383789062,-1.3041136264801023,0.6172126531600952,6.305908203125,52.2470703125,59.60331344604492,-18.136812210083008,3.636184692382813,9.742876052856444,-10.914852142333984,157.97865295410156,-79.00760650634766,117.52772521972656,-0.0209708772599697,-1.3487727642059326,-0.9479446411132812
513.804437160492,166.23939514160156,-72.87572479248047,-66.92947387695312,-0.5745185613632202,-7.124055862426758,5.467155456542969,-101.9423370361328,-64.57266235351562,-136.10044860839844,-20.1524658203125,3.5635366439819336,-2.142549991607666,-65.09960174560547,-66.252685546875,-123.8089828491211,-4.373414039611816,-2.634196281433105,5.115602493286133,23.16352081298828,53.49352264404297,-42.77869415283203,-3.784714698791504,-5.410634994506836,-11.037019729614258,165.02142333984375,-77.1740493774414,112.7466049194336,-2.351297378540039,-1.3818504810333252,-2.8026037216186523
513.8341462612152,173.00527954101562,-70.66536712646484,-69.8904800415039,-6.026610374450684,-0.0733533650636673,0.6036710739135742,-99.77566528320312,-62.08697891235352,-125.071533203125,-21.230262756347656,7.460867881774902,-2.260045528411865,-67.84687805175781,-66.3345718383789,-113.6904754638672,-7.194332122802734,-5.97177791595459,1.0412836074829102,15.32280731201172,44.27338409423828,-59.55655288696289,-8.558616638183594,-11.530973434448242,-2.596612930297852,169.9745330810547,-74.10918426513672,111.3263168334961,-6.019369125366211,-0.2763236761093139,-2.273965835571289
513.8646128177643,177.43016052246094,-68.7193832397461,-73.29721069335938,0.5993077754974365,-0.8224726915359497,-0.3908376693725586,-105.33273315429688,-59.71140670776367,-109.27955627441406,-18.98136138916016,1.007197618484497,-7.45628547668457,-72.20297241210938,-65.04822540283203,-102.22311401367188,-6.022646903991699,-6.864007949829102,-1.049102783203125,24.341272354125977,36.86384582519531,-73.14038848876953,-10.63835906982422,-4.519906997680664,-2.262321949005127,172.43093872070312,-71.7162094116211,113.93622589111328,-2.1707396507263184,-0.1043832302093505,-2.9594764709472656
513.8939831256866,-178.88128662109375,-66.56490325927734,-76.30501556396484,1.617905616760254,-1.218266487121582,-0.608189582824707,-120.7721710205078,-57.18367767333984,-91.61320495605467,-10.731836318969728,-2.533543109893799,-10.691082000732422,-75.88256072998047,-62.3854866027832,-93.03453826904295,-4.937238693237305,-7.390842437744141,-2.062926769256592,40.14801025390625,32.13948440551758,-84.16919708251953,-8.388404846191406,-8.524703979492188,1.3092098236083984,171.32386779785156,-70.0440444946289,116.0219268798828,3.8657522201538086,2.512150287628174,4.033017158508301
513.9240889549255,-176.0475616455078,-64.57255554199219,-77.690673828125,-0.1434720754623413,0.4443350434303283,1.4084014892578125,-136.58290100097656,-54.96020126342773,-74.91944122314453,-2.410656452178955,-1.3279576301574707,-9.52061653137207,-77.10453796386719,-60.27268981933594,-88.37684631347656,-5.337736129760742,-4.769055366516113,-0.0848331451416015,57.1982421875,31.08971405029297,-90.18668365478516,-7.978240013122559,0.0557262450456619,-2.860464096069336,169.86370849609375,-68.95044708251953,117.33978271484376,-1.7692480087280271,2.135214805603028,7.548482894897461
513.9846394062042,-174.68527221679688,-63.439849853515625,-77.85991668701172,0.0573315173387527,0.2624761462211609,1.3264122009277344,-151.01551818847656,-53.65780258178711,-61.47808074951172,-0.2352807223796844,-0.6631394624710083,-9.436208724975586,-74.64704895019531,-59.64360809326172,-87.6150894165039,-5.952960968017578,-2.5844802856445312,1.9928102493286133,71.1308822631836,30.3326416015625,-92.06642150878906,5.772919654846191,2.8413853645324707,3.255796432495117,167.04998779296875,-68.8542251586914,120.884033203125,-7.775473594665527,1.9282331466674805,4.350305557250977
514.0140573978424,-173.60702514648438,-63.2044677734375,-77.94684600830078,-1.245133399963379,-0.1497364640235901,1.0484962463378906,-167.0191650390625,-53.73966598510742,-49.4611701965332,-0.8009926080703735,-1.034329175949097,-4.909440040588379,-70.28275299072266,-59.94105911254883,-88.5435562133789,-3.2607169151306152,-2.467824935913086,1.286907196044922,77.90972137451172,26.84620475769043,-92.52039337158205,1.196418523788452,5.484371185302734,0.930588722229004,164.60250854492188,-69.28079223632812,124.1090850830078,-4.533337593078613,0.394180953502655,0.1106319427490234
514.0450484752655,-172.09861755371094,-63.57206344604492,-79.07109069824219,-2.00339412689209,-1.1383483409881592,0.6056690216064453,178.3455810546875,-56.19935989379883,-37.04070663452149,5.864863395690918,-1.0946176052093506,-2.5432071685791016,-66.36186218261719,-60.40777969360352,-90.51335144042967,-0.266973078250885,-1.0569374561309814,1.3281230926513672,83.78243255615234,18.395158767700195,-91.2866668701172,2.475381374359131,0.7317063808441162,-3.850749492645264,162.7915496826172,-69.24002838134766,126.57633209228516,0.3139082789421081,0.5639916658401489,-1.2323064804077148
514.074296951294,-169.90225219726562,-64.06532287597656,-81.73760223388672,-0.901110291481018,-1.930835723876953,-0.1037063598632812,167.600830078125,-60.7711296081543,-24.419118881225582,6.07293701171875,8.88491439819336,5.445217132568359,-61.88630294799805,-59.85423278808594,-94.5365982055664,0.9374316930770874,3.0970921516418457,0.5408382415771484,87.39098358154297,3.987162590026856,-91.4504852294922,1.6422343254089355,-9.991853713989258,-3.1772584915161133,159.59136962890625,-68.92032623291016,129.11476135253906,1.419945240020752,1.1217153072357178,-2.432235717773437
514.1038205623627,-168.4667205810547,-63.99738311767578,-84.2229232788086,0.5958681106567383,-2.213598728179932,-0.7218894958496094,167.10153198242188,-63.82938766479492,-16.8739013671875,10.287176132202148,10.577730178833008,4.5010986328125,-60.01511001586914,-57.75424957275391,-98.63615417480467,0.8360389471054077,2.358405590057373,-4.398500442504883,84.43281555175781,-15.464062690734863,-91.04601287841795,-3.71370792388916,-26.500900268554688,10.81216049194336,154.4710235595703,-69.1588363647461,132.58302307128906,1.5037195682525637,-0.5921547412872314,-5.679439544677734
514.1338133811951,-169.82054138183594,-62.65155792236328,-83.88488006591797,0.237911194562912,-2.798182487487793,0.112736701965332,166.32833862304688,-64.94010925292969,-14.535205841064451,8.265195846557617,0.5868167877197266,0.5458335876464844,-60.827274322509766,-54.85588455200195,-101.44202423095705,0.6183266639709473,2.6812658309936523,-6.086566925048828,70.31603240966797,-34.13652801513672,-85.21158599853516,-0.1069142967462539,-33.84259796142578,20.687545776367188,149.2467041015625,-69.29100036621094,135.43104553222656,1.2550973892211914,-1.4028687477111816,-9.106689453125
514.1645591259003,-174.2137451171875,-59.64054489135742,-79.50588989257812,3.7861499786376953,-7.996719360351562,-0.2163019180297851,162.572998046875,-65.13796997070312,-16.156396865844727,11.04788589477539,16.345874786376953,7.964822769165039,-59.05728530883789,-51.8159065246582,-104.2496337890625,0.1602377891540527,2.7534780502319336,-5.964789390563965,65.63742065429688,-37.73455429077149,-84.47433471679688,-6.53577995300293,5.239538192749023,-4.251580238342285,145.5773162841797,-68.7019271850586,137.62448120117188,-0.0839761644601821,-0.4951707124710083,-5.7391462326049805
514.194128036499,-177.95724487304688,-55.550594329833984,-73.3795166015625,-1.0316298007965088,-2.2676305770874023,-4.466533660888672,163.09068298339844,-63.00929641723633,-23.70221900939941,-2.348548412322998,-5.099504470825195,8.752298355102539,-54.35467147827149,-48.74531173706055,-107.50447082519533,-0.9111183881759644,0.3183870315551758,-6.820508003234863,68.31696319580078,-30.49337387084961,-89.90742492675781,-6.623766899108887,-16.006004333496094,-9.798599243164062,141.59043884277344,-68.1677017211914,140.8896942138672,-5.993166923522949,0.6781060695648193,4.826346397399902
514.224189043045,-178.6834259033203,-51.13854217529297,-68.51192474365234,1.203958511352539,5.359466552734375,-5.130352020263672,165.1360626220703,-60.40839385986328,-29.128293991088867,-2.5476274490356445,-11.874471664428713,9.675975799560549,-52.3563117980957,-45.42631912231445,-110.5442123413086,-0.6912108659744263,-0.1259425580501556,-1.3526477813720703,80.77847290039062,-19.14388084411621,-92.23973083496094,4.150465965270996,-20.355228424072266,-2.004161834716797,136.9206085205078,-69.4478988647461,147.29635620117188,-4.264769554138184,0.8633632659912109,3.56619644165039
514.2836966514587,-177.9325408935547,-47.53287124633789,-68.01748657226562,5.391568183898926,3.3729143142700195,3.072713851928711,171.82656860351562,-58.46187973022461,-30.759641647338867,3.1600184440612797,-9.98854637145996,11.24530029296875,-53.70589065551758,-40.964637756347656,-113.1234359741211,-1.142353057861328,5.994209289550781,11.301107406616213,91.9566650390625,-6.508463382720947,-90.11223602294922,1.984452486038208,-24.10799789428711,5.78196907043457,137.95626831054688,-70.0264663696289,148.02716064453125,1.1930561065673828,1.6519980430603027,4.799033164978027
514.3140654563904,-179.19830322265625,-45.17860794067383,-68.45799255371094,-3.4135313034057617,-4.222084999084473,4.049400329589844,-179.24615478515625,-55.30112075805664,-31.809228897094727,2.084095001220703,-1.0595355033874512,15.210620880126951,-56.25704956054688,-35.96756362915039,-113.86834716796876,-1.3099491596221924,4.562893867492676,8.07223892211914,97.07813262939452,2.918588161468506,-85.06128692626953,2.2313146591186523,-23.858932495117188,-0.0153980255126953,141.18650817871094,-70.62046813964844,145.4091796875,-2.988876819610596,-0.1323826909065246,13.662525177001951
514.3441624641418,-179.23939514160156,-44.206031799316406,-67.08244323730469,0.0253186263144016,2.214871406555176,0.9136590957641602,-176.7699737548828,-52.27790069580078,-30.24103546142578,7.080224990844727,-4.264901161193848,3.3884286880493164,-62.9669189453125,-29.26742935180664,-109.79036712646484,1.848332405090332,13.738494873046877,24.00463104248047,98.50338745117188,6.675800800323486,-79.9083251953125,0.7294666767120361,-13.722129821777344,-4.711855888366699,142.18162536621094,-71.30416107177734,145.24371337890625,-3.739277839660645,-0.5630080699920654,5.123889923095703
514.3744206428528,-178.8059539794922,-44.98324203491211,-65.84435272216797,-0.6034919023513794,-0.4823554754257202,2.330979347229004,-174.1231689453125,-53.58391571044922,-27.56434631347656,7.449069976806641,2.6440062522888184,1.381246566772461,-63.28246307373047,-18.599327087402344,-103.58380889892578,5.585885047912598,7.131991386413574,22.998310089111328,100.3457260131836,3.7831180095672607,-76.05089569091797,3.314171314239502,-5.188880920410156,-4.540656089782715,143.7379608154297,-72.17095947265625,146.4259490966797,-2.676037311553955,-0.8054646253585815,8.552263259887695
