Timestamp,D4:22:CD:00:05:5D_EulerX,D4:22:CD:00:05:5D_EulerY,D4:22:CD:00:05:5D_EulerZ,D4:22:CD:00:05:5D_FreeAccX,D4:22:CD:00:05:5D_FreeAccY,D4:22:CD:00:05:5D_FreeAccZ,D4:22:CD:00:05:5E_EulerX,D4:22:CD:00:05:5E_EulerY,D4:22:CD:00:05:5E_EulerZ,D4:22:CD:00:05:5E_FreeAccX,D4:22:CD:00:05:5E_FreeAccY,D4:22:CD:00:05:5E_FreeAccZ,D4:22:CD:00:05:6B_EulerX,D4:22:CD:00:05:6B_EulerY,D4:22:CD:00:05:6B_EulerZ,D4:22:CD:00:05:6B_FreeAccX,D4:22:CD:00:05:6B_FreeAccY,D4:22:CD:00:05:6B_FreeAccZ,D4:22:CD:00:05:6E_EulerX,D4:22:CD:00:05:6E_EulerY,D4:22:CD:00:05:6E_EulerZ,D4:22:CD:00:05:6E_FreeAccX,D4:22:CD:00:05:6E_FreeAccY,D4:22:CD:00:05:6E_FreeAccZ,D4:22:CD:00:49:AA_EulerX,D4:22:CD:00:49:AA_EulerY,D4:22:CD:00:49:AA_EulerZ,D4:22:CD:00:49:AA_FreeAccX,D4:22:CD:00:49:AA_FreeAccY,D4:22:CD:00:49:AA_FreeAccZ
1435.2805471420288,170.8651885986328,-74.12098693847656,-126.95948791503906,1.067060470581055,2.7842798233032227,0.4546880722045898,-149.50328063964844,-51.34505844116211,-77.26567077636719,9.687896728515623,8.683391571044922,-9.224956512451172,20.143604278564453,11.769560813903809,-33.055198669433594,-0.1809933185577392,-5.714041709899902,-2.197021961212158,160.11138916015625,-67.15463256835938,45.85088348388672,1.5926363468170166,-8.3931884765625,-8.937662124633789,170.9815673828125,-77.6306381225586,127.81734466552734,0.2475541532039642,0.9071332216262816,-10.851337432861328
1435.2915618419647,165.74331665039062,-73.20040893554688,-116.44213104248048,12.053716659545898,4.49249267578125,-1.7833356857299805,-135.91567993164062,-55.32565689086914,-91.60240173339844,4.408566474914551,6.981839179992676,-10.671346664428713,32.32200241088867,16.72477912902832,-37.64952087402344,-0.7612316608428955,-4.437191963195801,-5.706043243408203,170.72560119628906,-67.82225799560547,39.55027389526367,5.743082046508789,-7.924221992492676,-6.058304786682129,175.456787109375,-78.93460845947266,124.80374145507812,3.4192609786987305,1.7946805953979492,-9.641868591308594
1435.3476679325104,-174.10191345214844,-75.83403778076172,-104.64585876464844,2.380518913269043,7.31337833404541,-4.494844436645508,-57.022247314453125,-88.41119384765625,-144.88922119140625,-3.469161033630371,4.195452690124512,18.699508666992188,-98.2243881225586,-46.86964797973633,-93.4609375,6.756755828857422,-0.1435756683349609,-1.401681900024414,-0.99800044298172,-74.83763885498047,110.47168731689452,16.089073181152344,2.48553466796875,3.7060022354125977,119.34149169921876,-82.93109130859375,170.6831512451172,0.1691671013832092,-0.4464903473854065,2.012816429138184
1435.3771107196808,-178.29258728027344,-69.66044616699219,-97.90818786621094,4.836342811584473,4.487364768981934,1.3948888778686523,-154.3678741455078,-82.46988677978516,-48.06829071044922,-1.882749319076538,3.230689525604248,20.05895233154297,-91.98536682128906,-44.22071075439453,-107.83836364746094,6.194127082824707,-0.3307433128356933,5.779796600341797,-34.3701171875,-64.91516876220703,153.6527099609375,-2.952217102050781,7.740540504455566,7.263010025024414,130.59088134765625,-82.6589126586914,160.0989227294922,1.1926772594451904,-4.037535667419434,8.558008193969727
1435.40713429451,-178.34814453125,-65.0459976196289,-96.6021728515625,-2.87380313873291,4.260819435119629,0.6457357406616211,-154.71539306640625,-72.29414367675781,-50.1521110534668,1.3283138275146484,-4.057745933532715,12.28961944580078,-86.11170196533203,-37.49885940551758,-120.47058868408205,10.193429946899414,1.6350758075714111,11.857261657714844,-38.21374130249024,-65.11402130126953,166.89051818847656,-12.339582443237305,5.720949172973633,8.788108825683594,148.11805725097656,-80.33847045898438,142.90928649902344,2.6567821502685547,-3.050995349884033,10.524168014526367
1435.4667868614197,-177.09190368652344,-62.14264678955078,-96.8283462524414,-1.4582090377807615,4.023628234863281,0.6840801239013672,-163.7702178955078,-70.45143127441406,-45.22918701171875,-2.55123233795166,-4.908449172973633,7.654949188232422,-82.91729736328125,-26.545595169067383,-127.91912078857422,21.181758880615234,2.8461647033691406,19.423904418945312,-43.99184799194336,-72.02445983886719,177.1706085205078,-9.401309967041016,2.8411402702331543,13.022281646728516,159.4883270263672,-78.1751480102539,132.1946258544922,1.7373285293579102,-2.334014892578125,9.200742721557615
1435.4968566894531,-174.81854248046875,-60.99555587768555,-98.95276641845705,-3.0526843070983887,4.238032341003418,2.377890586853028,-172.55233764648438,-73.30321502685547,-38.11520004272461,2.2750115394592285,4.0780181884765625,4.217929840087891,-76.47171020507812,-9.795315742492676,-129.71815490722656,18.87952041625977,-2.290919303894043,22.71976852416992,-54.13881301879883,-76.27310943603516,-168.17428588867188,-10.000043869018556,-0.6496126651763916,9.16584587097168,169.03150939941406,-75.55138397216797,123.5690689086914,0.6862008571624756,0.0521422177553176,8.618392944335938
1435.5274496078491,-172.96786499023438,-61.54412460327149,-100.9541244506836,-2.1517105102539062,3.4733028411865234,3.103837013244629,-175.5484619140625,-78.82012176513672,-35.37677383422852,-0.1336758732795715,1.1342687606811523,-2.497598648071289,-62.46476364135742,8.867789268493652,-126.23941040039062,4.855417251586914,-5.660261154174805,17.27478790283203,-72.62744903564453,-75.38819122314453,-144.19091796875,-16.822982788085938,-6.32359504699707,1.5230426788330078,174.19403076171875,-73.48078155517578,118.8778305053711,-2.9238572120666504,-1.918907880783081,8.40113639831543
1435.5568554401398,-171.2763671875,-63.689300537109375,-103.10254669189452,-0.7784173488616943,2.328302383422852,2.9745407104492188,165.93910217285156,-86.54554748535156,-18.213014602661133,3.857823371887207,1.7274439334869385,-6.812609672546387,-42.71797943115234,22.79448127746582,-118.078125,-0.3737494349479675,1.0186355113983154,8.19240951538086,-87.22867584228516,-69.94305419921875,-125.51373291015624,-8.902515411376953,-13.619184494018556,-1.6348485946655271,178.09523010253906,-72.79476165771484,116.22584533691406,-4.52849006652832,0.73729407787323,2.138430595397949
1435.5868470668793,-169.31265258789062,-67.0181884765625,-105.3778076171875,-4.08355712890625,0.6196573972702026,5.033105850219727,18.200218200683597,-82.7213134765625,128.2952423095703,5.879216194152832,3.006463050842285,-6.065324783325195,-21.40155792236328,30.2161808013916,-108.31082916259766,-8.724977493286133,4.171445846557617,6.671930313110352,-89.04913330078125,-63.3863410949707,-118.08346557617188,-5.328923225402832,-11.433286666870115,-3.3698840141296387,-174.3931427001953,-71.85602569580078,111.1421890258789,0.1287664771080017,-0.4789093732833862,-2.892190933227539
1435.616928577423,-167.38125610351562,-72.47728729248047,-112.3642578125,-7.148985862731934,-7.711987495422363,1.9317588806152344,8.874938011169434,-70.7633285522461,135.7002410888672,1.559598684310913,5.592907905578613,-3.360073566436768,0.5041945576667786,34.6603889465332,-101.83673095703124,-15.419355392456056,1.2077250480651855,-1.5704708099365234,-89.80062866210938,-58.34270477294922,-114.7052993774414,-3.4121479988098145,-10.71514892578125,-7.487235069274902,-165.76991271972656,-70.12191772460938,105.0291976928711,1.464148998260498,2.0320262908935547,-7.022051811218262
1435.6470715999603,-175.05197143554688,-75.18513488769531,-105.15937042236328,2.1091275215148926,-0.0781064331531524,-4.690735816955566,4.01511812210083,-58.30375289916992,137.55776977539062,-7.536608695983887,7.321494102478027,-3.071619987487793,20.646774291992188,39.531837463378906,-98.86267852783205,-6.293312072753906,-0.1100358963012695,-6.259163856506348,-86.79695129394531,-56.85222625732422,-113.96085357666016,-2.2192749977111816,-6.85871696472168,-8.35624885559082,-160.31765747070312,-68.5858154296875,100.72757720947266,1.565483808517456,3.785165786743164,-10.05324935913086
1435.6771531105042,174.42471313476562,-76.27581024169922,-93.2519989013672,1.9209914207458496,4.85622501373291,-10.586536407470703,-1.4118708372116089,-47.36931228637695,137.956298828125,-13.991260528564451,11.531375885009766,-4.978421211242676,36.08864212036133,45.17893600463867,-98.82252502441406,-8.064935684204102,-3.53116226196289,-6.242727279663086,-77.24137878417969,-58.065467834472656,-115.55699157714844,0.3313388228416443,-1.0873050689697266,-7.194191932678223,-157.68540954589844,-68.71580505371094,99.47610473632812,-0.9659279584884644,2.2750539779663086,-7.735585212707519
1435.7071642875671,163.370361328125,-79.37299346923828,-81.71634674072266,7.622040748596191,4.850564956665039,-17.163475036621094,-8.172090530395508,-39.134803771972656,139.8961944580078,-16.65520477294922,11.254484176635742,-9.643861770629885,47.862586975097656,53.1661262512207,-104.37679290771484,-4.051165580749512,-3.3931798934936523,-9.795255661010742,-59.74440383911133,-59.46697616577149,-120.26139831542967,-1.3317956924438477,-0.2072550356388092,-7.489975929260254,-154.90016174316406,-70.9712905883789,98.70346069335938,-4.092129707336426,-1.0718727111816406,-7.130452156066895
1435.7671031951904,164.17311096191406,-80.02149200439453,-76.00379180908203,-0.0312256515026092,-3.4878268241882324,6.418474197387695,-13.317606925964355,-35.16264343261719,141.49176025390625,-14.619050979614258,11.308464050292969,-18.581478118896484,44.975093841552734,60.73529815673828,-119.47626495361328,1.85150408744812,-6.423277854919434,-11.432744979858398,-37.99711608886719,-59.21926498413086,-126.87071228027344,-2.8185243606567383,-1.957675218582153,-7.451423645019531,-148.98171997070312,-72.24406433105469,96.15876007080078,-0.3461554050445556,-3.641737461090088,-2.012063503265381
1435.7971057891846,165.51710510253906,-79.7037124633789,-75.75904846191406,-0.1345208287239074,-2.8262319564819336,3.12686824798584,-14.45582389831543,-37.29381561279297,143.95875549316406,-16.08694076538086,4.353236198425293,-22.02548217773437,17.08623695373535,62.15525436401367,-147.48602294921875,-0.1078317165374755,-5.842365264892578,-18.842647552490234,-18.87084579467773,-57.34430313110352,-131.26113891601562,-5.352961540222168,-6.548087120056152,-6.669919013977051,-149.44564819335938,-72.83967590332031,97.48780822753906,4.1480817794799805,3.567441463470459,2.584490776062012
1435.8269138336182,164.11671447753906,-78.03273010253906,-73.2882308959961,0.6654717922210693,-2.969285011291504,3.392056465148926,-25.34354782104492,-45.869754791259766,150.59693908691406,-15.667823791503906,6.981801986694336,-18.50874328613281,-16.485013961791992,56.07339096069336,-172.62466430664062,-14.60883331298828,1.7354354858398438,-26.91377258300781,-8.545649528503418,-55.39716339111328,-131.1850128173828,-0.6941310167312622,-11.92165184020996,-5.509189605712891,-155.167724609375,-74.25645446777344,100.9502410888672,0.2742677927017212,-1.6699354648590088,3.880122184753418
1435.856992006302,160.31155395507812,-75.45186614990234,-67.71574401855469,1.1587731838226318,-1.9825797080993648,2.922625541687012,-36.899681091308594,-52.72692489624024,157.99949645996094,-0.0794054269790649,-2.820415496826172,3.0451231002807617,-42.57373428344727,49.79598236083984,173.75048828125,0.929402232170105,4.334994316101074,-18.50255584716797,-9.73128890991211,-54.519718170166016,-127.1817855834961,3.2630538940429688,-10.492630004882812,-3.0503334999084477,-160.0731964111328,-75.08413696289062,103.84941864013672,-4.507070541381836,-2.38288688659668,2.793978691101074
1435.8869128227234,155.32330322265625,-72.7693862915039,-61.953102111816406,-0.4704867005348205,0.9342403411865234,1.2001056671142578,-36.39605712890625,-56.07910919189453,160.27365112304688,-2.90999174118042,-12.520563125610352,4.528143882751465,-58.11552047729492,48.728065490722656,172.46815490722656,4.563104629516602,4.593453407287598,-7.745749473571777,-19.88359832763672,-55.41427612304688,-120.38340759277344,6.285508155822754,-7.855317115783691,-1.4630889892578125,-161.01315307617188,-76.07223510742188,103.83995056152344,-3.467855453491211,-0.4756011366844177,1.0030593872070312
1435.91672205925,150.52780151367188,-71.14240264892578,-57.411865234375,0.5206246376037598,4.341590881347656,-0.0049152374267578,-35.18956756591797,-59.47568893432617,159.03392028808594,-6.764025688171387,3.706590175628662,3.065631866455078,-54.148414611816406,52.41693115234375,179.08364868164062,-10.536495208740234,8.353523254394531,-1.6104421615600586,-34.399593353271484,-57.67765426635742,-113.78041076660156,6.793509483337402,-8.060190200805664,-2.696720600128174,-160.6910400390625,-77.32998657226562,102.85218048095705,-1.335925817489624,0.1734228134155273,0.3317794799804687
1435.947021484375,144.46311950683594,-71.21310424804688,-52.57030487060547,-0.1748921871185302,2.040055274963379,1.4112071990966797,-41.629390716552734,-63.04000854492188,162.5516815185547,-8.718133926391602,-1.967968463897705,2.180363655090332,-38.979000091552734,57.28483581542969,-164.074462890625,-4.69708251953125,1.6665315628051758,-20.18955993652344,-50.23003005981445,-60.9668083190918,-109.69982147216795,3.2797999382019043,-7.902525901794434,-0.1191444396972656,-162.4425811767578,-77.8789291381836,103.40988159179688,0.7293910980224609,-1.0595335960388184,-0.9165830612182616
1435.9772086143494,137.50599670410156,-71.61439514160156,-46.60947036743164,0.1438401937484741,-0.735598087310791,2.6353139877319336,-49.6347885131836,-66.306884765625,166.90162658691406,-0.0671326965093612,10.14950942993164,3.309486389160156,-24.84463119506836,58.17849349975586,-137.2186279296875,-10.819517135620115,3.4183144569396973,-12.18112564086914,-59.34659194946289,-64.61736297607422,-109.23639678955078,0.6071978807449341,-0.8312250375747681,6.269683837890625,-163.50601196289062,-77.25548553466797,103.26329040527344,1.4704787731170654,-1.8760836124420168,0.5630941390991211
1436.0074181556702,129.95321655273438,-71.48979187011719,-40.62784194946289,1.401458978652954,-1.2298481464385986,3.191375732421875,-50.6778678894043,-68.53496551513672,167.65603637695312,-6.793540000915527,2.2102222442626958,-1.5191354751586914,-13.792686462402344,52.55812454223633,-119.63643646240234,-9.548332214355469,6.759574890136719,-2.9599757194519043,-58.156028747558594,-68.32726287841797,-112.00809478759766,-0.1347030103206634,-2.5967888832092285,4.904996871948242,-162.03887939453125,-75.87397766113281,100.22240447998048,3.93975830078125,0.9018971920013428,1.807332992553711
1436.0669386386871,121.21013641357422,-70.87945556640625,-35.08064270019531,5.755452156066895,-1.2688562870025637,3.476612091064453,-50.46871948242188,-70.60369873046875,166.4434356689453,-5.44342041015625,2.672898292541504,-0.6654300689697266,-4.146185398101807,44.7065544128418,-110.08860778808594,-1.1173312664031982,6.555383682250977,-0.1635780334472656,-52.72597885131836,-72.96656036376953,-118.1493911743164,-0.8953144550323486,-7.7475385665893555,3.16828727722168,-162.17453002929688,-74.65782165527344,97.11734008789062,7.754188537597656,4.2465410232543945,-0.0689668655395507
1436.097172498703,110.3085708618164,-71.31654357910156,-32.034908294677734,11.645929336547852,7.805753707885742,-2.155384063720703,-48.03143310546875,-71.99896240234375,163.53553771972656,-5.563962936401367,2.1072874069213867,-1.5261049270629885,-2.3750619888305664,36.17729187011719,-103.3219223022461,9.673500061035156,7.602984428405762,1.2206077575683594,-50.082496643066406,-77.0354232788086,-126.42213439941406,-1.940092086791992,-2.8311681747436523,0.7403182983398438,-165.1956329345703,-74.07389831542969,96.08109283447266,5.5997467041015625,1.4970455169677734,1.5889654159545898
1436.127718925476,115.92052459716795,-69.59662628173828,-49.1017951965332,16.521224975585938,22.33612060546875,2.588407516479492,-44.73561477661133,-72.54811096191406,160.10018920898438,-5.877814292907715,1.802358865737915,-1.5703067779541016,-13.88145923614502,27.773582458496094,-97.59329986572266,10.89111328125,8.050283432006836,-2.646578311920166,-49.01026153564453,-79.147216796875,-134.0579833984375,-3.09578275680542,2.874384880065918,-0.8570461273193359,-165.9293212890625,-74.48541259765625,95.91253662109376,-2.4281082153320312,1.4763514995574951,3.388047218322754
1436.1570601463318,135.0380859375,-62.45271682739258,-72.61510467529297,15.331657409667969,10.82975959777832,4.529196739196777,-41.99612045288086,-72.85555267333984,156.84371948242188,-4.243082046508789,1.262453317642212,-1.172933578491211,-31.2105770111084,18.7208194732666,-92.5579605102539,-3.224641799926758,-0.8812350034713745,3.0559005737304688,-39.28810119628906,-79.88703155517578,-143.51361083984375,-4.956088066101074,1.3283910751342771,-1.1560630798339844,-164.5449981689453,-75.3855972290039,94.8971710205078,1.4392108917236328,2.10620641708374,-0.0971031188964843
1436.1870608329773,148.57968139648438,-52.88248443603516,-91.31082916259766,4.162115097045898,1.3654289245605469,0.6426877975463867,-39.0908317565918,-73.27574157714844,154.26651000976562,-4.108005523681641,0.4097769856452942,-1.9189453125,-47.30404281616211,9.32326316833496,-86.92855834960938,-0.964411735534668,-1.9170279502868648,-1.313859939575195,-20.94224166870117,-79.47463989257812,-156.72703552246094,-7.879929542541504,-4.784542083740234,-2.9774961471557617,-160.8709259033203,-76.27333068847656,91.74761199951172,4.644806861877441,3.3941149711608887,-0.740870475769043
1436.2170658111572,154.90760803222656,-42.65469741821289,-103.87106323242188,-1.315389633178711,-2.58634614944458,-5.3079986572265625,-40.87837219238281,-74.37395477294922,157.1529998779297,-4.556442260742188,-1.256317377090454,-2.5283217430114746,-68.92718505859375,-0.5119379758834839,-80.28490447998047,-4.950860023498535,-10.45914077758789,-1.9211926460266116,-2.503108501434326,-78.64250183105469,-171.48416137695312,-5.4983625411987305,-4.091304779052734,-4.141901016235352,-157.655517578125,-77.69573211669922,88.27850341796875,2.395545482635498,1.71622896194458,-3.653737545013428
1436.2472043037417,159.17872619628906,-33.776004791259766,-112.59750366210938,-3.3274660110473637,-3.1093478202819824,-7.162386894226074,-51.61049270629883,-76.2394027709961,169.35861206054688,-6.532498359680176,-2.2348971366882324,-2.8462376594543457,-87.06143188476562,-11.316140174865724,-73.4974365234375,0.5323176383972168,-11.716035842895508,8.693527221679688,23.137453079223636,-77.37494659423828,169.5253143310547,-2.6439414024353027,-2.346952438354492,-4.260331153869629,-154.9183807373047,-79.04571533203125,85.35030364990234,0.3645493984222412,-0.1714394092559814,-6.324173927307129
1436.277335882187,161.2720947265625,-28.119638442993164,-119.0334930419922,-5.0559492111206055,-2.299826145172119,-10.140575408935549,-69.65709686279297,-77.37731170654297,-171.21253967285156,-2.9129672050476074,2.330507278442383,-0.6252965927124023,-96.4567413330078,-23.585832595825195,-68.22796630859375,6.625507354736328,-5.739994049072266,14.011529922485352,48.80704498291016,-74.48388671875,151.525146484375,-1.3781557083129885,-6.968465805053711,-3.692803382873535,-151.7506866455078,-79.73463439941406,83.00637817382812,-0.8001495599746704,0.1406483650207519,-6.940853118896484
1436.3073115348816,161.03497314453125,-26.598424911499023,-123.48953247070312,-11.263578414916992,-2.950701236724853,-13.760093688964844,-93.21742248535156,-76.34803771972656,-147.26454162597656,-4.069026947021484,3.863039016723633,-4.980999946594238,-92.80787658691406,-37.18963623046875,-66.16541290283203,5.357019424438477,0.0950589179992675,11.493940353393556,62.45924758911133,-70.12261962890625,139.38925170898438,1.432826280593872,-3.483153820037842,-2.7288718223571777,-148.7838897705078,-79.79938507080078,80.87125396728516,2.3388638496398926,1.5209450721740725,-5.574283599853516
1436.3674285411837,159.58982849121094,-29.058801651000977,-124.96681213378906,-13.198553085327148,-6.736166000366211,-12.281654357910156,-110.17513275146484,-73.94869232177734,-131.23069763183594,-4.966701507568359,4.646541595458984,-4.8701019287109375,-80.18207550048828,-50.31263732910156,-69.18572998046875,3.866485595703125,-7.163724899291992,4.524954795837402,72.27010345458984,-63.731178283691406,131.8506622314453,1.2424914836883545,-3.2360525131225586,-1.9887733459472656,-145.79762268066406,-79.54503631591797,77.14835357666016,5.7442169189453125,1.1989922523498535,-1.9232983589172363
1436.3967142105105,160.30966186523438,-31.661998748779297,-124.85896301269533,-7.546027183532715,-1.8731391429901123,12.37901496887207,-119.11847686767578,-71.235107421875,-124.19989013671876,-8.768255233764648,-0.4303549528121948,6.670402526855469,-65.08271789550781,-58.58450698852539,-78.24293518066406,5.004978179931641,-5.912596702575684,7.515583038330078,79.87039184570312,-54.94598007202149,126.89827728271484,0.3448702096939087,-10.025646209716797,4.02027702331543,-144.5388641357422,-79.92166900634766,73.8484878540039,0.0866074711084365,-0.8986990451812744,0.3381862640380859
1436.4274806976318,163.91033935546875,-32.062774658203125,-122.59844207763672,-10.432043075561523,-11.028600692749023,5.284951210021973,-123.83450317382812,-69.53621673583984,-120.14669036865234,-3.810457706451416,4.549201011657715,0.3713150024414062,-51.01202774047852,-59.01710891723633,-86.92080688476562,3.691290855407715,-9.257404327392578,5.012331962585449,82.4760971069336,-44.14860153198242,122.69241333007812,-0.3303539156913757,-12.789443969726562,11.27169418334961,-146.75152587890625,-79.19438171386719,74.74557495117188,-3.4723830223083496,-1.4339919090270996,6.414800643920898
1436.4569573402405,166.02267456054688,-30.31869125366211,-120.36522674560548,-17.883407592773438,-8.949451446533203,15.216800689697266,-125.8215560913086,-70.0144271850586,-118.51499938964844,-5.867789268493652,4.483962059020996,-0.1982364654541015,-44.91727828979492,-53.459590911865234,-87.68199920654297,0.4241590499877929,-20.41465377807617,9.723381042480469,83.49617004394531,-31.263559341430664,117.64297485351562,7.739945411682129,-13.37298583984375,20.198627471923828,-148.92794799804688,-77.75194549560547,76.0284652709961,6.997076988220215,-3.112743377685547,10.654813766479492
1436.4872069358826,164.24850463867188,-25.207426071166992,-118.19976043701172,-14.314735412597656,-12.43268585205078,11.52155876159668,-123.1382827758789,-71.43728637695312,-122.10075378417967,-7.192298889160156,3.865088939666748,-0.2623291015625,-46.58810043334961,-44.584381103515625,-84.99659729003906,-1.026646614074707,-21.629817962646484,3.4046125411987305,76.7904281616211,-18.11347770690918,109.92768096923828,7.195356369018555,-12.558996200561523,30.191150665283203,-151.5217742919922,-77.45332336425781,77.45572662353516,6.567009925842285,3.038994789123535,7.300931930541992
1436.516207933426,164.94979858398438,-18.586891174316406,-116.6084213256836,-9.716482162475586,-12.258228302001951,3.090780258178711,-114.47058868408205,-73.04166412353516,-132.90911865234375,-6.720439910888672,4.033917427062988,0.5176506042480469,-54.82548522949219,-36.68853759765625,-84.40917205810547,-7.788029670715332,-16.613567352294922,-5.414619445800781,57.873573303222656,-7.068894386291504,101.25457763671876,-2.823691368103028,-0.7348766326904297,17.667301177978516,-158.53257751464844,-76.8396987915039,82.20632934570312,1.521846055984497,2.260303497314453,9.953496932983398
1436.5467183589935,168.65391540527344,-14.093430519104004,-116.96477508544922,-5.204986572265625,-4.965753555297852,7.344905853271484,-98.1231918334961,-74.30957794189453,-152.81890869140625,-5.153860092163086,4.979358673095703,3.1754093170166016,-63.12946701049805,-34.47712326049805,-87.02153778076172,-10.453119277954102,-3.341757297515869,-2.658487319946289,39.4478874206543,-0.2333181947469711,94.95436096191406,-4.543332099914551,-2.482740879058838,6.6134185791015625,-164.857666015625,-76.45866394042969,86.490966796875,4.204645156860352,2.1298317909240723,7.209787368774414
1436.576723575592,167.7548370361328,-13.080310821533203,-118.6829833984375,-7.246106147766113,0.0257951840758323,1.140850067138672,-63.12229537963867,-73.06246948242188,171.9870147705078,-3.33235502243042,1.604367971420288,6.3046722412109375,-65.89266967773438,-37.78041076660156,-91.23334503173828,-7.928640365600586,-0.4387919902801513,1.4238176345825195,25.955326080322266,4.163777828216553,92.89996337890624,-10.675321578979492,-2.509690284729004,2.904682159423828,-172.1259002685547,-75.98009490966797,91.33197784423828,5.545934677124023,2.351654529571533,2.339153289794922
1436.6070368289948,165.90118408203125,-15.863725662231444,-119.5249481201172,-4.600249290466309,1.8529157638549805,-7.376893043518066,-63.27885437011719,-72.27459716796875,167.99026489257812,-3.361267566680908,15.49997329711914,-8.746236801147461,-69.87704467773438,-43.82865905761719,-94.29253387451172,-3.048213481903076,-2.984053134918213,0.7371006011962891,14.93622875213623,10.052865982055664,93.87419128417967,-9.937410354614258,-0.2922568917274475,-6.494875907897949,-179.16317749023438,-74.57498168945312,95.23684692382812,0.9066320657730104,0.6536823511123657,-4.704306602478027
1436.666555404663,164.8961639404297,-21.9754638671875,-119.28911590576172,-5.623229026794434,-0.6193420886993408,-19.466915130615234,-71.7941665649414,-73.2560043334961,177.92825317382812,0.3734445571899414,7.184535026550293,-8.629938125610352,-77.04869842529297,-50.182464599609375,-95.42146301269533,-0.8399507999420166,2.5295562744140625,5.794040679931641,5.996327877044678,16.81103515625,97.1770248413086,-3.325446605682373,0.0099152848124504,-11.50726318359375,178.43309020996094,-72.06438446044922,95.15567779541016,-3.3040757179260254,-0.4285205602645874,-7.37890625
1436.6975493431091,164.4480743408203,-31.786399841308597,-118.50636291503906,-7.324981689453125,-3.335452079772949,-20.953346252441406,-71.72307586669922,-73.80602264404297,-178.939453125,2.297337055206299,-10.989755630493164,-8.51883316040039,-78.20441436767578,-54.76324844360352,-95.52276611328124,2.1807641983032227,4.176794052124023,-0.594264030456543,-1.107061505317688,22.687997817993164,102.84156036376952,-1.2571351528167725,-0.9410394430160522,-10.375446319580078,-178.26498413085938,-71.04879760742188,91.75808715820312,-2.521091938018799,0.9744449853897096,-7.45402717590332
1436.72722864151,161.9940185546875,-46.20056915283203,-117.46675872802734,-6.564730644226074,-2.556583404541016,-11.946674346923828,-69.5329818725586,-73.3975830078125,175.71421813964844,-8.706493377685547,0.42595374584198,-5.522092819213867,-79.7131118774414,-56.225074768066406,-95.11817932128906,2.8305234909057617,1.451655387878418,-5.926396369934082,-8.36258316040039,27.449752807617188,111.16165161132812,-6.692254066467285,-0.5205516815185547,-12.721506118774414,-174.3443603515625,-72.64867401123047,87.15435028076172,2.022798538208008,2.707892894744873,-9.33262062072754
1436.7573018074036,158.32081604003906,-64.3887710571289,-115.9248275756836,-4.945032119750977,-5.665783882141113,1.7794294357299805,-75.79859924316406,-73.06312561035156,177.94297790527344,-5.647856712341309,-1.6511178016662598,-6.942314147949219,-83.4293441772461,-55.35744094848633,-95.18563842773438,2.817114353179932,1.7015724182128906,-5.171277046203613,-14.877041816711426,31.718822479248047,121.4059829711914,-9.878328323364258,4.693199157714844,-12.872987747192385,-174.57098388671875,-74.02864074707031,84.40487670898438,2.3373303413391118,1.8052067756652832,-10.58030891418457
1436.7873384952543,141.065673828125,-83.20713806152344,-97.39984893798828,7.680510520935059,5.827872276306152,24.285213470458984,-83.27520751953125,-72.00057220458984,-176.31504821777344,-2.967216968536377,1.4948570728302002,-2.368249893188477,-81.09501647949219,-54.28921890258789,-97.99403381347656,6.544299125671387,4.505008697509766,-1.6882286071777344,-16.166017532348633,36.90193176269531,131.7711944580078,-14.499706268310549,5.202917098999023,-16.14700698852539,-177.04608154296875,-73.59308624267578,84.50338745117188,-2.927907943725586,-2.0742993354797363,-4.205965995788574
1436.8168966770172,31.15102195739746,-82.11766052246094,23.168407440185547,21.77037048339844,22.507476806640625,3.0946054458618164,-91.02507781982422,-70.12168884277344,-171.6717987060547,-9.542110443115234,-1.353611946105957,2.546245574951172,-76.11444091796875,-53.20322799682617,-102.46273040771484,3.006232738494873,0.4426379203796386,-6.809055328369141,-9.75917625427246,43.58800506591797,139.6029052734375,-3.375516891479492,7.833270072937012,-15.599769592285156,-173.53224182128906,-73.5923843383789,82.69449615478516,-0.4082902073860168,-4.050256729125977,1.931844711303711
1436.8464732170105,37.94822311401367,-80.80268859863281,17.178678512573242,23.17247772216797,30.16019058227539,-13.777379989624023,-89.77503204345703,-68.54798126220703,-173.50732421875,-6.427616119384766,-0.0701902210712432,6.380939483642578,-73.67974090576172,-53.18532943725586,-105.81024932861328,5.251119613647461,5.879011154174805,-1.7930183410644531,1.5861268043518066,47.52649688720703,140.57443237304688,2.1755213737487797,-7.569352149963379,-7.343647956848144,-169.82455444335938,-73.11045837402344,82.38387298583984,10.20660400390625,-0.0727518945932388,3.956319808959961
1436.8769693374634,90.58379364013672,-82.49614715576172,-35.334014892578125,10.73007583618164,-11.539665222167969,2.3218297958374023,-76.09595489501953,-67.20957946777344,176.9459686279297,-5.076676368713379,2.227175235748291,2.8412866592407227,-71.74225616455078,-53.729103088378906,-108.0511245727539,3.035223960876465,-1.0195348262786863,-5.427579879760742,4.193301200866699,48.93632888793945,133.34132385253906,2.94157075881958,-8.842731475830078,-7.391369819641113,-171.0128631591797,-73.09274291992188,83.07562255859375,6.134576797485352,3.062807083129883,4.057073593139648
1436.907167673111,127.86346435546876,-79.5516128540039,-69.56240844726562,-1.3022785186767578,-13.965105056762695,5.80211067199707,-70.7925796508789,-64.26448059082031,175.0564727783203,-7.840864181518555,-2.251692295074463,-0.0699377059936523,-74.32840728759766,-53.96170425415039,-107.53245544433594,4.410466194152832,6.088248252868652,6.292816162109375,-0.1802660971879959,48.37295913696289,122.9921875,0.0222878083586692,-1.7480032444000244,-6.852000236511231,-170.30882263183594,-72.5390396118164,82.79777526855469,-2.246545791625977,-1.4351530075073242,4.913601875305176
1436.9673790931702,146.92935180664062,-77.99324035644531,-87.17494201660156,3.677391529083252,1.3246221542358398,2.452777862548828,-67.14766693115234,-61.558555603027344,177.30963134765625,-11.56158447265625,-0.2612727880477905,-1.4971857070922852,-69.42760467529297,-54.397438049316406,-106.37405395507812,2.713298797607422,1.79909348487854,12.190717697143556,-6.794856071472168,45.358516693115234,106.7513427734375,-1.5835411548614502,3.558372974395752,-11.033130645751951,-167.63487243652344,-71.9680404663086,84.27301025390625,-3.1684584617614746,-1.4098589420318604,3.736065864562988
1436.996527671814,158.76795959472656,-76.12491607666016,-95.97406005859376,-4.722246170043945,-0.6263731718063354,3.6549110412597656,-63.60592651367188,-60.68056869506836,-175.79920959472656,-25.664241790771484,13.169916152954102,-10.66008186340332,-61.20527648925781,-54.9692611694336,-104.78951263427734,-3.202169418334961,-6.303195953369141,3.503819465637207,-11.930220603942873,36.86742401123047,87.48554229736328,-6.867678642272949,3.308920860290528,-19.65359878540039,-166.1372833251953,-71.8617172241211,87.30343627929688,-3.7815022468566895,-0.2909260392189026,0.307072639465332
1437.0273246765137,169.12911987304688,-74.67074584960938,-103.81420135498048,-2.9266586303710938,3.256531238555908,1.7246599197387695,-77.03144836425781,-62.29904556274414,-157.7991943359375,-21.667659759521484,6.243587493896484,-5.494575500488281,-60.10482406616211,-54.26533889770508,-100.44630432128906,-3.6547398567199703,-8.574363708496094,0.8254194259643555,-16.111581802368164,24.670625686645508,70.86691284179688,-4.393246650695801,5.9097185134887695,-7.596193313598633,-165.97315979003906,-71.87069702148438,90.90510559082033,-2.4134812355041504,1.0465476512908936,-1.4460906982421875
1437.0563251972198,176.4964141845703,-73.75994110107422,-110.73059844970705,-0.6695804595947266,0.5946866273880005,0.9936132431030272,-95.6150360107422,-63.378936767578125,-136.56802368164062,-10.532114028930664,1.946568489074707,-5.821256637573242,-65.56001281738281,-52.0124397277832,-94.15863800048828,-4.334572792053223,-4.82110595703125,0.5315189361572266,-11.86107063293457,13.059374809265137,56.21636581420898,2.6911683082580566,-0.202038824558258,-4.5064849853515625,-167.10964965820312,-71.55522155761719,94.53794860839844,0.2738561034202575,2.1135778427124023,0.8945064544677734
1437.086784362793,-176.95008850097656,-72.99166870117188,-116.71248626708984,-0.5397157669067383,0.1039659231901168,0.6976861953735352,-111.78740692138672,-63.423465728759766,-117.32049560546876,-5.000046730041504,-0.0849979519844055,-8.067401885986328,-70.71829223632812,-49.59858703613281,-88.3410873413086,-4.470067977905273,-1.5152556896209717,1.5603723526000977,-1.79453706741333,3.279151678085327,41.21858978271485,3.95575761795044,-0.3238055109977722,-2.956638813018799,-168.6871795654297,-71.35055541992188,97.5409927368164,-2.0611815452575684,2.8571033477783203,3.816181182861328
1437.1169638633728,-170.93772888183594,-72.86111450195312,-123.10648345947266,-1.070824146270752,0.5794973373413086,0.7781229019165039,-125.3466796875,-63.40576171875,-100.81586456298828,-1.763803243637085,-0.1743975281715393,-9.922849655151367,-71.26094818115234,-48.60061264038086,-84.75745391845703,-2.732205867767334,1.267131805419922,1.825843811035156,13.713752746582031,-1.691094160079956,27.974092483520508,10.464696884155272,-20.066574096679688,3.547039031982422,-169.4149627685547,-71.41571807861328,99.56521606445312,-4.293371200561523,1.9516167640686035,1.247248649597168
1437.1467506885529,-166.7856903076172,-73.11287689208984,-129.68849182128906,-0.7844491004943848,0.6448992490768433,0.4548187255859375,-138.56556701660156,-63.87955856323242,-85.06961059570312,-1.0030362606048584,0.0308359563350677,-10.591194152832031,-71.9455795288086,-48.50649642944336,-83.86978149414062,1.9861788749694824,-3.08719253540039,-3.4697985649108887,41.09965515136719,-1.3544164896011353,23.143434524536133,-2.725687026977539,-13.603548049926758,-11.315086364746094,-170.08045959472656,-71.82948303222656,101.74720001220705,-3.105123519897461,0.095508873462677,-1.6142120361328125
1437.176764011383,-162.4888153076172,-73.22064971923828,-135.8223114013672,-1.700404167175293,0.6825982332229614,0.2001895904541015,-152.00831604003906,-64.77938079833984,-69.14027404785156,0.0540512651205062,0.4515378475189209,-7.738268852233887,-75.34011840820312,-48.439239501953125,-86.26777648925781,2.121406555175781,1.979426622390747,1.1230268478393557,57.04777908325195,-2.8709540367126465,26.961156845092773,-4.382868766784668,3.2572150230407715,7.660253524780273,-171.97299194335938,-72.66507720947266,105.29084014892578,-0.4443073272705078,0.6844737529754639,-2.4296669960021973
1437.2374205589294,-159.40162658691406,-72.96310424804688,-140.8236846923828,-0.4600768089294433,-1.424799919128418,-0.5997190475463867,-165.8771514892578,-66.01520538330078,-52.84889221191406,2.7142443656921387,-0.8542574644088745,-3.225468635559082,-76.05567169189453,-47.962738037109375,-90.90277862548828,0.2429230213165283,1.3816242218017578,-0.3217096328735351,56.93272018432617,-7.941716194152832,34.745941162109375,-2.5708727836608887,-7.562868118286133,-3.535154342651367,-176.16864013671875,-73.56513214111328,110.67096710205078,0.7611610889434814,0.9896198511123656,-5.044848442077637
1437.2672157287598,-160.19729614257812,-71.62674713134766,-141.22035217285156,-0.645261287689209,-3.890616893768311,-1.1097564697265625,-177.6824188232422,-68.10912322998047,-37.7736930847168,10.046316146850586,0.6948715448379517,0.1559276580810547,-74.92717742919922,-46.56446838378906,-96.83829498291016,-0.263232946395874,0.1878039240837097,-1.872628688812256,56.46056365966797,-19.360197067260746,44.081321716308594,5.099849700927734,-2.6099724769592285,-6.859524726867676,178.15672302246094,-74.07735443115234,116.63172149658205,-0.3959613442420959,0.2779688835144043,-4.968347549438477
1437.2972123622894,-165.80462646484375,-68.73719787597656,-135.4763641357422,-1.5745124816894531,-4.96666431427002,-0.977581024169922,176.304443359375,-72.5889892578125,-23.8940372467041,9.096412658691406,7.293188095092773,-1.6918363571166992,-72.98735046386719,-44.11204528808594,-104.84796142578124,-1.1553406715393066,-1.95849609375,-4.788708686828613,60.18854141235352,-34.82573318481445,49.67937469482422,8.234275817871094,0.6338866949081421,2.0644664764404297,174.67501831054688,-75.44837188720703,120.5720443725586,-2.087505340576172,-0.3609264492988586,-3.453273296356201
1437.3269517421722,-172.13763427734375,-64.733154296875,-126.26923370361328,-1.1989734172821045,-1.1679799556732178,-0.1200494766235351,179.20205688476562,-71.82760620117188,-23.85943984985352,-11.652751922607422,5.992068290710449,9.189960479736328,-73.23674011230469,-40.073089599609375,-113.75871276855467,-3.0178866386413574,-1.1735022068023682,-7.769731521606445,60.90566635131836,-52.95490646362305,53.519962310791016,6.743940353393555,1.6454532146453855,15.04864501953125,169.87625122070312,-77.50270080566406,126.86632537841795,-5.074658393859863,-0.7135833501815796,-5.489957809448242
1437.357125043869,-176.9835205078125,-59.81174087524414,-118.71986389160156,2.77407455444336,-1.9232807159423828,-2.714929580688477,176.16253662109375,-69.874755859375,-28.605457305908203,7.978808403015137,-4.360049247741699,1.8642358779907229,-78.88250732421875,-33.87751007080078,-121.92400360107422,-0.2239023447036743,1.8976283073425293,-6.730499267578125,51.7646598815918,-71.52228546142578,62.50356674194336,4.785154342651367,-0.7991660833358765,30.230091094970703,162.35877990722656,-78.46162414550781,137.27175903320312,-1.7584900856018066,-0.653249979019165,-4.580252647399902
1437.3871278762815,-179.6897430419922,-55.181434631347656,-112.93816375732422,3.33060884475708,5.085500717163086,-4.713187217712402,178.32142639160156,-69.69276428222656,-35.50546646118164,-0.5342042446136475,-12.511669158935549,15.842254638671877,-87.33971405029297,-25.795806884765625,-129.2393341064453,5.678074836730957,7.746340751647949,4.643972396850586,23.301971435546875,-79.29972839355469,90.27983856201172,-5.816952705383301,-0.4392489790916443,10.507831573486328,153.81483459472656,-78.7894515991211,148.07449340820312,4.209946632385254,4.515362739562988,1.0093421936035156
1437.417251586914,179.51234436035156,-51.77028274536133,-106.69412231445312,8.677974700927734,-1.787562131881714,2.392993927001953,-176.66343688964844,-68.64810180664062,-39.2797737121582,-0.2669309973716736,-6.481040000915527,19.52190399169922,-89.902099609375,-15.44655704498291,-135.85614013671875,10.846723556518556,2.863260269165039,11.216371536254885,28.71559715270996,-77.79550170898438,71.35110473632812,16.168254852294922,12.868009567260742,2.88601303100586,146.3798370361328,-77.6365737915039,155.53468322753906,3.761204242706299,1.0701000690460205,9.864917755126951
1437.4469137191772,178.7572479248047,-49.70090103149414,-101.20703125,-1.7539198398590088,0.8905612230300903,2.7843713760375977,-171.8018035888672,-65.32413482666016,-39.83012390136719,6.624853134155273,-5.254850387573242,20.286785125732425,-89.93065643310547,-0.8675918579101562,-140.86517333984375,9.944574356079102,-0.4768242835998535,21.79746627807617,42.48441696166992,-75.34468841552734,64.1502456665039,16.081356048583984,12.720870971679688,0.9762744903564452,142.91561889648438,-76.39424896240234,158.03274536132812,-4.867354393005371,-3.1258468627929688,9.28940200805664
1437.4770231246948,178.42506408691406,-48.94092178344727,-96.25292205810548,-3.27175235748291,1.0460681915283203,1.7179479598999023,-173.6634979248047,-61.36814498901367,-40.79661178588867,2.1523823738098145,-5.799892425537109,10.232610702514648,-84.76417541503906,16.893857955932617,-143.1258544921875,4.618210792541504,-6.952914237976074,23.998706817626957,45.55440521240234,-74.99484252929688,82.25016021728516,-8.623510360717773,5.605769157409668,17.01001739501953,143.170654296875,-76.35389709472656,158.78054809570312,-4.633737564086914,-2.194244861602783,7.770233154296875
1437.5070464611051,179.55601501464844,-48.979488372802734,-94.64152526855467,-6.450313568115234,0.6301629543304443,1.880276679992676,-177.4326629638672,-59.977046966552734,-37.1711311340332,4.4672441482543945,-0.04012331366539,5.959493637084961,-73.330322265625,35.29486846923828,-141.3416748046875,-6.307622909545898,-10.702608108520508,19.31040954589844,28.45168685913086,-78.48152923583984,115.61209869384766,-9.434762954711914,3.0175437927246094,10.188886642456056,145.50411987304688,-77.26893615722656,158.9892120361328,-4.923585891723633,0.5503604412078857,8.973163604736328
