Timestamp,D4:22:CD:00:05:5D_EulerX,D4:22:CD:00:05:5D_EulerY,D4:22:CD:00:05:5D_EulerZ,D4:22:CD:00:05:5D_FreeAccX,D4:22:CD:00:05:5D_FreeAccY,D4:22:CD:00:05:5D_FreeAccZ,D4:22:CD:00:05:5E_EulerX,D4:22:CD:00:05:5E_EulerY,D4:22:CD:00:05:5E_EulerZ,D4:22:CD:00:05:5E_FreeAccX,D4:22:CD:00:05:5E_FreeAccY,D4:22:CD:00:05:5E_FreeAccZ,D4:22:CD:00:05:6B_EulerX,D4:22:CD:00:05:6B_EulerY,D4:22:CD:00:05:6B_EulerZ,D4:22:CD:00:05:6B_FreeAccX,D4:22:CD:00:05:6B_FreeAccY,D4:22:CD:00:05:6B_FreeAccZ,D4:22:CD:00:05:6E_EulerX,D4:22:CD:00:05:6E_EulerY,D4:22:CD:00:05:6E_EulerZ,D4:22:CD:00:05:6E_FreeAccX,D4:22:CD:00:05:6E_FreeAccY,D4:22:CD:00:05:6E_FreeAccZ,D4:22:CD:00:49:AA_EulerX,D4:22:CD:00:49:AA_EulerY,D4:22:CD:00:49:AA_EulerZ,D4:22:CD:00:49:AA_FreeAccX,D4:22:CD:00:49:AA_FreeAccY,D4:22:CD:00:49:AA_FreeAccZ
1560.619965314865,174.05665588378906,-53.15508270263672,-80.53923797607422,-2.0221753120422363,-1.627500295639038,-0.0513849258422851,173.5705108642578,-61.03418731689453,-13.04557991027832,12.0562744140625,-4.61214542388916,17.77212905883789,-48.06291198730469,-63.47137069702149,-99.34580993652344,-0.8469252586364746,9.34151840209961,0.5965309143066406,111.48920440673828,-44.18019104003906,45.419132232666016,6.443120002746582,-13.327308654785156,27.20615005493164,152.61697387695312,-69.4847412109375,128.1002655029297,-5.254899978637695,-2.44865083694458,4.71299934387207
1560.6289792060852,174.61671447753906,-48.7680549621582,-76.83708190917969,0.0420949384570121,4.229989051818848,-0.029088020324707,-173.3045654296875,-53.97206115722656,-20.310813903808597,2.9176363945007324,-14.478858947753906,18.51358795166016,-52.63219451904297,-56.737586975097656,-91.61780548095705,-1.3505382537841797,12.989511489868164,13.037874221801758,112.74407958984376,-42.22113037109375,42.17138671875,10.64247703552246,-1.2683210372924805,2.729400634765625,153.23800659179688,-68.96549987792969,130.92324829101562,-0.0076620243489742,1.059255599975586,7.150480270385742
1560.6861789226532,-174.9893798828125,-42.5073471069336,-126.51726531982422,-2.0482659339904785,0.3770927190780639,2.781315803527832,146.6226348876953,-75.97740936279297,9.085540771484377,-0.0177500024437904,-4.618579864501953,10.41604232788086,-61.34929275512695,14.399950981140137,-66.83031463623047,7.731366157531738,-17.000782012939453,30.7921142578125,123.40594482421876,-68.7481460571289,20.77109718322754,-4.424737930297852,1.1588985919952393,14.65610122680664,96.79842376708984,-77.3879165649414,-167.65565490722656,-1.7239313125610352,-2.206944465637207,9.285022735595703
1560.716157913208,-173.91647338867188,-44.229583740234375,-125.31279754638672,-2.3555588722229004,0.3697968125343323,1.924250602722168,135.4181671142578,-68.94331359863281,18.130298614501957,-6.745054244995117,10.153472900390623,11.661596298217772,-35.860713958740234,16.180591583251953,-54.67348098754883,1.9793505668640137,-16.655471801757812,16.683975219726562,131.80197143554688,-63.05929183959961,12.40261173248291,-3.527080535888672,-0.9075359106063844,12.038965225219728,101.08142852783205,-79.70203399658203,-171.01681518554688,-1.3934602737426758,-2.9656991958618164,6.762395858764648
1560.776158094406,-172.60142517089844,-47.36822128295898,-124.52753448486328,-3.1681408882141118,1.3962972164154053,1.3418245315551758,160.13052368164062,-60.7317008972168,-5.500040054321289,2.256485939025879,7.97443962097168,0.3931045532226562,-7.1603102684021,16.382871627807617,-45.12337112426758,-3.043602466583252,-8.274093627929688,0.5911407470703125,130.61061096191406,-56.342529296875,9.15943431854248,-2.3379855155944824,0.1081722229719162,0.3538370132446289,113.21159362792967,-82.16554260253906,178.0206756591797,-1.6994833946228027,-0.8177304267883301,2.7310619354248047
1560.805659532547,-171.00686645507812,-51.57257461547852,-124.6859893798828,-2.334564685821533,0.9900014400482178,1.217698097229004,179.7445526123047,-58.838863372802734,-20.967578887939453,3.40242862701416,7.988026618957519,-8.586769104003906,13.938368797302246,18.25734138488769,-39.43790435791016,-4.553956031799316,0.862830400466919,-2.7772231101989746,134.66795349121094,-56.98062896728516,4.7446465492248535,-4.718235969543457,-3.0074338912963867,-6.807352066040039,132.61228942871094,-83.9822998046875,160.46896362304688,-1.2903084754943848,0.9183286428451538,-1.419111251831055
1560.8385210037231,-169.03909301757812,-56.71620941162109,-125.67750549316406,-3.268592357635498,0.3974891901016235,0.8072090148925781,-160.75637817382812,-59.55245971679688,-37.618595123291016,2.079357147216797,5.43414306640625,-12.371011734008787,23.62904357910156,21.741792678833008,-35.98054504394531,-7.202332496643066,-10.667491912841797,-5.103964805603027,145.97940063476562,-61.11336517333984,-1.3564149141311646,-3.5749282836914062,-2.6459317207336426,-6.814396858215332,159.46994018554688,-84.80182647705078,136.78146362304688,-1.1398229598999023,0.1849908232688903,-3.1568074226379395
1560.866003990173,-167.327880859375,-61.85547637939453,-126.5039291381836,-3.650044441223145,-2.624500274658203,1.874734878540039,-144.33010864257812,-60.655494689941406,-54.51283645629883,0.8249833583831787,4.049813270568848,-13.128976821899414,30.53507804870605,27.10704803466797,-36.26236724853516,-6.291886329650879,-10.115615844726562,-9.604923248291016,163.44357299804688,-66.94145965576172,-13.351056098937988,-0.500367283821106,-4.957839012145996,-4.819799423217773,-165.71536254882812,-85.70536804199219,105.6028289794922,-2.2032437324523926,-1.6686265468597412,-3.433783531188965
1560.896380186081,-165.14981079101562,-65.61145782470703,-127.60694885253906,-1.3879363536834717,-6.227049827575684,1.4845514297485352,-128.64401245117188,-61.90714263916016,-72.29594421386719,-0.4194396734237671,2.0791335105896,-10.854915618896484,36.43911743164063,33.298919677734375,-40.80236053466797,-2.8590402603149414,-4.2070159912109375,-13.848949432373049,-171.14163208007812,-72.48770904541016,-33.41309356689453,1.4629569053649902,-6.217180252075195,-3.7317800521850586,-125.461669921875,-85.6785888671875,69.01201629638672,0.7423995733261108,1.1206347942352295,-3.401172161102295
1560.926539182663,-165.9285125732422,-68.25877380371094,-128.57647705078125,-0.1419213414192199,-2.8349781036376958,-2.36563777923584,-111.47827911376952,-62.61514663696289,-91.92941284179688,-0.4467346668243408,0.3599771857261657,-9.546405792236328,35.11711883544922,38.1801986694336,-49.752811431884766,1.1057872772216797,-1.144268035888672,-13.993070602416992,-134.0447998046875,-75.00312805175781,-61.94357299804688,0.0359994396567344,-7.034873962402344,-1.7949552536010742,-103.99915313720705,-85.04852294921875,49.47602844238281,3.5450501441955566,2.9448060989379883,-5.5483903884887695
1560.956535100937,-168.68222045898438,-69.92961883544922,-126.8486328125,-0.6626384258270264,-0.5978789329528809,-4.05082893371582,-92.9960708618164,-61.99142074584961,-113.40218353271484,-0.9566315412521362,-0.8357198238372803,-7.636463165283203,27.925682067871094,41.69622039794922,-63.38673782348633,2.073455810546875,-3.3840036392211914,-13.409576416015623,-98.603759765625,-74.46530151367188,-86.40985107421875,0.8788915872573853,-12.958898544311523,-0.9538030624389648,-93.65999603271484,-85.01387023925781,38.86399841308594,2.804971694946289,1.1966896057128906,-7.337490081787109
1560.9861152172089,-173.55178833007812,-70.58087158203125,-121.881103515625,-1.22011399269104,2.1041722297668457,-4.370565414428711,-76.9862289428711,-59.05094146728516,-134.30686950683594,-8.471994400024414,-4.832944869995117,-5.832771301269531,17.41973876953125,43.355995178222656,-83.05420684814453,0.1736125946044922,-5.894718170166016,-18.648250579833984,-67.19770812988281,-74.63896942138672,-106.31185150146484,0.2843042016029358,-6.788995742797852,-5.261819839477539,-86.95346069335938,-85.55177307128906,31.194398880004883,0.27122962474823,-0.4434657096862793,-6.2920684814453125
1561.0162448883057,-179.10830688476562,-69.97503662109375,-115.2991714477539,1.664052963256836,-0.288809061050415,-4.136423110961914,-74.30947875976562,-55.17983627319336,-148.8901824951172,-20.763267517089844,-4.530858993530273,-5.231792449951172,3.518288373947144,40.08340835571289,-102.44071197509766,-2.279514789581299,-8.268396377563477,-23.06298446655273,-40.59140396118164,-74.63899993896484,-123.29666137695312,0.0831580162048339,-5.252373695373535,-6.801298141479492,-79.32341003417969,-86.20326232910156,22.57437896728516,-0.985453486442566,-0.1416546702384948,-4.333436012268066
1561.0767831802368,177.06655883789062,-68.2981948852539,-109.00205993652344,1.5858564376831057,-0.4881448149681091,-1.396164894104004,-85.83964538574219,-54.14638137817383,-154.52064514160156,-24.88003158569336,5.613643646240234,-14.058521270751951,-19.489748001098636,36.86007308959961,-106.61861419677734,16.200191497802734,5.606939315795898,-15.928285598754885,-20.96217536926269,-74.19611358642578,-136.76937866210938,-0.3850858807563782,-6.5008392333984375,-7.382967948913574,-70.13360595703125,-86.81807708740234,12.72947597503662,-1.7814569473266602,-1.014782190322876,-1.3621559143066406
1561.1063957214355,172.0711212158203,-66.40760803222656,-104.11618041992188,0.1204153597354888,-0.3356751799583435,-1.204472541809082,-102.2649383544922,-57.22851943969727,-150.36447143554688,-18.981128692626957,31.01809310913086,-6.440018653869629,-46.9441032409668,39.43551635742188,-98.71671295166016,-20.771804809570312,-6.657444000244141,8.402948379516602,-11.628857612609863,-73.46229553222656,-145.0035858154297,-1.2473082542419434,-5.690959930419922,-7.147434234619141,-54.83724594116211,-86.9308853149414,-3.540820598602295,-1.711522102355957,-2.806638717651367,-0.3695268630981445
1561.136804103851,168.4987030029297,-63.90299224853516,-99.55608367919922,1.724079132080078,-2.0860767364501958,1.0403203964233398,-111.45407104492188,-57.92943572998047,-138.71099853515625,-8.709049224853516,-8.034568786621094,-3.9386725425720215,-37.8719482421875,38.88336181640625,-95.93943786621094,-2.992626190185547,5.029003143310547,-6.709206581115723,-10.192988395690918,-73.08610534667969,-147.4001922607422,-1.7838950157165527,-8.361671447753906,0.3262414932250976,-50.81638717651367,-87.42063903808594,-10.402676582336426,-1.0895583629608154,0.8717125654220581,-2.251161575317383
1561.1658973693848,166.20895385742188,-61.45218276977539,-95.2870101928711,-4.156288146972656,1.5876569747924805,1.6509580612182615,-121.16735076904295,-59.25094223022461,-128.98619079589844,-9.122522354125977,-6.294989585876465,13.44624137878418,-29.52532768249512,37.13522720336914,-86.01177978515625,-5.160238265991211,0.1935901641845703,-4.493285179138184,-15.362171173095703,-73.36619567871094,-143.18130493164062,0.1815397143363952,-8.054733276367188,3.631159782409668,-75.04393005371094,-88.61266326904297,9.640410423278809,-0.0025154147297143,-3.003791332244873,1.235307693481445
1561.1960079669952,162.36326599121094,-59.30819320678711,-91.51573944091795,0.11222405731678,-1.7531344890594482,3.946889877319336,-132.07049560546875,-56.9439811706543,-122.65071868896484,-4.918444633483887,2.003629207611084,4.449899673461914,-19.237367630004883,30.571271896362305,-71.51836395263672,-10.137975692749023,-6.25950813293457,-4.856671333312988,-26.509090423583984,-73.41990661621094,-132.83502197265625,2.7408347129821777,-10.108078002929688,0.5678091049194336,-128.73658752441406,-88.15963745117188,59.37070846557617,-0.6718683242797852,-4.524432182312012,9.4486083984375
1561.2265527248385,158.31651306152344,-58.20723342895508,-88.99652099609375,-0.656835675239563,0.1953319907188415,5.274548530578613,-136.23788452148438,-58.80549621582031,-118.12250518798828,0.5588852167129517,0.8731275796890259,2.282505989074707,-11.578851699829102,17.376550674438477,-60.51839447021485,-5.799241065979004,4.108170509338379,-7.818814277648926,-44.24150466918945,-73.80721282958984,-120.45057678222656,0.7850905656814575,-12.255714416503906,4.195466995239258,-135.1016082763672,-86.85689544677734,60.81614685058594,1.788884162902832,-3.5865297317504883,7.370899200439453
1561.256759405136,153.1511688232422,-58.270503997802734,-88.07327270507812,0.5061768293380737,-3.100419521331787,9.433971405029297,-139.49851989746094,-61.55418395996094,-114.56078338623048,-6.366813659667969,-1.819213628768921,-1.909928798675537,-9.770553588867188,-0.0930472761392593,-53.76713562011719,-5.863995552062988,6.233908653259277,-11.739709854125977,-68.62590789794922,-75.45735931396484,-107.77442932128906,-2.3709940910339355,-10.53847312927246,4.630939483642578,-137.2078399658203,-84.5135269165039,58.05551528930664,5.040051460266113,-2.0823330879211426,0.5405635833740234
1561.286179304123,146.4698486328125,-60.07594680786133,-88.35771942138672,2.2325358390808105,-10.764408111572266,10.204835891723633,-141.5252227783203,-63.78797149658203,-112.37875366210938,-8.037191390991211,-2.4971237182617188,-2.508545398712158,-12.0097017288208,-19.268760681152344,-46.37478256225586,-1.6508827209472656,0.0881530046463012,-6.389670372009277,-101.95347595214844,-78.82347106933594,-89.07511901855469,-3.60954475402832,-3.3638548851013184,2.009953498840332,-142.95176696777344,-82.10195922851562,60.158634185791016,8.707147598266602,-1.3014960289001465,-1.6653375625610352
1561.315805196762,140.07240295410156,-60.487884521484375,-93.1020965576172,20.13055419921875,12.824766159057615,4.497243881225586,-143.60272216796875,-65.51429748535156,-111.23316192626952,-2.958596706390381,-1.739108324050903,-0.2763490676879883,-20.4963493347168,-36.107643127441406,-33.32817840576172,5.589165687561035,-0.3208427429199219,-1.1434640884399414,-148.52760314941406,-80.93145751953125,-52.83868408203125,0.8410580158233643,3.774725914001465,0.1208734512329101,-150.0606231689453,-80.83063507080078,63.66902923583984,0.1908778250217437,0.0620107650756835,1.1445608139038086
1561.3765187263489,146.13369750976562,-53.81560134887695,-104.60588836669922,21.622802734375,9.383129119873049,9.012353897094728,-140.2699737548828,-70.18557739257812,-111.2704849243164,-1.918867588043213,-4.561000823974609,0.474039077758789,-37.23812484741211,-45.98070526123047,-13.166010856628418,4.066479682922363,6.356093406677246,1.813335418701172,-170.83428955078125,-80.95738983154297,-34.94772720336914,9.175004959106444,7.540324211120605,-2.838653564453125,-150.98486328125,-80.84058380126953,63.17395782470703,-2.231870174407959,2.7539548873901367,-0.3587837219238281
1561.4060533046722,152.647705078125,-43.33378219604492,-116.45977020263672,9.833105087280272,1.0864343643188477,3.0608205795288086,-132.6754150390625,-73.87667846679688,-112.1447982788086,-2.7807493209838867,-1.409315586090088,-1.6304311752319336,-52.58555221557617,-47.40662384033203,4.520542621612549,1.1206436157226562,12.921009063720703,-4.031044006347656,-170.1615753173828,-82.28703308105469,-37.37641143798828,1.304881572723389,5.207812309265137,-3.463630199432373,-151.8560333251953,-80.08123016357422,63.72915649414063,4.5915374755859375,0.9905569553375244,-2.0108752250671387
1561.436299085617,155.40426635742188,-31.72431755065918,-126.091552734375,-0.4850178360939026,-0.6969180107116699,-6.906379699707031,-123.15995025634766,-75.89044952392578,-113.0891342163086,-3.893095016479492,-2.6338930130004883,-4.520556449890137,-58.90275955200195,-45.63203048706055,9.79500675201416,-3.4381918907165527,9.469762802124023,-4.855952262878418,-161.63978576660156,-83.66049194335938,-39.05890274047852,-4.633490562438965,-0.0772794932126998,-2.237460136413574,-154.7325897216797,-79.28611755371094,66.00677490234375,5.384163856506348,-1.0282769203186035,-0.3426008224487304
1561.4662194252014,157.0386962890625,-20.750560760498047,-133.02639770507812,-4.571964263916016,0.1972895264625549,-14.585620880126951,-116.0410385131836,-76.26904296875,-111.90348815917967,-4.609967231750488,-3.060849666595459,-5.734972953796387,-58.33544921875,-45.07452774047852,5.2974700927734375,-2.6566691398620605,6.087719917297363,-9.87271499633789,-160.22915649414062,-85.0091552734375,-33.80754089355469,-5.332904815673828,-5.870121002197266,-3.7071471214294434,-156.54718017578125,-79.44499206542969,66.89600372314453,0.8873395919799805,-0.0126768723130226,-2.8578243255615234
1561.4963052272797,160.63095092773438,-11.639607429504396,-138.1361541748047,-0.4248569011688232,1.007326364517212,-16.90920639038086,-127.00334930419922,-73.42655944824219,-102.79349517822266,-5.602763175964356,5.070224761962891,-0.4733076095581054,-59.30911636352539,-47.06019973754883,-1.9238085746765137,-4.375584602355957,3.453607082366944,-7.643494606018066,-178.3900146484375,-85.83882141113281,-14.743415832519531,-3.4535341262817383,-4.787336349487305,-4.107436180114746,-158.97360229492188,-80.1254653930664,68.51556396484375,-0.4505395889282226,0.114596202969551,-7.1111555099487305
1561.5267233848572,165.1954803466797,-5.900973796844482,-143.00717163085938,-5.845803260803223,4.4786224365234375,-11.762622833251951,-135.4237518310547,-68.61385345458984,-99.08855438232422,-3.099088191986084,-7.063314437866211,0.3765401840209961,-62.336822509765625,-52.72799682617188,-7.873785018920898,-2.99874210357666,1.2259602546691897,-5.294355392456055,151.47869873046875,-85.09899139404297,13.96229076385498,-1.233555555343628,-2.8676676750183105,-3.7304821014404297,-163.56532287597656,-79.8750228881836,72.70697021484375,2.092144012451172,0.4524543285369873,-6.8551225662231445
1561.556253671646,163.12637329101562,-4.640493392944336,-147.73899841308594,-7.680980682373047,0.959654688835144,-12.98470687866211,-141.47418212890625,-62.22554397583008,-96.74811553955078,-1.493194580078125,1.636993646621704,-1.6547622680664062,-69.43385314941406,-64.90617370605469,-10.462392807006836,1.4489021301269531,-5.739931106567383,2.201810836791992,132.08505249023438,-82.4736328125,33.40125274658203,0.0935980230569839,-3.171081066131592,-3.545003890991211,-163.82542419433594,-79.28782653808594,72.1090316772461,3.699655055999756,1.9213099479675293,-1.3525781631469729
1561.5865700244904,160.6361083984375,-6.25855016708374,-150.60848999023438,-4.886014938354492,-1.9300963878631592,-12.51763153076172,-146.0676727294922,-56.33859634399414,-94.82183837890624,-2.905917167663574,-3.2951455116271973,2.238087654113769,-105.64656829833984,-84.0257797241211,17.024324417114258,-5.129660606384277,3.2186732292175293,44.9591064453125,122.1904754638672,-79.15147399902344,42.870487213134766,-0.8450273275375366,-7.423867225646973,-1.0096521377563477,-158.90452575683594,-78.6728515625,66.47329711914062,0.065393179655075,-2.066835880279541,1.2333917617797852
1561.616319179535,164.19598388671875,-10.850872039794922,-151.49012756347656,-11.473421096801758,0.0742843002080917,-5.050382614135742,-148.08509826660156,-53.40057373046875,-93.01966094970705,-3.997315406799317,-0.9956129789352416,1.1214256286621094,119.16714477539062,-81.27665710449219,159.58743286132812,-24.117908477783203,2.77322769165039,22.149940490722656,112.30219268798828,-75.20841217041016,49.74737930297852,-2.3266520500183105,-8.769500732421875,4.070871353149414,-157.72756958007812,-79.35443878173828,65.462890625,2.7259035110473637,1.2509779930114746,0.6670942306518555
1561.6764223575592,167.1298828125,-17.60645294189453,-150.30259704589844,-14.354684829711914,-1.7870850563049316,18.34691619873047,-149.80197143554688,-52.47106552124024,-91.13641357421876,-3.0432114601135254,-0.777301549911499,2.109644889831543,-141.3503875732422,-84.8333969116211,57.20039367675781,-1.0340423583984375,11.446172714233398,6.087588310241699,100.95894622802734,-69.48385620117188,55.60719299316406,-3.0857748985290527,-6.865032196044922,8.75501823425293,-159.8946075439453,-78.94125366210938,66.92005157470703,-1.5752007961273191,-0.3163293600082397,3.72979736328125
1561.7061820030212,168.54212951660156,-16.5939884185791,-145.6399688720703,-11.60614013671875,-11.984485626220703,29.43574905395508,-151.3573760986328,-53.00136566162109,-89.51802062988281,-4.755936622619629,-1.3284342288970947,0.7151708602905273,-86.13490295410156,-69.64286041259766,5.867465972900391,10.70290184020996,5.726820945739746,36.97601318359375,91.88518524169922,-59.82359313964844,60.72927474975586,5.46976375579834,-5.215921401977539,16.398616790771484,-161.66954040527344,-78.04772186279297,68.75945281982422,-1.0785982608795166,-0.3298912644386291,12.139657974243164
1561.736592054367,173.6128387451172,-10.67337131500244,-142.60572814941406,-20.96075820922852,-5.74724006652832,14.436342239379885,-152.30685424804688,-54.70684051513672,-89.06584167480469,-5.013541221618652,-0.5037375688552856,1.457439422607422,-67.38861083984375,-55.20550155639648,-5.7892351150512695,15.447549819946287,-2.623569965362549,10.537569046020508,92.13378143310548,-46.19155883789063,66.57132720947266,11.447151184082031,-9.338556289672852,24.622215270996094,-162.5846710205078,-79.01819610595703,70.05532836914062,2.6192312240600586,0.1685502231121063,7.521390914916992
1561.7663226127625,167.19676208496094,-2.915658950805664,-141.2640838623047,-16.38489532470703,-9.213335037231444,8.419988632202148,-152.52003479003906,-57.72183990478516,-90.00016784667969,-4.548226356506348,-2.1201300621032715,4.241757392883301,-65.5767593383789,-43.92388153076172,-10.87756061553955,11.393871307373049,-3.3436074256896973,-2.3828463554382324,92.6960220336914,-29.999757766723636,72.87278747558594,14.201078414916992,-7.917879104614258,24.933666229248047,-161.66090393066406,-80.45767211914062,70.23202514648438,4.210607528686523,2.4978089332580566,7.169500350952148
1561.7958476543429,162.31549072265625,3.7066028118133545,-140.68858337402344,-8.699518203735352,-7.1217041015625,-2.6140260696411133,-151.65341186523438,-61.57341766357422,-92.09197998046876,-2.852055072784424,-6.268603324890137,7.070896148681641,-71.11141204833984,-37.77408218383789,-14.95823574066162,-0.0953816771507263,-1.2823915481567385,-7.684235572814941,92.94330596923828,-11.639433860778809,78.6335678100586,17.802337646484375,1.690833330154419,16.42090606689453,-167.28253173828125,-80.52274322509766,75.18958282470703,7.185627937316895,2.2337756156921387,5.83502197265625
1561.826462984085,160.6890869140625,7.024386882781982,-141.653076171875,-2.565042495727539,-2.153242588043213,-8.380180358886719,-147.63803100585938,-65.76721954345703,-95.2528076171875,-1.344820261001587,-6.869818687438965,2.6822376251220703,-75.59850311279297,-37.75049209594727,-18.343345642089844,-2.7476577758789062,2.931537628173828,-5.990768432617188,90.8692398071289,6.512217044830322,83.1039810180664,7.485867500305176,5.794838905334473,5.40306282043457,-173.90660095214844,-80.83753967285156,80.13688659667969,2.886331558227539,0.330153226852417,2.4923830032348637
1561.8587036132812,160.67758178710938,6.109055995941162,-143.56417846679688,-3.2189035415649414,4.838474273681641,-11.555768966674805,-131.51026916503906,-71.65924072265625,-105.5306167602539,0.651244044303894,6.616991996765137,-5.785469055175781,-75.32526397705078,-43.31113815307617,-21.598974227905277,-1.9491534233093264,3.396548271179199,-7.607990264892578,86.36841583251953,21.47492027282715,85.5561294555664,-5.677497863769531,3.929922103881836,1.658280372619629,178.93008422851562,-80.89834594726562,86.08002471923828,0.0806027948856353,0.7715060710906982,0.1813879013061523
1561.8861513137815,160.73822021484375,1.0850566625595093,-145.0367431640625,-3.347198486328125,5.289061546325684,-15.541070938110352,-124.86698150634766,-72.01099395751953,-111.81633758544922,-3.127295970916748,2.795100688934326,-9.298429489135742,-74.42584991455078,-52.58543395996094,-24.301855087280277,-0.2870079278945923,1.8023078441619875,-8.571178436279297,77.10201263427734,32.37486267089844,85.65203857421875,-15.622045516967772,-0.6690109968185425,-4.7155303955078125,174.22242736816406,-80.42843627929688,90.62098693847656,-0.3171373605728149,-0.3369002938270569,-4.094029426574707
1561.915694952011,160.5996551513672,-7.453751564025879,-145.54783630371094,-5.522775650024414,4.534488677978516,-14.738445281982422,-120.08268737792967,-72.43476104736328,-120.73542785644533,0.94231379032135,-7.472541809082031,-9.536176681518556,-77.69364166259766,-62.97636795043945,-25.874164581298828,-0.1440612971782684,0.7629717588424683,-8.041351318359375,65.1282958984375,39.575714111328125,83.62484741210938,-13.656867980957031,-5.566919326782227,-9.508604049682615,170.94456481933594,-80.29010009765625,94.6979522705078,-0.4406506419181824,-0.2552723288536072,-8.485746383666992
1561.976683139801,158.46177673339844,-18.764158248901367,-145.11817932128906,-7.179765701293945,2.318624973297119,-12.34958267211914,-120.41705322265624,-72.32603454589844,-125.17937469482422,-13.018829345703123,17.279926300048828,-2.0914130210876465,-81.62572479248047,-73.40080261230469,-26.4978084564209,-2.1647744178771973,4.7519731521606445,-5.932733535766602,53.4677848815918,43.65324020385742,81.65240478515625,-3.0738582611083984,-6.637994766235352,-12.931516647338867,165.6549072265625,-80.04639434814453,100.6540756225586,0.1637404859066009,1.3040549755096436,-10.129491806030272
1562.0062232017517,154.6044158935547,-31.97075653076172,-143.22283935546875,-7.267885208129883,0.2699798345565796,-8.897216796875,-130.7926788330078,-69.43183898925781,-120.4405517578125,-5.769742965698242,-2.0756616592407227,-8.47470474243164,-79.7440185546875,-82.64620208740234,-29.251426696777344,-0.7050211429595947,5.963271141052246,-5.529876708984375,47.04148864746094,46.41680908203125,83.69329833984375,0.5994378328323364,-2.064940452575684,-10.683563232421877,159.50474548339844,-79.61282348632812,105.83292388916016,1.2034273147583008,0.9744738340377808,-9.2698974609375
1562.036287069321,149.5369110107422,-46.27315902709961,-139.03807067871094,-5.410772323608398,-1.8201463222503664,-3.651098728179932,-134.17437744140625,-66.79618072509766,-117.1808853149414,-5.056669235229492,-2.266929149627685,-3.58388900756836,-35.11220169067383,-88.92334747314453,-75.48111724853516,0.1221652030944824,4.137228012084961,-7.332949638366699,42.927520751953125,48.54536056518555,90.60388946533205,-3.193048477172852,0.2917280197143554,-10.77737808227539,153.82492065429688,-79.794677734375,109.66661834716795,-0.0590838864445686,-0.8280388116836548,-7.381204605102539
1562.0663752555847,141.53175354003906,-61.43814086914063,-129.70053100585938,-3.7292075157165527,-5.678033828735352,3.63533878326416,-138.01222229003906,-63.49872589111328,-113.65345764160156,-3.341735363006592,-4.477396965026856,1.5302486419677734,79.11614990234375,-85.46314239501953,166.57192993164062,-2.4161057472229004,6.405468940734863,-6.500988960266113,41.23991775512695,49.04841232299805,103.24927520751952,-4.448314666748047,1.1953158378601074,-14.442523956298828,152.90292358398438,-80.20628356933594,110.06977081298828,0.4189990758895874,-1.6255440711975098,-4.450376510620117
1562.0963780879974,119.81768035888672,-75.42845916748047,-101.32742309570312,6.087310791015625,-9.207124710083008,17.840011596679688,-140.8428955078125,-60.63301849365234,-112.92205810546876,-2.7040090560913086,-0.5457640886306763,3.3612375259399414,82.7588882446289,-79.69038391113281,161.71775817871094,-3.3020272254943848,9.254478454589844,-4.960331916809082,42.983917236328125,46.42938232421875,119.73941802978516,-8.378686904907227,5.8949384689331055,-21.24217987060547,159.6916961669922,-80.27078247070312,104.7384796142578,1.4761271476745603,-1.9113566875457764,-1.5969858169555664
1562.1263036727903,76.39562225341797,-77.58168029785156,-45.23212432861328,21.31579971313477,9.04232406616211,8.646665573120117,-140.03041076660156,-59.24396896362305,-115.24887084960938,-7.517581939697266,-4.923710823059082,4.704561233520508,84.41954803466797,-72.91510772705078,160.3094940185547,-3.2096962928771973,5.68040943145752,-4.404567718505859,46.76629638671875,43.032264709472656,132.89996337890625,-6.734375,6.424091339111328,-18.397815704345703,169.6578369140625,-80.26475524902344,97.41156005859376,4.469834327697754,-3.092149257659912,2.4479055404663086
1562.1564712524414,72.93293762207031,-75.44401550292969,-35.83144760131836,24.97851181030273,13.397184371948242,-7.975881576538086,-134.9977264404297,-59.37557220458984,-119.78768157958984,-3.8502235412597656,-4.068385124206543,7.863117218017578,87.89134216308594,-67.11015319824219,152.99371337890625,-6.257353782653809,2.9304070472717285,-0.1725740432739257,60.3773307800293,42.04096603393555,136.84524536132812,7.688127517700195,-7.734350204467773,-8.277069091796875,177.06884765625,-79.57504272460938,90.79278564453124,11.425861358642578,-1.2556133270263672,9.207633972167969
1562.186018705368,100.6799545288086,-73.8474349975586,-60.64753341674805,11.139135360717772,-4.534045219421387,4.891504287719727,-127.23257446289062,-60.42808532714844,-126.32007598876952,-5.274906158447266,-5.038320541381836,5.0992841720581055,92.63853454589844,-63.13930130004883,141.5594024658203,-7.802054405212402,12.968751907348633,11.368627548217772,77.52851867675781,45.36164855957031,131.18714904785156,-3.363192081451416,-4.652688980102539,3.644894599914551,179.76107788085938,-78.58882904052734,86.81368255615234,5.398176193237305,-1.3352713584899902,7.585992813110352
1562.2159929275513,118.5027847290039,-72.65445709228516,-79.34629821777344,-6.834940910339356,-12.786382675170898,3.62399959564209,-118.7237548828125,-60.62128829956055,-135.6446533203125,-5.030519485473633,-6.216127395629883,-3.887981414794922,100.55030059814452,-60.527374267578125,134.86180114746094,-7.784354209899902,12.82286262512207,8.417486190795898,74.94438934326172,50.66318893432617,114.8387451171875,-22.68050765991211,2.774432182312012,0.03753662109375,-176.5535125732422,-77.8348388671875,85.2303695678711,-2.787428855895996,-1.5881645679473877,5.077807426452637
1562.2762730121613,128.50851440429688,-72.8222885131836,-91.42131042480467,-1.93941068649292,8.949460983276367,6.212898254394531,-114.44153594970705,-59.03672790527344,-137.5669708251953,-11.974029541015623,9.010522842407228,-2.864787578582764,115.37330627441406,-60.85317611694336,130.83245849609375,-7.631840705871582,4.876578330993652,4.346992492675781,45.72604751586914,51.25518798828125,89.48737335205078,-17.15068817138672,10.274051666259766,-12.480745315551758,-170.14132690429688,-77.33219146728516,84.32496643066406,-3.066381931304932,-3.182559013366699,0.1652679443359375
1562.3068237304688,138.56814575195312,-72.28838348388672,-100.72534942626952,-6.501029968261719,4.107878684997559,1.872689247131348,-115.77147674560548,-54.25471878051758,-129.2070770263672,-22.22204971313477,14.47649383544922,2.115330696105957,132.70736694335938,-64.96394348144531,123.98039245605467,-1.1815946102142334,1.7294573783874512,0.8154850006103516,15.94963550567627,44.53792572021485,66.6157455444336,-3.3492326736450195,-3.859240055084229,-13.644964218139648,-164.6193084716797,-76.21682739257812,84.7276840209961,-1.7404205799102783,-1.1973302364349363,-4.09381103515625
1562.33598446846,149.83937072753906,-71.46565246582031,-108.86190795898438,0.2586252689361572,-1.5615828037261963,-1.7144670486450195,-125.25279235839844,-45.64392852783203,-115.28736877441406,-20.361618041992188,2.588047981262207,0.8828754425048828,150.79095458984375,-70.33914184570312,108.20101928710938,1.2557852268218994,-0.4828317165374756,-3.2761635780334477,-0.0673198029398918,32.492069244384766,50.69026947021485,5.161698341369629,-2.471606731414795,-10.31241226196289,-164.15135192871094,-75.4142074584961,87.56739044189453,1.267836332321167,5.288637161254883,-8.165937423706055
1562.3661382198334,158.55010986328125,-69.97057342529297,-114.1124038696289,5.048895835876465,-6.223187446594238,-0.4699983596801758,-134.0755157470703,-37.27295303344727,-102.84359741210938,-12.331253051757812,-3.627391815185547,-9.943742752075195,168.89248657226562,-73.6244125366211,86.81228637695312,-2.601332664489746,0.5742554664611816,-6.142705917358398,-2.264814853668213,20.59160423278809,37.56694793701172,14.14539909362793,-5.778141975402832,-3.093040943145752,-171.2058563232422,-73.67439270019531,93.77935028076172,2.7607221603393555,3.381162166595459,-5.659466743469238
1562.39652466774,166.10499572753906,-68.51565551757812,-118.08814239501952,1.804813861846924,0.4672755002975464,1.027536392211914,-139.7392578125,-30.946727752685547,-92.49594116210938,-5.0499114990234375,-1.3809010982513428,-13.29826545715332,-177.89694213867188,-76.1744613647461,71.26749420166016,-5.744487762451172,0.0849575996398925,-4.74543571472168,14.59371566772461,12.473085403442385,26.020824432373047,12.069879531860352,-18.05242156982422,0.7845697402954102,-179.2122039794922,-70.83238220214844,98.9445343017578,-1.5486745834350586,0.2658749222755432,3.364378929138184
1562.4265143871307,169.64451599121094,-67.54350280761719,-120.14171600341795,-0.4446417093276977,0.5588237047195435,0.7724332809448242,-142.7403564453125,-27.177797317504883,-83.93914031982422,-1.6649436950683594,1.5535266399383545,-13.661294937133787,-167.7099151611328,-79.48584747314453,59.62518310546875,-7.538699150085449,-2.5819201469421387,-0.5641765594482422,42.11661529541016,9.038778305053713,18.21782684326172,-4.965402603149414,-4.8138427734375,-5.103145599365234,179.421875,-68.2923355102539,99.82674407958984,-9.57451629638672,1.2451109886169434,9.833080291748049
1562.456610918045,173.01734924316406,-67.17506408691406,-122.895263671875,-2.0841212272644043,2.2216672897338867,1.4359064102172852,-146.65530395507812,-25.679258346557617,-77.07444763183594,-0.3885205388069153,0.0888698101043701,-12.176000595092772,-158.34490966796875,-81.85432434082031,46.20432662963867,-4.925902366638184,-2.355639934539795,2.762271881103516,57.25458908081055,6.154512405395508,13.789103507995604,-5.96928596496582,9.029735565185549,9.314332962036133,179.5454559326172,-68.38447570800781,99.94520568847656,-5.163310050964356,2.6013636589050293,4.061927795410156
1562.4867570400238,176.64012145996094,-67.4688720703125,-126.6644287109375,-0.290739357471466,1.5326433181762695,1.327591896057129,-153.6575927734375,-27.224254608154297,-70.82862854003906,-1.335355520248413,-2.177962303161621,-6.941117286682129,-146.14019775390625,-83.23268127441406,25.8498477935791,-3.979776382446289,3.6056551933288574,4.316874504089356,60.73221206665039,3.3171310424804688,9.766968727111816,3.817355155944824,-12.503669738769531,2.148016929626465,177.16165161132812,-68.93811798095703,102.46160125732422,0.5931963920593262,3.353194236755371,0.2310161590576172
1562.516753435135,179.48660278320312,-68.30583953857422,-130.09071350097656,0.3537825345993042,-0.4212090373039245,0.2847137451171875,-158.78271484375,-32.54216766357422,-64.68817138671875,3.4582648277282715,-6.186297416687012,-4.259941101074219,-122.03450012207033,-83.80321502685547,-2.9735231399536133,-6.409426689147949,7.434075355529785,3.370802879333496,77.62869262695312,0.5566063523292542,8.194040298461914,1.4081878662109375,-9.324274063110352,0.282536506652832,172.7200927734375,-69.51678466796875,106.31112670898438,1.302497625350952,2.256645679473877,-1.1456336975097656
1562.57621717453,-177.67237854003906,-69.10246276855469,-132.6299285888672,0.0061206789687275,-1.3112242221832275,-0.0475454330444335,-161.3444061279297,-40.939971923828125,-59.4627799987793,10.78768539428711,-9.360841751098633,-2.783885955810547,-83.49174499511719,-82.61857604980469,-41.21677780151367,-1.0580735206604004,5.053692817687988,-0.2714834213256836,100.80679321289062,-5.753023624420166,8.012812614440918,10.720104217529297,1.5554368495941162,2.035778045654297,166.43597412109375,-69.92826080322266,111.03155517578124,-0.932098627090454,1.4910805225372314,-5.657800674438477
1562.6062405109406,-175.1985321044922,-69.30609893798828,-134.3131103515625,-0.7123415470123291,-1.4889085292816162,-0.7372369766235352,-158.4473876953125,-50.35068130493164,-56.70515060424805,-6.11306095123291,9.109912872314451,23.46662139892578,-61.253395080566406,-77.63990783691406,-64.89925384521484,-0.6811834573745728,3.5544471740722656,-4.620735168457031,120.11302947998048,-15.101126670837402,8.888958930969238,10.741090774536133,-0.0888732224702835,4.194755554199219,159.8291015625,-69.41232299804688,115.9171371459961,-1.4098594188690186,1.4374020099639893,-5.140388488769531
1562.6362953186035,-175.088623046875,-68.30289459228516,-135.02200317382812,-2.556041717529297,-1.0730903148651123,0.1244516372680664,-149.15447998046875,-54.20661926269531,-56.95913696289063,18.11864852905273,-11.76425552368164,-5.157330513000488,-54.189552307128906,-70.91546630859375,-74.12364196777344,-1.5216515064239502,5.819799423217773,-5.933579444885254,127.90396881103516,-28.634197235107425,9.303157806396484,4.509096145629883,-8.636348724365234,10.490732192993164,153.61866760253906,-68.75374603271484,120.0894775390625,-0.0766401290893554,-0.8958083391189575,-3.056471347808838
1562.666301727295,-178.56887817382812,-65.29215240478516,-132.9281463623047,-3.654863834381104,-5.357335090637207,-1.566110610961914,-149.93568420410156,-55.75237655639648,-58.01536178588867,2.865374565124512,-10.858634948730469,-3.0548810958862305,-50.34293365478516,-63.06793212890625,-78.75637817382812,-0.3874690532684326,8.284067153930664,-5.204105377197266,111.8171615600586,-44.99454879760742,7.995544910430908,-0.092862918972969,-3.123779296875,13.984140396118164,147.47763061523438,-68.90278625488281,124.7822723388672,-1.7388882637023926,-2.032045841217041,-4.215639114379883
1562.6962985992432,179.46945190429688,-60.50772476196289,-130.03126525878906,-0.6984866857528687,2.506463527679444,0.3260374069213867,-159.72657775878906,-51.37565231323242,-58.962310791015625,14.01670265197754,-1.804651498794556,17.89978790283203,-45.99819564819336,-53.61813354492188,-81.22105407714844,-5.090598106384277,10.266796112060549,-0.6847524642944336,79.9076919555664,-58.25027084350586,10.78986930847168,16.330081939697266,-1.0658698081970217,9.631563186645508,140.93565368652344,-69.47181701660156,131.57699584960938,-3.935383319854736,0.3087306022644043,-2.4863104820251465
1562.726464509964,176.80050659179688,-55.27128982543945,-128.39498901367188,1.2260396480560305,0.1784177422523498,-1.5167179107666016,-158.67318725585938,-43.83896255493164,-60.91447448730469,0.9101214408874512,-21.13019180297852,10.60683822631836,-42.23434066772461,-42.08965301513672,-81.13797760009766,-6.063179969787598,13.241802215576172,0.8732194900512695,65.49281311035156,-57.30209732055664,14.96560001373291,29.02341079711914,-8.966405868530273,-7.505976676940918,136.69813537597656,-69.68769073486328,136.5826416015625,2.007598400115967,0.9469674825668336,1.870561599731445
1562.755464553833,175.81768798828125,-51.11886596679688,-126.96648406982422,4.953242301940918,6.439510345458984,-4.308114051818848,-155.55343627929688,-35.36481475830078,-62.720977783203125,5.113984107971191,-23.417503356933597,8.669668197631836,-42.39466857910156,-28.86608123779297,-77.43079376220703,-9.315738677978516,16.035694122314453,4.440346717834473,83.8868408203125,-51.38150405883789,19.8501091003418,20.05614852905273,6.958684921264648,-3.257833480834961,136.9651641845703,-69.22980499267578,137.0714111328125,-1.186535120010376,-1.4315717220306396,8.804218292236328
1562.7871799468994,176.51348876953125,-49.10882568359375,-127.42311096191406,4.114436149597168,-2.5297436714172363,2.2123374938964844,-155.04734802246094,-27.69240379333496,-62.85394287109375,0.1559270918369293,-17.686676025390625,5.840130805969238,-40.73167037963867,-15.31365966796875,-71.32553100585938,-1.783219814300537,14.604312896728516,8.764480590820312,101.61467742919922,-45.28449630737305,26.506397247314453,-2.999270439147949,11.07826805114746,13.952522277832031,138.46592712402344,-68.68087768554688,136.38661193847656,-2.684872627258301,-1.132140874862671,9.446353912353516
1562.8308410644531,177.54151916503906,-49.0869369506836,-128.0447998046875,-2.150331974029541,0.3750927448272705,4.766818046569824,-155.16891479492188,-22.52980613708496,-62.573577880859375,-6.030551910400391,-5.46395206451416,10.189239501953123,-35.04779052734375,-2.455121755599976,-64.2667007446289,-0.2684946060180664,5.647796630859375,18.33698272705078,102.37984466552734,-40.18839263916016,31.088890075683597,7.6232404708862305,9.415056228637695,10.886445999145508,139.62496948242188,-68.2993392944336,135.74009704589844,-2.773651599884033,0.4363187551498413,10.215681076049805
1562.8768465518951,179.0624237060547,-50.43281173706055,-128.51034545898438,-0.6676250696182251,1.495948076248169,3.283365249633789,-156.25479125976562,-21.32697868347168,-63.32024002075195,-3.583433151245117,3.2218894958496094,4.369795799255371,-25.18071556091309,9.103410720825195,-58.08027648925781,0.3631507754325866,1.795461654663086,11.926074981689451,102.86003875732422,-39.70842742919922,35.683956146240234,4.092782020568848,5.604361534118652,3.088935852050781,142.3669891357422,-68.30342102050781,133.42950439453125,-5.977912902832031,2.4831600189208984,10.53310203552246
1562.9064373970032,-179.1770782470703,-53.52545547485352,-129.26812744140625,0.0517655983567237,1.3176281452178955,3.7853946685791016,-154.26194763183594,-23.55952262878418,-65.76313018798828,2.564264297485352,9.386175155639648,-3.880948066711426,-17.75059700012207,18.32884407043457,-51.56285095214844,-1.088078260421753,1.5106048583984375,8.496160507202148,106.83903503417967,-45.117950439453125,41.0135498046875,-3.4971437454223637,2.1483426094055176,3.3482885360717773,145.492919921875,-69.4517593383789,132.23814392089844,-4.615338325500488,1.172438383102417,6.170384407043457
1562.937433719635,-177.36497497558594,-58.48661804199219,-130.22618103027344,-0.9416112899780272,1.356642246246338,5.819904327392578,-148.68429565429688,-27.16534805297852,-71.2165298461914,7.112966537475586,10.560905456542969,-10.185998916625977,-9.973963737487791,25.127729415893555,-45.81306076049805,-5.62611198425293,-4.825204849243164,2.4817848205566406,111.9809112548828,-54.639591217041016,44.893157958984375,-2.713386058807373,-1.856337547302246,2.921515464782715,151.17208862304688,-70.78245544433594,129.3262939453125,-2.742222785949707,1.830087423324585,1.6433515548706057
1562.9661185741425,-176.6474609375,-64.86683654785156,-130.9093475341797,-5.538675308227539,-0.9204497337341307,7.567531585693359,-142.59375,-30.496524810791016,-78.99369049072266,5.317751884460449,7.810004234313965,-13.10861587524414,2.0356953144073486,29.77164459228516,-41.514122009277344,-4.593692779541016,-4.116768836975098,-4.251955986022949,119.51171112060548,-66.37249755859375,43.49884414672852,-0.1083014160394668,-7.32129955291748,1.2588748931884766,160.41317749023438,-71.20008087158203,123.05503845214844,-1.6458756923675537,2.721353054046631,-3.731473445892334
1562.9971480369568,-176.90184020996094,-71.99009704589844,-134.4423065185547,-7.672492980957031,-9.529251098632812,4.141706466674805,-137.552978515625,-34.04403305053711,-87.31999206542969,1.717179298400879,3.2054243087768555,-15.180303573608398,15.716395378112791,32.93135452270508,-37.901344299316406,-5.180919647216797,-2.1815710067749023,-6.94057559967041,136.6797332763672,-78.21324157714844,27.384843826293945,1.0986261367797852,-9.13326644897461,-0.664118766784668,168.83665466308594,-69.49114227294922,117.00474548339844,2.3211874961853027,3.7229433059692383,-8.58397102355957
1563.0264608860016,177.06338500976562,-76.4532241821289,-133.3628692626953,4.324163436889648,-5.488824844360352,-6.27457332611084,-132.2679443359375,-38.98347091674805,-96.65878295898438,1.9275116920471191,-0.84792160987854,-11.466148376464844,26.99418830871582,34.44921875,-35.24668884277344,-2.81460952758789,-0.663848876953125,-6.508749008178711,-148.91795349121094,-83.75565338134766,-49.61568832397461,2.597576141357422,-8.264957427978516,-2.371861934661865,170.41624450683594,-68.09105682373047,115.97644805908205,3.91909122467041,2.937626838684082,-9.809856414794922
1563.056459903717,176.78173828125,-78.61074829101562,-127.31597137451172,9.65376091003418,-5.447665214538574,-8.371614456176758,-122.41492462158205,-45.46452713012695,-109.20924377441406,-2.5633974075317383,-4.74503231048584,-7.650606155395508,35.42325210571289,35.705047607421875,-35.40451431274414,-1.2092812061309814,-1.753953218460083,-6.4676713943481445,-100.90208435058594,-77.81439971923828,-99.0259246826172,2.768760681152344,-5.370779991149902,-6.166781425476074,167.93972778320312,-68.72380065917969,117.8393325805664,0.251600444316864,-1.0265288352966309,-8.826282501220703
1563.086627244949,-178.7418212890625,-81.21271514892578,-124.75001525878906,1.7479753494262695,-0.9262708425521852,-8.832244873046875,-108.75739288330078,-52.05834579467773,-126.86957550048828,-11.133777618408203,-8.194990158081055,-0.0724201202392578,41.57276153564453,37.44374465942383,-38.968223571777344,0.8032047748565674,3.041098117828369,-4.952404022216797,-85.12012481689453,-72.87470245361328,-112.65186309814452,3.4317727088928223,-4.122627258300781,-6.503762245178223,164.52935791015625,-69.90410614013672,120.77246856689452,-1.3306162357330322,-1.6878902912139893,-9.89333724975586
