Timestamp,D4:22:CD:00:05:5D_EulerX,D4:22:CD:00:05:5D_EulerY,D4:22:CD:00:05:5D_EulerZ,D4:22:CD:00:05:5D_FreeAccX,D4:22:CD:00:05:5D_FreeAccY,D4:22:CD:00:05:5D_FreeAccZ,D4:22:CD:00:05:5E_EulerX,D4:22:CD:00:05:5E_EulerY,D4:22:CD:00:05:5E_EulerZ,D4:22:CD:00:05:5E_FreeAccX,D4:22:CD:00:05:5E_FreeAccY,D4:22:CD:00:05:5E_FreeAccZ,D4:22:CD:00:05:6B_EulerX,D4:22:CD:00:05:6B_EulerY,D4:22:CD:00:05:6B_EulerZ,D4:22:CD:00:05:6B_FreeAccX,D4:22:CD:00:05:6B_FreeAccY,D4:22:CD:00:05:6B_FreeAccZ,D4:22:CD:00:05:6E_EulerX,D4:22:CD:00:05:6E_EulerY,D4:22:CD:00:05:6E_EulerZ,D4:22:CD:00:05:6E_FreeAccX,D4:22:CD:00:05:6E_FreeAccY,D4:22:CD:00:05:6E_FreeAccZ,D4:22:CD:00:49:AA_EulerX,D4:22:CD:00:49:AA_EulerY,D4:22:CD:00:49:AA_EulerZ,D4:22:CD:00:49:AA_FreeAccX,D4:22:CD:00:49:AA_FreeAccY,D4:22:CD:00:49:AA_FreeAccZ
458.08980774879456,179.14584350585938,-63.863712310791016,-126.35897827148438,1.4253151416778564,-0.8556414842605591,0.3180160522460937,-132.02377319335938,-61.46149826049805,-61.60310363769531,0.9111480712890624,-0.1589848399162292,-1.9292945861816408,-63.51845169067383,7.793403148651123,-31.57562255859375,14.54171371459961,-5.534897804260254,6.9947662353515625,138.96212768554688,-64.18233489990234,71.37751770019531,-6.029622077941895,-7.243115425109863,2.1768274307250977,143.31069946289062,-74.3650131225586,132.1005401611328,-5.9715728759765625,1.003948211669922,-0.7243967056274414
458.1005289554596,-179.86672973632812,-66.38269805908203,-126.8919906616211,1.979689359664917,-0.6805362701416016,0.0090045928955078,-113.50672149658205,-63.49665451049805,-79.32866668701172,-0.837792158126831,-1.9877841472625728,-4.890854835510254,-50.64425277709961,20.4542179107666,-33.845890045166016,10.812036514282228,-15.591876983642578,-2.140407085418701,141.73074340820312,-76.43584442138672,81.69921875,-1.9953737258911133,-13.524616241455078,-0.3987407684326172,145.52590942382812,-75.21012878417969,131.64280700683594,-4.623565673828125,0.8277690410614014,-0.7293815612792969
458.1545264720917,177.13973999023438,-53.91470718383789,-136.3347930908203,-0.0546261146664619,-0.6836665868759155,0.7807073593139648,-123.08667755126952,-49.94990539550781,-67.83335876464844,-1.3886847496032717,-0.3916603326797485,-2.3102474212646484,-53.82463455200195,10.43956184387207,-63.91484832763672,1.8020849227905276,-7.768894195556641,9.912546157836914,123.23216247558594,-53.56105422973633,8.210135459899902,-5.310036659240723,0.2399094104766845,3.340036392211914,155.50196838378906,-79.14201354980469,125.8840789794922,-2.832336902618408,0.1604255139827728,2.867624282836914
458.1844673156738,178.52671813964844,-56.51696395874024,-137.0065460205078,-0.2372147440910339,0.3647300004959106,1.101456642150879,-114.74532318115234,-52.65040588378906,-76.35811614990234,-1.515404462814331,-1.5348408222198486,-5.102131843566895,-41.288124084472656,16.020889282226562,-60.21051025390625,-2.086532592773437,-7.750225067138672,4.991937637329102,127.39894104003906,-44.88678741455078,14.244902610778809,-5.555466651916504,-0.3923016786575317,-1.0823564529418943,178.25799560546875,-81.37598419189453,105.57862854003906,-0.4683389663696289,-0.0326585918664932,1.7545881271362305
458.21439266204834,179.2007293701172,-60.0322151184082,-137.79653930664062,-0.3536542654037475,0.550889253616333,1.2394065856933594,-104.14800262451172,-56.24394989013672,-88.1619644165039,-2.8370232582092285,-2.1851963996887207,-5.013755798339844,-28.41142845153809,21.591665267944336,-57.54656600952149,-9.149126052856444,-3.594088554382324,-2.145957469940185,133.4957733154297,-38.90034484863281,20.45962905883789,-5.020611763000488,-3.658933639526367,-1.7741098403930664,-162.41807556152344,-82.09523010253906,88.35220336914062,-0.2027447819709777,0.354309618473053,-0.9168729782104492
458.2744357585907,179.0994110107422,-64.15955352783203,-138.79611206054688,-0.0814463347196579,-0.98686945438385,0.5134754180908203,-93.97029113769533,-59.40386199951172,-102.13362884521484,-5.804574966430664,-3.12369966506958,-4.639211654663086,-17.97308921813965,27.61959648132324,-55.04224395751953,-9.525186538696287,0.4572939872741699,-4.76218318939209,135.99249267578125,-34.428470611572266,28.41873359680176,-1.4790525436401367,-5.93281364440918,-1.115581512451172,-145.95538330078125,-82.02942657470703,73.53253173828125,0.4328638911247253,-1.301222562789917,-3.4041147232055664
458.3041698932648,178.4256591796875,-68.29026794433594,-140.1023712158203,-0.4697033166885376,-1.362565517425537,-0.9368820190429688,-85.9938735961914,-62.13615798950195,-116.4020767211914,-9.01458740234375,-3.7733654975891113,-3.649091720581055,-10.822836875915527,33.85955047607422,-52.20560836791992,-7.681110382080078,1.969809293746948,-5.8795166015625,135.38330078125,-31.286300659179688,36.94104766845703,-0.3694518804550171,-4.41934871673584,-3.3664588928222656,-133.26560974121094,-81.48548889160156,61.85484313964844,0.3775963187217712,-1.8445861339569087,-4.71678352355957
458.3344566822052,176.45925903320312,-71.57096099853516,-140.5344696044922,-0.3321210145950317,-2.960588932037353,-2.274470329284668,-80.99427032470703,-64.3768539428711,-128.8687744140625,-12.812932968139648,-0.3129733204841614,-2.115567684173584,-5.26301908493042,40.32086181640625,-51.776309967041016,-3.140010356903076,2.3015456199646,-7.088982582092285,134.76290893554688,-28.843196868896484,44.47775650024414,-0.5224589109420776,-3.646529197692871,-5.218958854675293,-124.62647247314452,-80.73787689208984,53.66925048828125,-0.0532594472169876,-1.5883588790893557,-5.403311729431152
458.3644571304321,173.0274200439453,-73.51559448242188,-138.8437042236328,-0.1045969128608703,-3.701174259185791,-2.7435083389282227,-82.0853271484375,-65.95458984375,-134.6040802001953,-13.71254539489746,3.483518600463867,-4.62313175201416,-2.549832820892334,47.12498092651367,-55.86259841918945,-1.9667654037475584,2.5183444023132324,-9.233819961547852,135.2258758544922,-26.7949333190918,50.370208740234375,0.5557315349578857,-3.975883007049561,-6.292827606201172,-116.05906677246094,-80.13382720947266,45.43414306640625,-1.1056973934173584,-0.9772865772247314,-6.3040618896484375
458.39466404914856,167.9679412841797,-73.57122039794922,-134.45533752441406,-3.3428916931152344,-3.7341556549072266,-2.973073482513428,-92.44217681884766,-67.10604095458984,-130.58822631835938,-17.253223419189453,6.321165084838867,-7.202397346496582,-7.9101786613464355,53.0672492980957,-67.09808349609375,1.1837177276611328,3.7654953002929688,-12.058948516845703,135.4241485595703,-24.96391868591309,54.428897857666016,2.091864109039306,-5.713336944580078,-6.521274566650391,-110.8782958984375,-79.8362808227539,40.85029983520508,-1.4162230491638184,-0.2080501019954681,-6.484786987304688
458.4241869449616,164.2581024169922,-71.70840454101562,-127.88912963867188,-2.6587977409362797,-2.1058130264282227,0.2911272048950195,-115.9632797241211,-66.9948959350586,-113.9483413696289,-20.53015518188477,1.114519119262695,-6.6264495849609375,-27.235397338867188,54.67095565795898,-89.28398132324219,0.2336563467979431,-0.2654411196708679,-16.726356506347656,133.58746337890625,-23.290939331054688,56.14816665649414,3.326230525970459,-6.741084098815918,-6.864221572875977,-109.2598876953125,-79.92725372314453,39.29043197631836,-1.216533660888672,-0.5410345792770386,-4.259246826171875
458.4541883468628,161.13296508789062,-69.14019012451172,-122.78441619873048,-1.242163896560669,3.3094348907470703,0.3410291671752929,-141.81246948242188,-65.33394622802734,-92.43791961669922,-0.9818128347396852,-12.379880905151367,-2.263298988342285,-48.30249786376953,46.91754531860352,-114.99527740478516,-22.787166595458984,-15.869325637817385,-22.418437957763672,130.05088806152344,-21.887378692626957,54.85163879394531,5.305584907531738,-5.572842597961426,-5.198760986328125,-104.92675018310548,-80.6456527709961,34.37261962890625,-0.1926902830600738,-0.3475706577301025,-0.1638288497924804
458.48430824279785,157.33364868164062,-67.09010314941406,-118.54420471191406,1.126157522201538,1.2778501510620115,1.3357362747192385,-151.3138885498047,-65.14817810058594,-76.6492691040039,-7.355105400085449,-16.520675659179688,-0.7729177474975586,-48.32627868652344,35.63112258911133,-133.09228515625,-4.837823867797852,-21.09486389160156,-22.85626602172852,124.42074584960938,-21.234041213989254,51.92852020263672,9.108007431030272,-3.1724853515625,-2.4377384185791016,-98.49002838134766,-81.33907318115234,27.71265411376953,-1.0882899761199951,-1.9436211585998533,3.691009521484375
458.5144782066345,152.0809326171875,-66.35871887207031,-113.23825073242188,-0.8099939823150635,1.280944585800171,2.4575767517089844,-164.0227508544922,-62.563289642333984,-64.17086029052734,14.87580108642578,0.6188451051712036,12.40044403076172,-54.32955932617188,39.11152648925781,-127.57117462158205,0.9247150421142578,17.85684585571289,18.16907501220703,118.78510284423828,-22.515974044799805,50.18896865844727,15.167104721069336,2.1353678703308105,-0.5237894058227539,-94.03617095947266,-81.84888458251953,24.02664566040039,-4.324653625488281,-1.115429162979126,5.375826835632324
458.5749609470368,144.16917419433594,-66.77326965332031,-104.34466552734376,0.5494434833526611,2.0155396461486816,2.327108383178711,-177.32957458496094,-59.15032577514648,-56.5339469909668,3.237694263458252,4.35854434967041,0.4210062026977539,-44.53598403930664,43.945762634277344,-103.22464752197266,-26.20638656616211,-21.62686920166016,-9.013715744018556,117.40645599365234,-25.92141532897949,49.73085784912109,12.165307998657228,5.548413276672363,1.3825693130493164,-96.02272033691406,-82.6429672241211,26.86384391784668,-0.3788495063781738,-1.0840373039245603,2.594050407409668
458.6040287017822,133.2102813720703,-68.10894012451172,-92.7676010131836,4.451737403869629,-3.1685237884521484,2.846843719482422,175.1559295654297,-58.60840606689453,-47.93685531616211,1.532071590423584,-5.299188613891602,4.067083358764648,-22.73893547058105,38.29883193969727,-79.81024932861328,-7.343569755554199,5.207368850708008,-17.452125549316406,118.58839416503906,-30.090925216674805,49.81098937988281,7.643871307373047,5.440875053405762,1.9308271408081052,-100.95710754394533,-82.35137176513672,33.112281799316406,4.085370063781738,-0.625420093536377,2.698683738708496
458.63402700424194,111.4992218017578,-72.1020278930664,-76.52256774902344,5.207847595214844,0.077933594584465,2.224919319152832,168.7870330810547,-58.727840423583984,-40.30387496948242,-0.883063793182373,-2.6399588584899902,0.5190849304199219,-12.984249114990234,25.081300735473636,-62.953914642333984,-7.149127960205078,4.0481367111206055,-7.309124946594238,117.7754135131836,-33.460086822509766,50.429317474365234,4.466305732727051,7.379626274108887,1.023453712463379,-103.40206909179688,-81.4066390991211,36.41390228271485,9.07110595703125,3.46340274810791,1.5471372604370115
458.6642775535584,98.1028823852539,-73.24327087402344,-71.17317962646484,16.241653442382812,7.288302421569824,0.4239635467529297,162.7495880126953,-58.99783706665039,-35.0036735534668,-0.0764735043048858,-1.9964032173156736,-0.3469524383544922,-8.20853328704834,9.57302951812744,-49.71414566040039,-1.2903623580932615,4.978775024414063,-8.267263412475586,115.52766418457033,-35.90285110473633,50.88679122924805,1.5963122844696045,8.525632858276367,-1.2976207733154297,-109.6808624267578,-80.8982162475586,41.83422088623047,11.884332656860352,-0.0214010290801525,-0.5306520462036133
458.694582939148,113.24085998535156,-68.53173828125,-91.49795532226562,27.826175689697266,2.420717716217041,6.44450569152832,158.9814910888672,-59.71043014526367,-32.78725051879883,0.90418803691864,-2.555060863494873,-0.6026554107666016,-10.740857124328612,-5.572803497314453,-34.451568603515625,8.773721694946289,1.5384931564331057,-4.966175079345703,116.00907135009766,-37.98200225830078,51.62336349487305,1.2591266632080078,8.54057502746582,-0.7072591781616211,-114.10752868652344,-80.51044464111328,45.6158447265625,5.402549743652344,-1.648820161819458,1.113664627075195
458.7252759933472,134.23284912109375,-56.55892562866211,-111.81558990478516,13.148548126220703,-0.8493928909301758,9.243776321411133,156.0105438232422,-60.164337158203125,-31.6672306060791,3.452192783355713,-1.392193078994751,-0.4783706665039062,-22.859590530395508,-16.081905364990234,-17.4151554107666,9.89719581604004,19.79578399658203,-7.033177375793457,119.21316528320312,-40.33588790893555,53.17936325073242,0.8001443147659302,6.733692169189453,-0.0087900161743164,-114.7439422607422,-80.4806900024414,45.954925537109375,3.415922164916992,1.2026221752166748,0.2488670349121093
458.7552809715271,145.5812225341797,-43.14612579345703,-123.44043731689452,1.8439805507659912,-4.618207931518555,0.3227596282958984,154.83261108398438,-60.22681427001953,-31.01067543029785,3.358675003051758,-2.3290905952453613,-1.6779308319091797,-50.70241165161133,-21.662973403930664,-3.7702956199646,-1.750793218612671,-3.8956007957458496,-4.055521011352539,122.80583190917967,-42.773719787597656,55.032936096191406,0.3991178274154663,3.313599109649658,-0.5814924240112305,-117.74703979492188,-80.6802978515625,48.48804473876953,5.929013252258301,2.05635929107666,-2.3808436393737797
458.7844586372376,153.2799530029297,-31.06083869934082,-130.88270568847656,-4.683942794799805,-1.9725768566131592,-8.658641815185547,154.83038330078125,-59.44500732421875,-31.12527084350586,2.9610109329223637,-1.9262001514434812,-1.2002573013305664,-62.45502471923828,-24.914426803588867,2.8360748291015625,-13.8670654296875,-8.719841003417969,17.37091827392578,125.41658782958984,-44.7072639465332,56.60588073730469,0.608803391456604,0.9974737167358398,-3.229043960571289,-121.7171859741211,-81.49402618408203,51.94314956665039,2.02492094039917,1.5644080638885498,-2.62966251373291
458.8141179084778,159.2300567626953,-22.464433670043945,-136.60055541992188,-7.696225166320801,5.674153327941895,-15.374914169311523,156.14662170410156,-57.622352600097656,-32.49103546142578,1.671311378479004,-3.297041416168213,-2.406780242919922,-54.24158477783203,-29.47195243835449,4.504946708679199,-3.8105783462524414,1.2284891605377195,-6.046384811401367,128.02029418945312,-45.59523391723633,57.79007339477539,0.902488112449646,-0.456554114818573,-5.6599836349487305,-123.4587173461914,-82.36256408691406,53.78324890136719,-2.260782241821289,1.245485782623291,-2.494246006011963
458.8744235038757,159.865478515625,-18.53803062438965,-141.3369903564453,-5.144562721252441,7.562263488769531,-5.801308631896973,158.16627502441406,-54.5517578125,-35.15449905395508,1.9315860271453855,-2.193622589111328,-1.7946748733520508,-52.82900619506836,-36.47797775268555,5.161116600036621,3.2434144020080566,-0.1522172689437866,-9.449701309204102,130.73583984375,-45.69736099243164,58.733009338378906,2.8961949348449707,-1.8979978561401367,-3.936634063720703,-115.03370666503906,-82.22423553466797,46.54656600952149,-0.9901506900787354,1.1504030227661133,-6.33094596862793
458.90415477752686,156.85289001464844,-20.078872680664062,-143.97067260742188,-16.86074447631836,1.16141939163208,-17.054027557373047,160.64321899414062,-50.81482696533203,-38.07350158691406,-0.758661150932312,-2.046830654144287,-0.9040517807006836,-58.17156219482422,-48.45582962036133,4.527879238128662,8.516107559204102,-4.009598731994629,2.662604331970215,131.73715209960938,-45.800537109375,60.135841369628906,3.030369758605957,-3.020670890808105,0.4900922775268554,-108.72537231445312,-80.87643432617188,41.61173629760742,4.149906158447266,0.8562220335006714,-7.293485641479492
458.9341597557068,156.13783264160156,-25.675642013549805,-142.48667907714844,-15.982364654541016,-5.452804565429688,-16.801727294921875,162.32565307617188,-47.49211120605469,-40.13994598388672,2.623270034790039,-1.1553277969360352,1.072474479675293,-58.888710021972656,-66.60967254638672,-3.176227569580078,18.150150299072266,-3.52923583984375,44.16761016845703,128.87501525878906,-45.39380645751953,62.48099899291992,3.5817413330078125,-3.932075500488281,3.2567434310913086,-107.81105041503906,-79.5694808959961,41.05662155151367,4.686234474182129,-0.541761040687561,-5.640844345092773
458.96420764923096,166.0556182861328,-29.21058464050293,-141.8099365234375,-14.920482635498049,10.152864456176758,26.559799194335938,162.5333709716797,-45.05840301513672,-40.78641128540039,1.506216049194336,-1.288590431213379,1.6238508224487305,-31.55375289916992,-75.02440643310547,-27.227916717529297,-11.856657028198242,-14.061338424682615,18.989524841308597,124.06826782226562,-42.206634521484375,67.6830825805664,3.4511404037475586,0.1189238578081131,4.025372505187988,-107.1647491455078,-78.84474182128906,40.081974029541016,-4.140625953674316,-2.409751892089844,0.8048095703125
458.99396800994873,167.44639587402344,-29.43176651000977,-140.03488159179688,-24.581809997558597,0.792738676071167,5.526113510131836,162.23863220214844,-43.81058883666992,-40.64861297607422,1.6306531429290771,-1.139173984527588,1.4388046264648438,-49.10618591308594,-65.82581329345703,-0.4627213180065155,18.47754669189453,7.424230575561523,6.430086135864258,122.29573059082033,-36.0477409362793,73.15512084960938,6.283011436462402,4.721099853515625,12.112165451049805,-107.55392456054688,-78.03181457519531,40.32624816894531,1.7881336212158203,2.274265766143799,6.38104248046875
459.025116443634,167.54904174804688,-27.175020217895508,-138.45761108398438,-17.695545196533203,-13.286964416503906,5.2967939376831055,161.75389099121094,-43.77876663208008,-40.80734634399414,1.1665880680084229,-1.3754503726959229,1.1592416763305664,-63.4848518371582,-48.31926727294922,11.805173873901367,11.549297332763672,-1.96319580078125,25.891849517822266,122.54300689697266,-29.548799514770508,77.87470245361328,14.354619979858398,-5.261370658874512,20.173755645751957,-119.24666595458984,-77.18695068359375,50.4600944519043,7.102527618408203,-0.1542038023471832,6.754150390625
459.0542633533478,165.40672302246094,-23.612865447998047,-139.22340393066406,-14.01772117614746,-11.349321365356444,11.126611709594728,160.81968688964844,-44.73590850830078,-41.08876800537109,1.8416643142700195,-1.205028772354126,0.7902011871337891,-65.09717559814453,-33.77143859863281,10.575393676757812,20.507999420166016,1.623758316040039,-2.569291114807129,119.0064697265625,-20.77081298828125,79.91548156738281,13.660148620605469,-8.661746978759766,20.12950134277344,-123.0033187866211,-77.66973114013672,52.31395721435547,5.597311019897461,2.3059959411621094,7.966045379638672
459.0852646827698,161.07601928710938,-20.23070335388184,-141.74598693847656,-13.55982780456543,-7.812594413757324,5.310555458068848,159.231689453125,-46.30916213989258,-40.715946197509766,3.446967601776123,-0.7334933280944824,0.6401185989379883,-69.71204376220703,-23.029640197753903,4.178722858428955,7.791571617126465,-6.654393196105957,-2.430633068084717,111.72661590576172,-6.894174098968506,79.08140563964844,8.441017150878906,-3.183014392852783,14.19174575805664,-128.6298065185547,-78.07914733886719,54.87930679321289,4.564458847045898,3.740203857421875,4.543002128601074
459.1148056983948,157.87196350097656,-19.520771026611328,-144.1344757080078,-11.95677375793457,-2.1165504455566406,-4.686270713806152,156.65274047851562,-48.25969696044922,-39.31424331665039,3.665583610534668,-0.8384793996810913,0.9847097396850586,-70.88983154296875,-18.200902938842773,-3.958161354064941,0.3462169170379638,-4.690670967102051,-4.206583023071289,103.0281219482422,8.989381790161133,76.35238647460938,2.576147556304932,7.550052642822266,10.435745239257812,-137.5876922607422,-78.0282974243164,59.677711486816406,3.9265217781066895,2.8011035919189453,1.9104738235473635
459.17433524131775,156.92140197753906,-20.869253158569336,-147.5201416015625,-1.4747698307037354,1.3767106533050537,2.576186180114746,153.49635314941406,-50.54766845703125,-37.1169319152832,3.888880252838135,-2.436893939971924,2.8053417205810547,-72.53583526611328,-18.547019958496094,-12.184855461120604,-0.4713783264160156,-4.161760330200195,-1.197467803955078,93.28023529052734,24.71714973449707,72.82894897460938,-0.88002610206604,10.534172058105469,0.086395263671875,-144.83119201660156,-78.55604553222656,63.40660095214844,2.25622034072876,0.6720455884933472,2.8182573318481445
459.2044146060944,155.66082763671875,-25.11627197265625,-152.8329620361328,-4.223450660705566,2.490941047668457,-6.277005195617676,151.007080078125,-52.83295822143555,-34.196144104003906,3.3303422927856445,-5.455404281616211,1.7510852813720703,-72.40522003173828,-22.86094856262207,-20.770967483520508,-3.864675045013428,-3.1240453720092773,-1.520771026611328,81.9312515258789,39.5918083190918,67.33985137939453,-2.9156723022460938,11.90833854675293,-3.582554817199707,-151.9859619140625,-79.15743255615234,67.46390533447266,0.7972708940505981,1.425161600112915,1.378437042236328
459.2346391677856,154.179931640625,-31.756855010986328,-158.18919372558594,-5.20938777923584,5.853608131408691,-6.411040306091309,150.1569366455078,-54.99034118652344,-31.53666305541992,2.294668674468994,-1.7793428897857666,-1.3956832885742188,-72.04662322998047,-29.674945831298828,-29.15087127685547,-5.136509895324707,0.1702401638031005,-2.053670883178711,63.38043212890625,53.14334487915039,56.43358612060547,-9.503702163696287,9.259145736694336,-10.219440460205078,-157.88746643066406,-79.30816650390625,71.55656433105469,2.091580390930176,0.0021123089827597,-1.3327608108520508
459.2646410465241,154.12200927734375,-39.95336151123047,-161.65834045410156,-5.861521720886231,6.957242012023926,-5.158395767211914,149.33316040039062,-57.30572509765625,-29.835594177246094,0.059861347079277,-1.3190505504608154,-2.3092408180236816,-71.79679107666016,-37.46455764770508,-37.19874954223633,-5.308220863342285,1.252309799194336,0.1498594284057617,35.9472541809082,61.7934455871582,37.33692169189453,-4.70463752746582,-1.6544561386108398,-13.094846725463867,-161.967529296875,-79.1913070678711,74.3496322631836,3.3740806579589844,-1.5643541812896729,-0.979933738708496
459.2947306632996,153.30377197265625,-50.32427978515625,-162.19882202148438,-2.722137928009033,3.362311363220215,-4.740815162658691,148.46530151367188,-59.632511138916016,-28.46735191345215,-0.0627679079771041,-0.8175487518310547,-2.677476406097412,-70.1512222290039,-45.24655532836914,-45.32171249389648,-4.860159873962402,2.5971570014953613,-1.2639341354370115,9.502058029174805,64.9106674194336,16.668420791625977,0.8916703462600708,-3.5854239463806152,-8.295778274536133,-164.9165802001953,-79.58451843261719,76.11367797851562,2.195340156555176,0.009611727669835,-1.888871192932129
459.3243911266327,151.1610870361328,-62.1801986694336,-159.27386474609375,-2.810829162597656,2.27871322631836,-3.1098008155822754,148.59207153320312,-61.72138214111328,-27.574127197265625,0.2384979724884033,0.7606284618377686,-3.703263282775879,-68.34867858886719,-51.79243469238281,-53.53158950805664,-3.903191566467285,3.97455358505249,-1.5391712188720703,-7.663758277893066,66.20999145507812,4.1280198097229,4.149421691894531,-6.119444847106934,-3.941354751586914,-167.35560607910156,-80.26251983642578,77.37964630126953,1.721297264099121,0.2481557428836822,-4.749354362487793
459.3545618057251,145.0950469970703,-74.35478210449219,-148.64608764648438,-1.840463399887085,-1.85588812828064,1.0343713760375977,150.4954833984375,-63.544708251953125,-27.70588493347168,1.120096206665039,1.095189332962036,-3.869217872619629,-67.42906951904297,-56.505897521972656,-61.39506149291992,-3.8667855262756343,4.764408111572266,-3.298592567443848,-12.006148338317873,69.07415771484375,2.4962732791900635,7.572323799133301,-7.649002075195312,-2.2418212890625,-169.44979858398438,-80.7149658203125,78.25543975830078,1.3461496829986572,-0.4339017271995544,-6.031030654907227
459.3845691680908,103.02560424804688,-83.04875946044922,-97.2022705078125,8.499393463134766,-1.789764165878296,6.258655548095703,154.6315155029297,-64.60233306884766,-30.366382598876957,-0.9777616262435912,-3.060032844543457,-4.486720085144043,-65.06391143798828,-59.84893035888672,-68.40441131591797,-3.092405319213867,6.486506462097168,-4.023361206054688,4.045439720153809,74.71822357177734,17.544105529785156,5.1582536697387695,-7.001819610595703,-5.419511795043945,-169.8393096923828,-81.33679962158203,78.24116516113281,0.8183058500289917,-0.2185092866420745,-5.078612327575684
459.4144670963288,62.01369857788086,-78.70195770263672,-43.29505920410156,19.320144653320312,-0.8050974607467651,-5.248223304748535,159.19696044921875,-64.43362426757812,-36.06494140625,1.2592744827270508,-2.129239082336426,-1.927201747894287,-60.97166442871094,-62.143890380859375,-74.37498474121094,-0.4241278171539306,5.077783584594727,-6.013434410095215,54.55947113037109,76.4956283569336,71.12630462646484,-0.4822389483451843,4.41014575958252,-10.014837265014648,-166.70889282226562,-82.43091583251953,75.86160278320312,0.1410338282585144,-0.9947324991226196,-5.518557548522949
459.4746158123016,76.18724822998047,-74.02251434326172,-43.35194778442383,17.556835174560547,11.254964828491213,-13.32713508605957,164.22113037109375,-64.58627319335938,-41.81769180297852,1.1437883377075195,-3.271584987640381,2.8431529998779297,-59.05561828613281,-63.731292724609375,-78.38461303710938,0.849077582359314,4.825582504272461,-7.306538581848144,91.86795806884766,63.46061325073242,114.33611297607422,2.566206455230713,14.40802001953125,-30.503990173339844,-162.45166015625,-82.86809539794922,73.64042663574219,0.0763251930475235,-1.7626361846923828,-6.124090194702148
459.5042281150818,100.40583801269533,-71.39649963378906,-59.56255722045898,9.99933624267578,14.239044189453123,0.1827974319458007,169.3828582763672,-66.02835845947266,-46.657020568847656,6.032882690429688,-3.554708957672119,7.46965217590332,-58.33111572265625,-65.22959899902344,-80.07886505126953,1.351637601852417,6.372767448425293,-5.872796058654785,117.2124252319336,47.92652130126953,128.42466735839844,-12.437936782836914,8.560855865478516,-25.453269958496094,-161.03956604003906,-82.74493408203125,74.62427520751953,2.4716429710388184,-0.2023729681968689,-1.065089225769043
459.53437542915344,108.75094604492188,-70.88744354248047,-72.040283203125,-0.4697321057319641,-10.164506912231444,1.451435089111328,174.8147735595703,-68.34263610839844,-51.803443908691406,5.648931503295898,-3.9179587364196777,5.811059951782227,-56.05401992797852,-67.39519500732422,-80.2784194946289,-0.0276832580566406,6.087329864501953,-3.012301445007324,136.75857543945312,47.63131332397461,130.79420471191406,5.078142166137695,14.645347595214844,14.856891632080078,-166.7526092529297,-82.87137603759766,81.551025390625,5.94788932800293,1.0655195713043213,3.549642562866211
459.5644974708557,116.15414428710938,-71.79679870605469,-85.58782196044922,3.5523648262023926,-9.266408920288086,2.265201568603516,-177.62738037109375,-71.78901672363281,-57.6606559753418,0.9523998498916626,-11.150152206420898,4.518108367919922,-53.99531936645508,-70.90382385253906,-79.73226928710938,-1.997802972793579,2.9492411613464355,1.7894210815429688,137.3700714111328,56.85183334350586,130.9376678466797,-2.3318066596984863,9.615278244018556,-4.447415351867676,-170.92059326171875,-81.62262725830078,86.18565368652344,5.868409156799316,-1.200184345245361,5.578334808349609
459.5945174694061,126.31392669677734,-72.95845794677734,-100.79324340820312,-7.097063064575195,-1.2903013229370115,8.379369735717773,-172.12066650390625,-73.58937072753906,-61.678466796875,-18.54551315307617,-6.22435474395752,-2.518122673034668,-57.35142517089844,-76.44270324707031,-76.21101379394531,-1.0377943515777588,-2.538670539855957,11.338338851928713,142.85105895996094,69.73287200927734,129.94374084472656,-4.733142852783203,4.821640968322754,-4.909804344177246,-173.77249145507812,-79.91595458984375,89.54383087158203,2.3837437629699707,-3.614920139312744,5.371034622192383
459.6240456104279,139.08473205566406,-71.91152954101562,-113.78448486328124,0.5049703121185303,-4.074543952941895,-0.9768877029418944,-173.42800903320312,-69.5406723022461,-58.383602142333984,-23.76871490478516,17.109210968017578,12.528215408325195,-67.65766143798828,-81.73243713378906,-69.87606811523438,3.0092248916625977,4.983231544494629,11.590620040893556,116.17923736572266,84.63783264160156,99.5172882080078,-8.76872444152832,17.040740966796875,-5.449831008911133,-174.9101104736328,-79.07212829589844,92.71700286865234,-6.7448272705078125,-0.7959671020507812,1.208806037902832
459.6541452407837,149.15579223632812,-71.39371490478516,-124.53439331054688,2.694100856781006,3.222470283508301,-1.054765701293945,-175.2061767578125,-60.19796752929688,-52.215911865234375,-16.71438217163086,0.5170377492904663,9.03878402709961,-81.85081481933594,-85.28258514404297,-54.74639892578125,-3.3358540534973145,3.014155387878418,5.003072738647461,2.824059247970581,75.22774505615234,-12.651053428649902,-3.350044250488281,-5.2152099609375,-2.6439309120178223,-174.3511199951172,-76.74275970458984,95.21581268310548,-9.140377044677734,1.5219125747680664,-3.2374367713928223
459.6841478347778,155.6521453857422,-70.97510528564453,-131.67552185058594,3.097485065460205,-1.1480374336242676,1.032602310180664,-177.56951904296875,-48.56149673461914,-45.580352783203125,-6.0350446701049805,-3.7893357276916495,0.8142414093017578,-97.16461944580078,-86.03572845458984,-32.78986740112305,-5.02022647857666,-3.18164587020874,-0.168766975402832,-2.5371310710906982,57.76205062866211,-19.738086700439453,-1.1374850273132324,-6.003692626953125,-7.088007926940918,-173.26123046875,-74.16325378417969,97.74842071533205,-3.2474403381347656,0.3406042456626892,2.429753303527832
459.7147722244263,160.68263244628906,-70.64697265625,-136.3291015625,1.5320463180541992,-2.359580039978028,0.241124153137207,-178.47222900390625,-37.56166458129883,-39.13822937011719,0.1376597881317138,-2.6504626274108887,-5.379695892333984,-109.90731811523438,-85.7147216796875,-16.460628509521484,-4.634729385375977,-7.242937088012695,-1.9777631759643557,-2.977581024169922,41.51303482055664,-23.531343460083008,5.478282928466797,-13.763824462890623,-5.032349586486816,-173.56594848632812,-73.85404205322266,99.79187774658205,0.95004403591156,2.281528949737549,3.1306772232055664
459.7748713493347,163.87049865722656,-70.47554779052734,-137.8226776123047,1.3296759128570557,-0.4407152533531189,0.8449420928955078,-178.3069610595703,-28.437042236328125,-33.07654571533203,2.2553839683532715,-2.1692824363708496,-10.33588409423828,-124.6537094116211,-86.10338592529297,-4.909536838531494,-4.640289306640625,-5.523577690124512,-3.2434487342834477,8.849573135375977,29.409114837646484,-27.31574249267578,-1.3055155277252195,-19.71171188354492,-2.92397403717041,-176.01840209960938,-73.60102844238281,102.9967041015625,-3.3702526092529297,2.96254825592041,2.2023305892944336
459.8044748306274,166.07936096191406,-70.6873550415039,-138.3346710205078,-0.0457334294915199,0.7290140390396118,0.5783176422119141,-179.2967529296875,-22.18905067443848,-27.421676635742188,4.80028247833252,-0.6414583921432495,-11.60418701171875,-151.62208557128906,-87.2907943725586,15.40016746520996,-6.499635696411133,-1.3784730434417725,-1.956441879272461,31.320816040039062,22.14065170288086,-28.516996383666992,-0.8982758522033691,0.7942218780517578,-12.499347686767578,-177.74404907226562,-74.04853057861328,105.99551391601562,-3.9720520973205566,1.5834577083587646,1.9639997482299805
459.8347067832947,168.561767578125,-71.2219009399414,-139.88079833984375,-0.6126154661178589,1.311324119567871,0.3796243667602539,177.4835205078125,-19.16982650756836,-22.24434471130371,6.102005958557129,-2.0420241355896,-7.6814470291137695,144.4903106689453,-87.43501281738281,74.55240631103516,-4.469596862792969,1.65824294090271,-0.22686767578125,47.89961624145508,15.820581436157228,-26.719207763671875,4.012021064758301,1.3925387859344482,-5.711018562316895,-179.95956420898438,-75.01927185058594,109.41094207763672,-2.048178195953369,1.409937858581543,-0.2613496780395508
459.8647050857544,171.1537628173828,-71.6626205444336,-142.05711364746094,-0.6235604286193848,-0.1600548326969146,-0.2339057922363281,174.23785400390625,-20.091896057128903,-17.782089233398438,13.614791870117188,-2.3952431678771973,-11.379461288452148,109.1373519897461,-85.39381408691406,107.45804595947266,-2.7863669395446777,2.442617893218994,-1.1643285751342771,60.11809539794922,9.02928066253662,-23.107149124145508,4.440049171447754,-3.1845474243164062,-5.119658470153809,174.79010009765625,-76.33306884765625,115.5531997680664,-0.9792075157165528,0.7126758098602295,-2.70735502243042
459.8947923183441,173.17324829101562,-71.69869995117188,-143.12339782714844,0.1196482628583908,-1.8906478881835935,-0.6649770736694336,173.0929718017578,-25.50821304321289,-13.988001823425291,14.780235290527344,1.3378102779388428,-9.367557525634766,99.03851318359376,-84.27491760253906,114.7683563232422,-1.8888230323791504,2.283623695373535,-2.741600513458252,72.12686920166016,1.7333800792694092,-16.59491539001465,8.408090591430664,1.4317247867584229,-4.0917158126831055,165.6116943359375,-77.61602020263672,124.92147064208984,-1.2068090438842771,-0.2458701729774475,-4.709954261779785
459.9244089126587,174.22723388671875,-71.19609069824219,-142.8978729248047,-0.2799177765846252,-1.2353062629699707,-0.6714324951171875,175.902099609375,-28.6624698638916,-12.193839073181152,12.620445251464844,-1.1940279006958008,6.717752456665039,94.20851135253906,-85.34149932861328,116.1457290649414,-0.3607106208801269,4.05112361907959,-3.2636537551879883,81.03662109375,-8.466368675231934,-5.974693298339844,15.577735900878906,2.630778789520264,2.67531681060791,151.4191131591797,-78.23200225830078,139.06410217285156,-1.6150665283203125,-1.2999379634857178,-4.534087181091309
459.9544742107392,174.24789428710938,-69.71070098876953,-141.02198791503906,-0.7172888517379761,-2.900582790374756,-1.538996696472168,173.96005249023438,-30.93155288696289,-11.425920486450195,11.635580062866213,0.1517143845558166,-3.221860885620117,73.98136138916016,-87.96500396728516,134.04513549804688,-0.0962669849395752,5.611623764038086,-3.1400256156921387,82.81131744384766,-22.71973991394043,8.008831977844238,25.03129196166992,8.767658233642578,16.42406463623047,136.37826538085938,-77.62568664550781,154.1040496826172,-1.1859123706817627,-0.3072232604026794,-4.928860664367676
459.9844779968262,174.40562438964844,-67.1043930053711,-137.4845733642578,0.6592288017272949,0.369462788105011,-0.0718574523925781,174.4167022705078,-32.23065948486328,-9.887331008911133,16.555011749267578,-4.949495315551758,0.8384056091308594,-45.32194900512695,-87.03984832763672,-109.19049835205078,-0.1429052352905273,3.289031505584717,-1.3749780654907229,69.8905258178711,-33.72259521484375,18.85020637512207,3.990053176879883,15.765655517578123,26.566558837890625,130.85585021972656,-76.3518295288086,159.8247833251953,0.9050885438919068,2.278648376464844,-4.669167518615723
460.0142402648926,173.8232421875,-63.89704132080078,-134.61172485351562,-0.4423310160636902,0.4798241853713989,-0.4660329818725586,174.9278106689453,-31.0942325592041,-10.07296371459961,16.336536407470703,-0.5409082174301147,5.877509117126465,-60.62982940673828,-81.4499740600586,-98.04248809814452,-2.6845192909240723,8.125358581542969,3.5428009033203125,72.3121109008789,-30.201847076416016,9.573529243469238,21.02336883544922,-16.329761505126953,-8.989463806152344,130.5225067138672,-75.11119842529297,160.4088592529297,3.882119655609131,2.1448745727539062,0.3817691802978515
460.0741555690765,173.94546508789062,-60.5343132019043,-133.6759490966797,-1.588202714920044,2.6590652465820312,0.9395780563354492,175.69264221191406,-27.463851928710938,-12.323690414428713,16.05695343017578,-7.86091423034668,6.101344108581543,-66.92208099365234,-74.08008575439453,-93.65644073486328,-5.48621940612793,6.002457618713379,6.003653526306152,87.34898376464844,-19.238676071166992,-1.227226495742798,19.811397552490234,7.153958320617676,18.071102142333984,131.34239196777344,-74.25552368164062,158.67428588867188,-2.324169635772705,0.0095254518091678,4.47899055480957
460.1049242019653,174.0716094970703,-58.6241340637207,-134.70706176757812,0.1197801381349563,1.618274450302124,1.5847225189208984,178.04747009277344,-23.25222587585449,-15.108054161071776,20.45527648925781,-6.936118125915527,2.520912170410156,-75.72632598876953,-64.06820678710938,-86.76932525634766,-4.001799583435059,9.35706901550293,11.453290939331056,91.10627746582033,-6.584540843963623,-6.667274951934815,24.24453353881836,0.4207465648651123,-3.922518730163574,136.3991241455078,-73.95065307617188,154.22035217285156,-4.377534866333008,-0.5404572486877441,4.669734954833984
460.13392901420593,173.5815887451172,-58.20214080810547,-136.06777954101562,1.3344435691833496,0.5272396802902222,1.3127365112304688,179.44232177734375,-21.72047615051269,-18.09420585632324,13.379398345947266,-5.563802719116211,-7.491153717041016,-82.47659301757812,-51.80553817749024,-79.74584197998047,-6.528459548950195,14.906549453735352,14.258142471313477,97.19873809814452,4.578993320465088,-6.504372596740723,15.141984939575195,3.609218597412109,-9.90996551513672,143.64959716796875,-74.24164581298828,148.18812561035156,-1.817138433456421,1.197070598602295,7.7798309326171875
460.1640775203705,173.4463653564453,-58.23963165283203,-136.63232421875,1.2416517734527588,-0.2403767704963684,0.6748485565185547,-178.54676818847656,-21.24375343322754,-20.493091583251957,9.545333862304688,0.7473046779632568,-0.9924907684326172,-89.37803649902344,-36.34823226928711,-72.90708923339844,3.3339476585388184,8.243331909179688,8.104415893554688,106.00577545166016,11.278651237487791,-1.445443034172058,5.697970390319824,6.453853607177734,-7.429030418395996,147.4546356201172,-74.77727508544922,144.5527801513672,-0.7725429534912109,3.275688648223877,5.990233421325684
460.1956086158752,174.2810516357422,-58.56137847900391,-136.70872497558594,0.7479411363601685,1.1368260383605957,1.0712947845458984,-175.54002380371094,-24.24545669555664,-23.4764404296875,7.648100852966309,1.892488718032837,-5.658124923706055,-96.49027252197266,-17.917678833007812,-69.96390533447266,12.011486053466797,10.069513320922852,17.425464630126953,114.04070281982422,11.363031387329102,6.775559902191162,2.002621650695801,3.265540599822998,-4.327034950256348,148.9000701904297,-75.14405059814453,142.41836547851562,-2.609809875488281,1.4464428424835205,4.3248796463012695
460.2243008613586,175.58091735839844,-59.45178985595703,-136.64329528808594,0.6175161600112915,0.3530009388923645,1.3994169235229492,-171.40353393554688,-30.36469841003418,-26.868867874145508,4.110505104064941,0.0160081088542938,-5.421285629272461,-92.30963897705078,1.2401654720306396,-71.0090103149414,9.50031852722168,-6.389137268066406,15.85883903503418,118.95638275146484,5.273369789123535,16.459857940673828,1.394744873046875,1.182779312133789,-2.635369300842285,149.5570068359375,-75.30682373046875,141.85223388671875,-5.417793273925781,1.989201307296753,4.497748374938965
460.25451254844666,176.62393188476562,-61.69440078735352,-136.6601104736328,1.1244604587554932,0.8988096714019775,1.8384361267089844,-166.72589111328125,-39.03253555297852,-30.311368942260746,1.7372169494628906,-1.2387166023254397,-4.298806190490723,-84.16712188720703,19.11136245727539,-72.9400405883789,-1.6686420440673828,-13.967483520507812,4.621105194091797,121.21453857421876,-5.003608226776123,26.53060913085937,-0.4455563426017761,0.7807148694992065,-0.7682723999023438,146.94883728027344,-75.6680908203125,145.466064453125,-3.4001622200012207,1.6315088272094729,3.877089500427246
460.2845139503479,176.8966522216797,-65.36393737792969,-136.34190368652344,-0.7948563098907471,1.5880062580108645,2.301605224609375,-164.2421112060547,-48.56468963623047,-33.95097732543945,-0.5151273012161255,-3.8215413093566895,-2.085623264312744,-75.72918701171875,33.943397521972656,-73.54556274414062,-8.657646179199219,-12.95149040222168,1.725677490234375,121.32225799560548,-17.068174362182617,36.05138397216797,-1.6157925128936768,-0.607420802116394,-1.0530643463134766,143.40191650390625,-76.84539794921875,150.18280029296875,-2.443902969360352,-0.0602575242519378,-0.0940151214599609
460.3147358894348,176.70028686523438,-69.41167449951172,-135.583740234375,-0.9659304618835448,-1.0031285285949707,3.9427003860473633,-165.686279296875,-57.3174934387207,-37.55509948730469,-2.66611385345459,-3.456496238708496,1.1835432052612305,-65.35430145263672,44.92017364501953,-70.63038635253906,-13.061882019042969,-6.444159507751465,-2.757199764251709,121.10406494140624,-28.917631149291992,45.363243103027344,0.5930052995681763,-2.318173885345459,0.6496849060058594,143.9336700439453,-77.82361602783203,151.2921600341797,-2.764590263366699,-1.6436824798583984,-3.960360527038574
460.374252319336,175.8992462158203,-72.95431518554688,-136.32139587402344,-1.6003785133361816,-0.7844266891479492,0.4576730728149414,-169.43002319335938,-64.95572662353516,-41.39641952514648,-4.827939033508301,-1.884540557861328,2.176793098449707,-51.944583892822266,51.86288833618164,-63.425758361816406,-8.758670806884766,-1.5456702709197998,-7.608719825744629,117.98908996582033,-39.431671142578125,55.598670959472656,-0.3436486721038818,-4.636668205261231,2.687752723693848,147.4891815185547,-78.48746490478516,149.6273651123047,-1.6816308498382568,-0.7045872211456299,-4.717327117919922
460.4047718048096,173.01478576660156,-75.72830200195312,-135.94497680664062,-0.2114222347736358,0.2835908532142639,-3.310980319976806,-171.01206970214844,-70.87383270263672,-47.57097625732422,-4.624885559082031,1.928403615951538,0.5985183715820312,-38.96205139160156,55.65464019775391,-57.125221252441406,-3.139660358428955,-0.0680432319641113,-9.693769454956056,109.81446075439452,-48.81386566162109,65.9298324584961,-1.9546558856964111,-4.050357818603516,-1.8154754638671875,148.9823455810547,-78.81109619140625,148.83944702148438,1.1917765140533447,0.4317842125892639,-5.705783843994141
460.43478083610535,167.81533813476562,-77.67753601074219,-132.1979217529297,1.3148469924926758,1.4557104110717771,-5.220076560974121,-165.20156860351562,-74.92526245117188,-58.51270294189453,-8.431392669677734,1.6400246620178225,-2.991708278656006,-30.71782684326172,57.92584991455078,-56.92411804199219,-1.3543624877929688,2.9865407943725586,-10.591629028320312,103.58775329589844,-56.76377868652344,74.37771606445312,-1.0970067977905271,-3.181124687194824,-5.487385749816895,147.07286071777344,-79.11835479736328,150.15843200683594,1.275693655014038,-0.6364554166793823,-7.090611457824707
460.4643805027008,160.1033477783203,-78.49755096435547,-125.23880004882812,2.680826187133789,0.0727458149194717,-5.0553083419799805,-159.8448486328125,-76.14878845214844,-68.99336242675781,-9.607175827026367,2.118041038513184,-4.055975914001465,-29.541597366333008,58.7082633972168,-63.64760971069336,-0.1363734006881714,4.169121742248535,-10.150405883789062,102.38232421875,-63.34407806396485,78.26394653320312,-0.5273650884628296,-5.05515193939209,-5.403647422790527,143.3345489501953,-79.54479217529297,153.08538818359375,-0.3722365498542785,-1.0528428554534912,-7.854677200317383
460.4944612979889,154.69039916992188,-77.58207702636719,-119.38427734375,4.003820419311523,-5.397015571594238,-4.466813087463379,-161.29066467285156,-73.68482208251953,-72.59253692626953,-13.91465950012207,10.751913070678713,0.8480110168457031,-35.2971305847168,57.710296630859375,-77.73606872558594,2.65615463256836,1.0268361568450928,-9.728958129882812,103.68698120117188,-69.01882934570312,75.94340515136719,0.0911919921636581,-5.598483085632324,-3.552152156829834,139.2303924560547,-79.61825561523438,156.8502655029297,-2.026449203491211,-1.4627125263214111,-6.238507270812988
