Timestamp,D4:22:CD:00:05:5D_EulerX,D4:22:CD:00:05:5D_EulerY,D4:22:CD:00:05:5D_EulerZ,D4:22:CD:00:05:5D_FreeAccX,D4:22:CD:00:05:5D_FreeAccY,D4:22:CD:00:05:5D_FreeAccZ,D4:22:CD:00:05:5E_EulerX,D4:22:CD:00:05:5E_EulerY,D4:22:CD:00:05:5E_EulerZ,D4:22:CD:00:05:5E_FreeAccX,D4:22:CD:00:05:5E_FreeAccY,D4:22:CD:00:05:5E_FreeAccZ,D4:22:CD:00:05:6B_EulerX,D4:22:CD:00:05:6B_EulerY,D4:22:CD:00:05:6B_EulerZ,D4:22:CD:00:05:6B_FreeAccX,D4:22:CD:00:05:6B_FreeAccY,D4:22:CD:00:05:6B_FreeAccZ,D4:22:CD:00:05:6E_EulerX,D4:22:CD:00:05:6E_EulerY,D4:22:CD:00:05:6E_EulerZ,D4:22:CD:00:05:6E_FreeAccX,D4:22:CD:00:05:6E_FreeAccY,D4:22:CD:00:05:6E_FreeAccZ,D4:22:CD:00:49:AA_EulerX,D4:22:CD:00:49:AA_EulerY,D4:22:CD:00:49:AA_EulerZ,D4:22:CD:00:49:AA_FreeAccX,D4:22:CD:00:49:AA_FreeAccY,D4:22:CD:00:49:AA_FreeAccZ
2303.2812011241917,170.2352294921875,-50.90484237670898,-96.0092315673828,0.2002006471157074,1.6742689609527588,-0.6532020568847656,-144.07762145996094,-53.27225112915039,-54.035640716552734,-1.1788737773895264,-22.023468017578125,10.769100189208984,-78.58675384521484,-80.06498718261719,-34.12177276611328,-7.691533088684082,23.267986297607425,10.711383819580078,112.0055923461914,-40.598289489746094,18.355134963989254,21.987091064453125,-7.744622230529785,4.197108268737793,149.87298583984375,-74.30782318115234,140.90753173828125,-0.7860230207443237,-2.4420084953308105,3.999030113220215
2303.285194158554,170.69631958007812,-48.48497772216797,-90.4512176513672,5.592724800109863,2.005609035491944,1.0190973281860352,-139.76722717285156,-48.80400848388672,-52.44205474853516,-0.8813003301620483,-15.965105056762695,13.547258377075195,-70.13521575927734,-73.49490356445312,-41.2142219543457,-15.408374786376951,15.87213134765625,4.606447219848633,107.87918853759766,-39.26881790161133,19.41716766357422,14.292490005493164,2.520918846130371,3.645929336547852,149.48609924316406,-73.2757339477539,142.69488525390625,-0.3597306609153747,0.4071111679077148,7.859661102294922
2303.290201663971,-99.58367156982422,-68.57386016845703,-150.8373565673828,0.5611046552658081,-0.6830645799636841,-0.3887672424316406,-144.77471923828125,-42.1846923828125,-46.51424407958984,4.589695930480957,-3.335470676422119,6.65655517578125,-69.51653289794922,-62.15408706665039,-98.89973449707033,-0.4302498698234558,-0.8845276832580566,-8.454782485961914,101.47503662109376,-36.59339141845703,26.451005935668945,16.018325805664062,14.42681121826172,-2.3636512756347656,150.41046142578125,-71.62481689453125,142.20335388183594,-2.120280742645264,-0.1907906532287597,8.974592208862305
2303.336201906204,-142.50408935546875,-73.07884216308594,-95.39169311523438,-0.9525718688964844,1.4701042175292969,-0.1541967391967773,176.28857421875,-37.35766220092773,-51.14964294433594,3.470160961151123,-14.994699478149414,-8.744741439819336,-77.45811462402344,-48.95830535888672,-109.26677703857422,1.0034074783325195,3.664091110229492,-7.273699760437012,80.22166442871094,-64.5372314453125,27.8962516784668,3.0798354148864746,-6.384197235107422,23.474639892578125,-142.54612731933594,-65.79924774169922,55.578224182128906,1.5440940856933594,-0.1840971112251281,-0.8300161361694336
2303.36621594429,-157.924560546875,-68.296875,-78.87911224365234,-4.414031028747559,2.5183262825012207,-0.7257862091064453,156.2045135498047,-53.35123062133789,-38.35346603393555,17.493515014648438,-11.055152893066406,5.684317588806152,-83.38652801513672,-39.24799346923828,-111.0978546142578,2.733327388763428,5.875238418579102,1.0307321548461914,46.40772247314453,-66.4277572631836,50.09941482543945,10.051164627075195,-0.7535444498062134,17.506160736083984,-144.74441528320312,-68.99901580810547,57.47640609741211,4.345844268798828,-0.4346727728843689,-1.0157670974731443
2303.3957526683807,-166.18258666992188,-63.78143310546875,-70.38373565673828,-5.391030311584473,1.1533958911895752,1.122206687927246,103.83465576171876,-79.4226303100586,12.016324043273926,6.387144088745117,3.6035022735595694,18.2888298034668,-85.07413482666016,-29.234073638916016,-111.90220642089844,14.21286392211914,-14.947761535644531,16.01968765258789,-16.261547088623047,-68.00550079345703,97.98681640625,19.1499137878418,-2.9686203002929688,16.443988800048828,-156.5084991455078,-70.62250518798828,67.70130157470703,5.039531707763672,3.210515022277832,3.5738773345947266
2303.425751686096,-169.88189697265625,-60.6110725402832,-66.65140533447266,-4.526332855224609,0.6811134815216064,0.649958610534668,53.34177780151367,-83.40435791015625,68.51306915283203,-5.846824645996094,4.353693962097168,16.822677612304688,-77.51316833496094,-21.5603141784668,-116.2850112915039,13.00209617614746,-2.533262252807617,19.588817596435547,-39.36888122558594,-56.81418991088867,127.57897186279295,0.1236147284507751,8.330930709838867,14.566242218017578,-169.77716064453125,-69.41117858886719,80.60709381103516,7.428727149963379,-2.322427749633789,9.681640625
2303.456755876541,-170.50186157226562,-58.87054061889648,-66.53413391113281,-3.846980094909668,0.7006098031997681,1.2133636474609375,108.33223724365234,-88.16624450683594,16.62448501586914,-3.652315139770508,5.357353210449219,16.546707153320312,-74.5166244506836,-10.303518295288086,-116.82732391357422,10.385793685913086,-3.85192346572876,29.035236358642575,-38.61043167114258,-50.51584243774414,136.62261962890625,-9.71149444580078,18.168087005615234,3.8527660369873047,178.8268585205078,-67.99344635009766,90.88169860839844,4.07127571105957,-0.1200041025876998,12.675756454467772
2303.486289978028,-169.41958618164062,-58.62913513183594,-68.19818115234375,-1.285644769668579,2.1313838958740234,1.4886846542358398,-173.7901153564453,-82.12030029296875,-63.51943588256836,-11.388315200805664,5.898983001708984,14.46429443359375,-63.55038833618164,3.64092755317688,-113.3580322265625,1.3089280128479004,-9.270309448242188,29.591182708740234,-41.11428451538086,-51.1102294921875,144.2931365966797,-13.072219848632812,17.499523162841797,5.540047645568848,170.41455078125,-68.00872039794922,98.17253875732422,0.3204768896102905,1.8936209678649905,8.014724731445312
2303.516290187836,-166.60153198242188,-60.24510955810547,-70.93927764892578,-2.756474494934082,2.3525123596191406,2.490205764770508,-178.6576385498047,-75.62657165527344,-63.06327438354492,-1.145944356918335,7.491352081298828,6.3965911865234375,-45.41202545166016,17.29068946838379,-106.2956085205078,-6.853769302368164,-12.081775665283203,12.78426742553711,-40.32292556762695,-52.46357345581055,152.2799835205078,-18.80270767211914,14.419851303100586,-1.720250129699707,167.64471435546875,-69.80982971191406,101.17271423339844,0.7279270887374878,1.574312448501587,7.719404220581055
2303.575843334198,-162.0784912109375,-63.91721725463867,-75.78752899169922,-4.405280113220215,0.3712572455406189,4.351537704467773,-175.3743438720703,-73.95721435546875,-67.26205444335938,3.468503475189209,4.638487815856934,-4.477090835571289,-26.510168075561523,27.20388984680176,-97.89830780029295,-6.242919921875,-12.52547836303711,2.132012367248535,-37.207279205322266,-52.93605422973633,160.94735717773438,-22.640613555908203,8.227701187133789,-9.402910232543944,168.32672119140625,-71.19918060302734,101.78205871582033,-1.8579564094543457,1.441458225250244,6.604970932006836
2303.605843782425,-156.84185791015625,-69.36602783203125,-82.6242446899414,-5.023994445800781,-5.134589195251465,7.287208557128906,-164.37606811523438,-76.81407928466797,-78.63296508789062,7.830881118774414,1.393667697906494,-11.194238662719728,-8.406026840209961,33.6715202331543,-91.24575805664062,-5.457772254943848,-7.144473075866699,-5.045026779174805,-33.41940689086914,-53.97102355957031,169.6877899169922,-17.88332748413086,1.197608470916748,-9.563325881958008,172.73745727539062,-72.91433715820312,99.36875915527344,-2.117366313934326,1.8081848621368408,0.2678680419921875
2303.6358478069305,-152.949462890625,-75.4999771118164,-92.38236236572266,0.083370104432106,-5.391910552978516,1.4793024063110352,-131.52035522460938,-81.34760284423828,-112.06207275390624,6.501797676086426,-1.2773933410644531,-9.998571395874023,5.2663774490356445,37.73023223876953,-85.44751739501953,-6.469089508056641,-2.811439037322998,-7.194927215576172,-28.76882553100586,-55.64685821533203,177.85960388183594,-12.792146682739258,-3.802381038665772,-11.209041595458984,-177.9304962158203,-73.65702819824219,92.65089416503906,-2.1325812339782715,0.7436939477920532,-4.934392929077148
2303.665863990784,-156.87118530273438,-79.03378295898438,-86.39868927001953,3.234881401062012,0.6557393074035645,-5.1002302169799805,-66.2627182006836,-80.12372589111328,-178.48019409179688,5.849935531616211,0.7136787176132202,-9.339414596557615,15.190262794494627,40.04221725463867,-80.79271697998047,-7.658220291137695,-0.9115993976593018,-8.090322494506836,-25.894933700561523,-57.47940826416016,-175.20883178710938,-8.15011978149414,-7.410898208618164,-12.749841690063477,-169.84288024902344,-73.21881103515625,86.94793701171875,1.4097154140472412,1.102329969406128,-9.428043365478516
2303.696392774582,-170.2779998779297,-80.48876190185547,-68.24313354492188,2.6341724395751958,0.5699496269226074,-7.50455379486084,-35.00553894042969,-71.11005401611328,148.75587463378906,0.5926958322525024,3.6374664306640634,-11.445449829101562,21.946292877197266,42.0642204284668,-79.14822387695312,-4.403275489807129,1.932511568069458,-9.959224700927734,-26.77894401550293,-59.01570892333984,-168.47311401367188,-3.228774070739746,-6.904620170593262,-11.697246551513672,-165.04434204101562,-72.91746520996094,83.34461975097656,3.458254814147949,2.4914889335632324,-9.737020492553713
2303.725393772125,169.5692596435547,-82.06761169433594,-44.26133346557617,4.237363815307617,-4.54896354675293,-8.000768661499023,-26.529150009155277,-60.8355598449707,135.46690368652344,-5.915731430053711,9.360004425048828,-11.57713508605957,26.822376251220703,45.44448471069336,-82.23308563232422,-0.6244645118713379,2.8616738319396973,-11.70195198059082,-29.51858901977539,-59.90341567993164,-162.77049255371094,-0.3361358642578125,-5.779684066772461,-10.84845733642578,-159.04074096679688,-74.21507263183594,77.72888946533203,2.230386257171631,0.3604684472084045,-8.790355682373047
2303.7564079761505,159.82302856445312,-82.56974792480469,-33.88145446777344,-7.355642318725586,15.044864654541016,-6.620838165283203,-30.795185089111328,-52.88048553466797,128.88592529296875,-15.707786560058594,13.241371154785156,-11.563739776611328,28.105987548828125,50.78488540649414,-91.98280334472656,5.3548736572265625,2.5219712257385254,-9.521306991577148,-31.13475799560547,-60.22866439819336,-158.64102172851562,1.0837352275848389,-5.916584014892578,-9.357099533081056,-151.47601318359375,-75.15361785888672,71.30049896240234,0.2077048420906067,-1.5739543437957764,-7.04090690612793
2303.7856001853943,155.24569702148438,-79.48229217529297,-28.92193031311035,2.2014269828796387,2.779592037200928,-5.674077987670898,-40.829811096191406,-48.58671569824219,126.38358306884766,-6.415915489196777,17.60223388671875,-10.736713409423828,20.87168884277344,55.9124755859375,-112.1766128540039,3.7573633193969727,1.064382553100586,-10.76518440246582,-30.8904972076416,-60.00086975097656,-156.1775665283203,0.3366355895996094,-5.4379425048828125,-7.365510940551758,-143.08702087402344,-75.87467193603516,63.41608810424805,0.0945117771625518,-1.2866909503936768,-4.83641242980957
2303.830593585968,155.1503143310547,-76.37650299072266,-29.921600341796875,9.49924659729004,2.899548053741455,1.1597442626953125,-42.69713973999024,-47.47666549682617,124.79251861572266,-6.929970741271973,15.920690536499023,-13.42669677734375,1.879583716392517,55.755592346191406,-142.69273376464844,-4.253097534179688,-0.4516211748123169,-22.079029083251957,-30.97711753845215,-58.22051239013672,-153.9410400390625,-0.6582121849060059,-7.214701652526855,-4.743078231811523,-135.25575256347656,-77.2619400024414,54.24189758300781,0.3091117143630981,0.5376473665237427,-3.670609951019287
2303.8762431144714,155.40977478027344,-73.3395004272461,-29.62216186523437,-0.5053209066390991,-4.616598129272461,3.560641288757324,-44.12780380249024,-49.5181770324707,125.80025482177734,-5.747007369995117,13.31201171875,-10.76953125,-11.841235160827637,48.80877685546875,-170.04580688476562,-15.520498275756836,3.4650259017944336,-27.452869415283203,-32.65165328979492,-55.53377532958984,-151.29798889160156,-1.360466480255127,-8.215240478515625,-2.562187671661377,-130.6482391357422,-78.54657745361328,46.727638244628906,-0.455299437046051,0.9115034341812134,0.1574859619140625
2303.906315803528,154.32318115234375,-70.71569061279297,-26.47666549682617,-0.2602285146713257,-0.7199221849441528,3.929769515991211,-52.024227142333984,-53.93124771118164,132.19874572753906,-3.061546802520752,17.267932891845703,-9.07859230041504,-12.181779861450195,46.01487731933594,178.20672607421875,10.56182098388672,-4.932167053222656,-15.015325546264648,-35.76548385620117,-53.06248474121094,-147.8973388671875,-2.4018149375915527,-9.831689834594728,-0.7140951156616211,-131.95175170898438,-79.78192138671875,44.36601257324219,-4.67303466796875,-0.8165119886398315,5.074446678161621
2303.9363214969635,152.51922607421875,-69.55992126464844,-22.650287628173828,-2.36796236038208,-0.4684706330299377,3.931997299194336,-61.65758514404297,-58.20703125,140.264404296875,-8.601476669311523,0.1185485869646072,0.9744300842285156,-29.363269805908203,47.34937286376953,-169.07460021972656,-4.316340446472168,7.398053169250488,-1.7166080474853516,-40.44851303100586,-51.9492073059082,-144.0714569091797,-1.1000478267669678,-11.661447525024414,-1.723712921142578,-137.4861602783203,-81.58131408691406,47.05147933959961,-6.811927795410156,1.5866365432739258,3.971384048461914
2303.966320753097,148.6588897705078,-68.9538803100586,-18.983083724975582,0.7240089178085327,-1.779139280319214,3.708166122436523,-64.04264831542969,-61.82660675048828,144.7627716064453,-14.14340591430664,-9.108272552490234,0.3961610794067383,-31.074222564697266,49.24948120117188,-151.17930603027344,-12.144250869750977,1.6542868614196775,-7.114890098571777,-49.74777221679688,-52.42371368408203,-139.98316955566406,-0.9591079950332642,-15.22187614440918,-0.8204479217529297,-150.3379364013672,-83.01051330566406,58.24806594848633,-4.266193389892578,0.3265859484672546,2.989424705505371
2303.9958505630493,143.7750701904297,-68.42022705078125,-13.685575485229492,-1.7485020160675049,0.8633366823196411,1.3860492706298828,-64.96372985839844,-66.32200622558594,146.066650390625,0.9461008310317992,5.981753349304199,9.377470016479492,-23.01638603210449,45.94169998168945,-133.16539001464844,-9.011945724487305,2.587948799133301,-7.107778549194336,-62.32332611083984,-54.87677001953125,-137.5338592529297,-4.278544425964356,-10.579517364501951,-1.6005067825317385,-167.27610778808594,-83.22164916992188,73.83438873291016,-1.3788681030273438,-0.8565717935562134,1.4323043823242188
2304.0258481502533,135.0217742919922,-69.14990997314453,-6.0718092918396,0.227697879076004,1.314692497253418,3.664317131042481,-70.2711181640625,-69.67715454101562,151.57369995117188,-8.91059684753418,-0.9073575735092164,8.870807647705078,-17.39568519592285,37.33600997924805,-121.93136596679688,-7.065767288208008,4.67990779876709,3.1957931518554688,-77.63463592529297,-60.18205261230469,-135.38059997558594,-7.267791748046875,-3.202944278717041,-0.0938301086425781,-177.44088745117188,-83.70293426513672,82.7756576538086,-0.4345201253890991,0.8198190927505493,1.2807626724243164
2304.055863142013,118.46747589111328,-71.71039581298828,5.048825740814209,1.9915258884429927,4.530126571655273,1.042375564575195,-80.31330108642578,-73.63371276855469,158.7353973388672,-0.3435400724411011,5.305990219116211,0.2269563674926757,-15.534570693969728,26.42657852172852,-115.44972229003906,1.078371286392212,7.817710876464844,4.898358345031738,-96.23680877685548,-66.83318328857422,-129.89776611328125,-6.068970680236816,-0.0946016311645507,5.285978317260742,-179.87408447265625,-82.70572662353516,84.28889465332031,4.39622688293457,1.2635679244995115,-0.5003767013549805
2304.086398124695,110.3609390258789,-72.03382873535156,3.248332977294922,-4.779021263122559,19.67131805419922,0.0851364135742187,-77.48352813720703,-76.74833679199219,156.63194274902344,-5.603995323181152,4.710914611816406,0.1102170944213867,-16.24097442626953,12.79701805114746,-110.1466293334961,1.4825568199157717,11.121444702148438,-1.5684881210327148,-113.93018341064452,-72.48764038085938,-123.53829193115234,-4.584100723266602,-1.7742102146148682,3.78243350982666,-176.97471618652344,-80.72650909423828,81.45285034179688,7.3373565673828125,-0.6527044773101807,1.8291254043579104
2304.116398334503,119.73249053955078,-67.90277862548828,-17.090429306030273,3.9992032051086426,27.160789489746094,7.410087585449219,-65.82495880126953,-79.09062957763672,145.86236572265625,-3.0425615310668945,3.569094657897949,1.143415451049805,-16.152307510375977,-3.6650662422180176,-103.32359313964844,-1.981328248977661,3.1813526153564453,-8.794013977050781,-124.27477264404295,-74.28395080566406,-123.19974517822266,4.595512390136719,7.458315849304199,2.56917667388916,-177.3249969482422,-78.78614807128906,81.33724212646484,4.475717544555664,-0.5382093191146851,2.8026161193847656
2304.1759362220764,135.4057159423828,-57.680362701416016,-37.60762023925781,7.588970184326172,11.165630340576172,6.584709167480469,-41.62426376342773,-80.20216369628906,124.3504409790039,0.1837844252586364,2.8058648109436035,0.0389957427978515,-12.55014705657959,-20.54933738708496,-93.44374084472656,-3.434296131134033,-9.59788703918457,-3.2856221199035645,-123.26782989501952,-75.35418701171875,-125.0557098388672,-0.629482626914978,4.534987449645996,0.4005489349365234,-176.4564208984375,-77.4364013671875,80.09452056884766,2.509775161743164,0.4693664908409118,1.3095932006835938
2304.205935716629,145.15460205078125,-46.26559066772461,-50.98344802856445,6.566568374633789,-1.410146951675415,-3.8175649642944336,-29.063196182250977,-80.90072631835938,114.38819122314452,-3.1031274795532227,3.1998257637023926,-3.1123900413513184,-7.425549507141113,-33.11436462402344,-81.12722778320312,13.393377304077148,-6.449566841125488,0.2618532180786133,-115.4478988647461,-76.2655029296875,-127.91181182861328,-4.424530029296875,3.2512121200561523,-1.1313238143920898,-175.82290649414062,-77.0019760131836,80.0753402709961,4.097692489624023,-0.2496896684169769,-0.9734230041503906
2304.235939025879,151.31118774414062,-36.48308563232422,-59.45124435424805,3.644364356994629,-5.776578903198242,-11.335323333740234,-25.53272247314453,-82.14442443847656,112.71633911132812,-4.834556579589844,-0.1952772140502929,-3.2899904251098637,-17.383346557617188,-38.59120941162109,-70.03323364257812,13.931514739990234,6.043628692626953,-4.200313568115234,-108.69054412841795,-76.83271789550781,-131.5554656982422,-8.960464477539062,-0.4870177507400512,-3.682540416717529,-178.07388305664062,-76.84474182128906,82.99723052978516,2.760211944580078,0.0415475890040397,-1.9237451553344729
2304.2659544944763,156.84722900390625,-30.140430450439453,-65.33714294433594,0.1761264204978943,-5.296957015991211,-15.18670654296875,-35.89996337890625,-84.68573760986328,124.37590026855467,-6.229333877563477,-0.1414950788021087,-4.384831428527832,-34.124298095703125,-39.66927337646485,-64.57408142089844,-1.5532047748565674,2.236790657043457,-7.405316352844238,-106.39849853515624,-77.00096130371094,-133.29177856445312,-0.2194672524929046,-0.4242485761642456,-4.849132537841797,-179.27728271484375,-76.94417572021484,84.68783569335938,-0.548796534538269,0.6196882724761963,-5.724552154541016
2304.2964844703674,160.62310791015625,-27.67341423034668,-70.41349029541016,-1.4279146194458008,-3.540023803710937,-13.3292236328125,-88.54017639160156,-86.49021911621094,176.99319458007812,-2.5261683464050293,1.0368273258209229,-0.5584115982055664,-44.78076934814453,-39.51813125610352,-63.14003753662109,-11.49400520324707,2.564509868621826,-3.1447439193725586,-101.76453399658205,-77.55176544189453,-134.4265594482422,-1.4700567722320557,-1.9562196731567385,-6.086609840393066,-177.76547241210938,-77.04569244384766,84.28246307373047,-0.6174086332321167,1.7740931510925293,-7.074687004089356
2304.325484752655,160.92422485351562,-29.21623420715332,-75.10738372802734,-1.5885369777679443,-10.822246551513672,-16.09781265258789,-137.859619140625,-82.59363555908203,-135.29180908203125,-1.1282095909118652,5.811588287353516,-2.527820110321045,-43.756622314453125,-40.76711654663086,-64.79460144042969,-8.268436431884766,3.7040090560913086,-6.386224746704102,-94.11508178710938,-78.3916015625,-140.005615234375,-5.148937225341797,-4.6727399826049805,-5.37904167175293,-175.17587280273438,-77.24961853027344,82.7923812866211,1.8993723392486568,1.5053791999816897,-6.304455757141113
2304.3565142154694,160.4599151611328,-32.49951934814453,-79.05877685546875,-4.313933372497559,-3.510662078857422,13.920501708984377,-148.6820526123047,-76.1597671508789,-126.6105499267578,-3.770895004272461,1.2774643898010254,-0.2941722869873047,-36.956298828125,-45.52151107788086,-69.86095428466797,-3.7931509017944336,-0.9160107374191284,-8.855112075805664,-79.45331573486328,-80.04517364501953,-157.90306091308594,-10.5751953125,-8.906888961791992,-1.0110158920288086,-171.40475463867188,-77.2176742553711,78.72249603271484,6.152872085571289,2.068085193634033,-4.071531295776367
2304.3860244750977,156.57870483398438,-33.694942474365234,-80.21917724609375,-6.644792556762695,-16.742835998535156,3.383807182312012,-153.38070678710938,-69.40098571777344,-124.53215026855467,-1.3812472820281982,4.185514450073242,0.7954254150390625,-29.51425170898437,-56.85674285888672,-79.63590240478516,-2.3013834953308105,-13.20267105102539,2.0404930114746094,-29.77690315246582,-80.80608367919922,150.34275817871094,-8.35606575012207,-9.190040588378906,5.590288162231445,-169.7057342529297,-77.19532775878906,74.33409118652344,6.65786075592041,-2.2541046142578125,-0.7213144302368164
2304.4160239696503,156.63519287109375,-31.691062927246094,-78.0599594116211,-4.401961326599121,-16.781574249267578,17.905620574951172,-155.7557830810547,-64.5927505493164,-124.02919006347656,-1.196239709854126,2.1353025436401367,2.665196418762207,-10.800945281982422,-69.64615631103516,-104.2176742553711,-2.758089542388916,-14.141021728515623,62.91635894775391,11.987530708312988,-72.19391632080078,108.55255889892578,-6.329376220703125,-6.796713829040527,11.465696334838867,-169.35069274902344,-77.22447967529297,71.38993835449219,-5.993849754333496,-0.3609318137168884,4.831887245178223
2304.4765722751617,158.6477508544922,-25.6998291015625,-74.93072509765625,-1.1268877983093262,-16.116134643554688,12.929439544677734,-157.57666015625,-62.605712890625,-122.89643096923828,-0.362233817577362,2.909387588500977,2.0158863067626958,-21.346729278564453,-70.79700469970703,-100.41905975341795,21.035892486572266,-11.146100997924805,7.884279251098633,27.726299285888672,-58.10245132446289,96.61270904541016,-2.582996368408203,-9.29323387145996,16.14910888671875,-171.92544555664062,-77.19578552246094,72.23567962646484,-3.0156521797180176,-2.824867248535156,11.531558990478516
2304.5055718421936,162.1857452392578,-17.02100944519043,-73.38848114013672,7.540859222412109,-15.296228408813477,10.330778121948242,-159.98883056640625,-62.77183151245117,-120.73505401611328,-0.8704986572265625,3.1240453720092773,1.5860700607299805,-39.2953987121582,-62.829689025878906,-76.97840118408203,-9.479290008544922,-18.134201049804688,22.06919479370117,35.29612731933594,-42.60036087036133,88.47801971435547,-4.471209526062012,-8.954771041870117,10.631341934204102,-170.93197631835938,-76.9000473022461,71.32861328125,4.605544090270996,3.0406880378723145,6.284080505371094
2304.5365829467773,161.8828887939453,-9.334023475646973,-74.31813049316406,-2.88546085357666,-14.794151306152344,11.190576553344728,-162.2979736328125,-64.43770599365234,-118.6198272705078,-2.8392767906188965,4.035451889038086,0.6573371887207031,-35.54360580444336,-52.01512145996094,-69.99293518066406,7.134501457214356,-15.35564422607422,11.142803192138672,37.48698425292969,-27.643672943115234,79.30562591552734,3.3552260398864746,-12.917718887329102,11.863086700439451,-171.3420867919922,-75.78336334228516,71.95281982421875,5.819960594177246,-1.3477325439453125,7.683385848999023
2304.5665912628174,158.5027313232422,-4.017725944519043,-75.54747009277344,-2.842707633972168,-6.119800567626953,-0.3042430877685547,-163.4700469970703,-67.42243194580078,-118.34021759033205,-2.789419651031494,4.33122444152832,1.1106443405151367,-35.58213806152344,-45.185157775878906,-71.9317398071289,3.7230730056762695,-6.427742004394531,-0.7268686294555664,31.910274505615234,-13.305327415466309,71.14155578613281,-1.411069631576538,-5.99522876739502,11.953985214233398,-175.65139770507812,-75.4339828491211,75.90608978271484,5.462442398071289,0.5107961893081665,9.585704803466797
2304.59627532959,159.68020629882812,-2.304171323776245,-75.90523529052734,-5.639406204223633,-2.8091773986816406,-9.211555480957031,-163.23904418945312,-72.14826202392578,-120.16436767578124,-2.706915855407715,4.995951652526856,3.2525415420532227,-42.55635452270508,-42.50820541381836,-76.46556091308594,-4.976539611816406,-0.1342635154724121,-4.320305824279785,18.322677612304688,-1.462450385093689,64.97920989990234,-0.1819170713424682,-3.0493125915527344,5.551481246948242,178.88795471191406,-75.33583068847656,79.84297180175781,5.090277671813965,0.9925800561904908,9.735862731933594
2304.626364707947,162.1864776611328,-5.704843521118164,-75.24037170410156,-5.839425086975098,-2.425281524658203,-17.065013885498047,-157.3217010498047,-78.8172378540039,-127.76114654541016,-4.330537796020508,0.8781408071517944,10.01286506652832,-46.58090591430664,-44.89754486083984,-83.35575866699219,-4.506198883056641,3.9143667221069336,-2.3468241691589355,8.444356918334961,8.320369720458984,61.377174377441406,-7.679913520812988,0.4453012347221374,3.129732131958008,170.45370483398438,-75.96812438964844,85.92086791992188,4.0770111083984375,0.8098446130752563,6.141362190246582
2304.656378030777,161.22128295898438,-14.776460647583008,-74.4789810180664,-5.6164398193359375,-5.824888229370117,-19.87033462524414,-95.66856384277344,-86.18597412109375,171.8274383544922,-5.126387596130371,-6.5094757080078125,4.424527168273926,-46.30240249633789,-50.16310501098633,-92.47913360595705,-1.4740381240844729,3.6704182624816895,-3.097414016723633,10.05379867553711,16.725000381469727,58.701759338378906,-7.878299713134766,2.2072720527648926,-4.518160820007324,159.89584350585938,-76.54510498046875,94.42292022705078,0.2662466168403625,2.0268049240112305,-0.3128652572631836
2304.6859016418457,156.8498077392578,-28.56578063964844,-72.90901947021484,-0.408212661743164,-7.610949516296387,-16.256038665771484,-22.32757568359375,-84.3183822631836,104.33301544189452,3.5976457595825195,12.165306091308594,-10.429296493530272,-42.27607727050781,-56.35824966430664,-104.11286926269533,-1.3734707832336426,1.55828595161438,-6.738394737243652,24.652332305908203,24.48048591613769,54.8226318359375,-4.200608253479004,-0.2854987382888794,-6.891597747802734,149.36300659179688,-76.48701477050781,102.60824584960938,0.0877234041690826,0.8382368087768555,-6.528743743896484
2304.715901374817,153.51229858398438,-44.9232177734375,-70.19902801513672,2.55894136428833,-8.528312683105469,-8.444391250610352,-29.897329330444336,-85.4095687866211,112.0166244506836,-5.968467712402344,8.963388442993164,-10.083091735839844,-36.86754608154297,-62.114253997802734,-117.8171844482422,-1.5301640033721924,1.3329780101776123,-5.89964485168457,42.71236801147461,32.173641204833984,51.3833236694336,-0.2195062637329101,-1.546816110610962,-9.441287994384766,144.394775390625,-76.18942260742188,105.87775421142578,-0.1763256788253784,-0.7461308240890503,-9.847553253173828
2304.7764410972595,149.27333068847656,-63.82845306396485,-65.12037658691406,3.759336471557617,-5.646463394165039,7.057777404785156,-83.26698303222656,-87.03865814208984,158.8916015625,-1.6520490646362305,-2.7515010833740234,-10.60413932800293,-32.27693176269531,-63.58309173583984,-131.41578674316406,2.2077479362487797,6.3927001953125,-2.6837496757507324,49.62327575683594,37.95585250854492,49.808719635009766,-7.089910507202148,2.062363147735596,-7.637986183166504,143.4186248779297,-76.64395904541016,106.45694732666016,0.7637143135070801,0.6238056421279907,-11.265804290771484
2304.806447505951,118.080078125,-83.33767700195312,-33.11061096191406,3.7877492904663086,8.26738166809082,21.47338104248047,-84.78392028808594,-86.54991912841797,159.21328735351562,2.2940468788146973,-3.056698799133301,-7.394476890563965,-34.763065338134766,-62.38671112060547,-140.39390563964844,0.5297504663467407,2.3189496994018555,-7.52674674987793,43.0260124206543,40.35220336914063,49.94970703125,-7.190030097961426,-0.944040060043335,-9.7757568359375,139.53688049316406,-77.74376678466797,108.80435180664062,0.4786974787712097,0.1625296473503112,-10.274070739746094
2304.8354415893555,2.412564516067505,-77.1895980834961,85.44737243652344,6.264002799987793,21.138751983642575,6.922824859619141,-100.85584259033205,-85.95494842529297,177.26344299316406,-0.967660665512085,-0.5970896482467651,-2.209136486053467,-38.4124755859375,-60.7094955444336,-145.2704620361328,1.391693353652954,3.518385410308838,-8.52762222290039,35.153114318847656,40.19673538208008,53.70329666137695,-0.7352118492126465,-5.060880661010742,-9.746253967285156,132.5223846435547,-78.77172088623047,114.28776550292967,1.257080078125,0.2356151044368744,-11.588333129882812
2304.8656857013702,-1.276875615119934,-71.13420867919922,89.58030700683594,-14.085391998291016,18.75323486328125,-27.617111206054688,-133.85874938964844,-83.25508880615234,-154.4768829345703,-0.7941179275512695,1.3714418411254885,-2.3665428161621094,-36.99600982666016,-60.18206787109375,-148.26051330566406,1.591498851776123,2.824248790740967,-7.309098243713379,34.76632308959961,39.05877685546875,63.10372161865234,1.776562213897705,-0.7892926931381226,-6.961771011352539,130.7836151123047,-78.58240509033203,114.144287109375,1.8259146213531492,-3.021670341491699,-7.238319396972656
2304.8962206840515,3.929305076599121,-73.9696273803711,82.85424041748047,8.525190353393555,8.984792709350586,-7.275356292724609,-147.4678192138672,-78.83659362792969,-147.95285034179688,-0.9381321668624878,-0.998905062675476,-0.2489089965820312,-33.7510871887207,-61.64924621582031,-149.86099243164062,2.7730770111083984,2.917898178100586,-4.306730270385742,38.53397750854492,36.512813568115234,78.29289245605469,-2.3803858757019043,12.010128021240234,-15.139165878295898,136.97608947753906,-78.03253936767578,106.16677856445312,1.1490261554718018,-4.095919609069824,3.457191467285156
2304.92622089386,31.823644638061523,-78.75743865966797,61.23906707763672,0.5160393714904785,12.694583892822266,-2.193620204925537,-149.22195434570312,-75.09627532958984,-148.2771759033203,-10.365903854370115,0.5736222267150879,2.392545700073242,-30.43006134033203,-64.38567352294922,-150.94174194335938,2.0174808502197266,3.7872023582458496,-0.1544399261474609,40.80527114868164,33.75584030151367,94.43202209472656,-6.07009220123291,25.419788360595703,-16.44353485107422,138.7776641845703,-78.28854370117188,103.88912200927734,-2.446282863616944,2.2788238525390625,2.0399904251098637
2304.9562368392944,85.78692626953125,-81.560546875,13.485015869140623,-0.9305764436721802,12.399808883666992,8.698991775512695,-146.60955810546875,-72.60810089111328,-150.9413604736328,-1.9296083450317385,0.3493174314498901,6.491767883300781,-27.239097595214844,-67.33601379394531,-151.40969848632812,-1.0270068645477295,1.8458070755004885,1.053304672241211,44.93057632446289,34.636962890625,99.54269409179688,-4.507521629333496,-10.608068466186523,2.372502326965332,141.50990295410156,-78.32072448730469,101.7366943359375,0.9829909801483154,1.0182862281799316,0.0397367477416992
2304.985771417618,115.16252136230467,-81.58035278320312,-18.098438262939453,6.405842781066895,-4.679293632507324,2.1681222915649414,-141.44065856933594,-71.474609375,-155.52853393554688,-3.999725341796875,0.1144180595874786,7.285804748535156,-31.24335479736328,-70.85128784179688,-148.28184509277344,-3.103994846343994,-2.962033271789551,3.3611011505126958,45.726165771484375,37.95675277709961,90.31404113769533,-3.28017807006836,-1.089299201965332,-3.622129917144776,148.6107940673828,-78.84724426269531,97.01464080810548,3.2650837898254395,0.932835817337036,8.104564666748047
2305.015771150589,135.9584197998047,-81.33439636230469,-39.47858810424805,1.2608623504638672,-8.408842086791992,7.426305770874023,-132.4542999267578,-71.02566528320312,-161.28167724609375,-8.35866928100586,-2.79304838180542,6.90764045715332,-40.1811637878418,-75.42593383789062,-142.02711486816406,1.9906511306762693,4.276798248291016,10.875442504882812,44.510498046875,41.24863815307617,72.27748107910156,-10.936857223510742,7.190151214599609,-10.73011589050293,158.1410369873047,-78.60730743408203,91.55419921875,2.0247297286987305,-2.223078727722168,5.761618614196777
2305.0759773254395,148.7572479248047,-79.36947631835938,-47.24009704589844,-0.473473310470581,-5.926900863647461,7.21002197265625,-118.58704376220705,-70.41645812988281,-167.1211395263672,-11.522750854492188,-3.509530544281006,3.345279693603516,-49.632850646972656,-79.77401733398438,-132.5325927734375,0.5920257568359375,-5.112998008728027,11.24867057800293,39.39802169799805,39.8231086730957,49.47312927246094,-1.6016008853912354,7.881809234619141,-9.256982803344728,168.0393524169922,-77.66151428222656,85.92232513427734,-4.80851936340332,-2.6745147705078125,3.897300720214844
2305.105976343155,160.1866912841797,-78.11016845703125,-54.02234649658203,-3.061930656433105,2.751138687133789,0.1400146484375,-110.7234878540039,-68.92345428466797,-166.33038330078125,-11.249324798583984,19.18124389648437,-1.2070293426513672,-70.76033782958984,-81.1027603149414,-113.86669158935548,5.27293872833252,3.9531421661376953,6.204961776733398,36.18092727661133,32.39506912231445,31.095853805541992,-6.609048843383789,5.0145111083984375,-11.678316116333008,173.90988159179688,-76.64250946044922,86.02276611328125,-5.532641410827637,0.9626879692077636,-0.3999795913696289
2305.135975599289,167.45616149902344,-77.29621887207031,-61.00908660888672,0.4038664102554321,-1.454695463180542,0.5700912475585938,-116.2178726196289,-66.94375610351562,-155.04640197753906,-8.753555297851562,17.68198013305664,3.037408828735352,-81.84318542480469,-80.86670684814453,-95.73528289794922,-1.303258180618286,-1.9431040287017824,-0.5446538925170898,34.31058120727539,20.93173217773437,18.073406219482425,1.8918588161468504,-11.61872673034668,-7.822747230529785,177.15618896484375,-75.39934539794922,89.1716537475586,-0.7892844676971436,1.9769272804260252,-6.753937721252441
2305.165992498398,172.03550720214844,-76.03788757324219,-64.6408462524414,-1.960688591003418,-0.5876944065093994,1.223907470703125,-123.61559295654295,-63.63901901245117,-140.9662322998047,-7.416873931884766,13.543767929077148,-1.9756402969360352,-88.48306274414062,-79.88973999023438,-80.08728790283203,-4.965785980224609,0.2111732959747314,-2.005356311798096,41.29484176635742,9.807011604309082,12.08957576751709,8.059003829956055,-22.861167907714844,-5.870237350463867,-179.81321716308594,-73.61585998535156,90.44242095947266,3.4403305053710938,-1.881477117538452,0.9609899520874025
2305.197129011154,176.0111541748047,-75.05535888671875,-67.29381561279297,-1.696239948272705,1.1281259059906006,0.9418773651123048,-132.2000274658203,-58.70272445678711,-127.0328598022461,-6.474794387817383,9.55526351928711,-9.303974151611328,-93.96745300292967,-78.6743392944336,-68.311767578125,-5.49623966217041,2.5188655853271484,-0.6866817474365234,48.57210159301758,0.5460140705108643,11.714454650878906,0.306937575340271,-5.581656455993652,0.8207988739013672,-178.8636474609375,-72.63239288330078,91.8461685180664,2.505202293395996,2.948552131652832,1.6435537338256836
2305.2451293468475,179.6221923828125,-74.62752532958984,-70.64208221435547,-2.4355063438415527,0.0142916422337293,1.0293149948120115,-142.31509399414062,-53.01129531860352,-114.14738464355467,-2.919250965118408,7.401345252990723,-14.271001815795898,-96.9988021850586,-77.52318572998047,-62.45391845703125,-6.823195457458496,1.2062504291534424,-1.717386245727539,58.02643966674805,-6.883022785186768,11.040411949157717,-4.973293304443359,-0.215149313211441,-7.339147567749023,179.12184143066406,-70.60276794433594,94.91177368164062,-2.0150938034057617,4.083292007446289,0.5128335952758789
2305.2756803035736,-175.73399353027344,-74.47989654541016,-76.40249633789062,-2.6429543495178223,-1.1628100872039795,0.7172403335571289,-152.80662536621094,-47.34843063354492,-102.91455078125,3.367393493652344,3.979681968688965,-13.706748962402344,-99.7632293701172,-76.18023681640625,-59.58455657958984,-5.480136871337891,0.8751645088195801,-1.9735236167907717,75.07391357421875,-11.76832389831543,5.385059356689453,-10.932838439941406,6.086695671081543,1.1898565292358398,177.51072692871094,-69.5516357421875,97.1613311767578,-3.36579704284668,2.642497539520264,3.763944625854492
2305.2856845855717,-170.61293029785156,-74.14763641357422,-82.72212982177734,0.4327581524848938,-0.0282614231109619,-0.036015510559082,-160.70240783691406,-43.09437942504883,-94.2775650024414,3.703658103942871,1.9137890338897705,-12.59280014038086,-99.00563049316406,-75.21318054199219,-61.49125289916992,-0.1236145943403244,-0.2661710977554321,-0.5753917694091797,93.07833099365234,-13.969820022583008,-3.188053131103516,-9.461217880249023,1.8026225566864011,0.1216840744018554,175.14976501464844,-69.01919555664062,100.243896484375,-1.1596086025238037,3.2168092727661133,-1.3604660034179688
2305.315680027008,-168.6444549560547,-73.12887573242188,-85.79536437988281,3.220622062683105,-1.383021116256714,-1.1412687301635742,-167.9585418701172,-40.86045837402344,-87.07813262939453,1.6076085567474363,0.0558900237083435,-8.916570663452148,-87.88616943359375,-74.81440734863281,-72.94489288330078,-0.1287576854228973,-0.2056634724140167,-0.7758865356445312,109.76992797851562,-15.35048484802246,-12.20985507965088,-6.175324440002441,-0.0078086480498313,4.905190467834473,170.9612579345703,-68.25222778320312,104.56815338134766,-0.8503080606460571,2.564267158508301,-3.417076110839844
2305.3762214183807,-169.85057067871094,-71.24824523925781,-83.50890350341797,2.177302360534668,-1.5399763584136963,-0.5231266021728516,-174.3310546875,-41.69954299926758,-80.45587921142578,2.486782550811768,-3.383371353149414,-4.991056442260742,-73.35690307617188,-73.12498474121094,-88.69644165039062,-1.1674916744232178,-0.4112619757652282,-2.612966060638428,119.5203094482422,-17.811304092407227,-21.99766540527344,-2.5696582794189453,-4.4503173828125,2.8972883224487305,167.2572479248047,-67.6629409790039,108.10507202148438,-1.800842523574829,1.263922929763794,-3.6804041862487793
2305.4062271118164,-174.0938262939453,-68.37492370605469,-76.98941802978516,1.9690372943878172,-0.6548589468002319,-1.1344871520996094,-177.64768981933594,-47.14029693603516,-74.36114501953125,6.30787467956543,-13.184455871582031,-4.43373966217041,-61.96657180786133,-69.32039642333984,-102.5852508544922,-0.9985475540161132,1.0398643016815186,-3.66874361038208,124.52745056152344,-24.13984680175781,-32.120574951171875,2.2517194747924805,-5.394525527954102,-1.0863094329833984,164.66505432128906,-67.17059326171875,110.47865295410156,-1.166018009185791,1.7223069667816162,-4.158660888671875
2305.4362242221832,-179.92872619628906,-64.33708190917969,-69.03284454345703,2.5936880111694336,-2.098252296447754,-2.010857105255127,-174.9312286376953,-55.42073059082031,-69.01630401611328,-4.084550857543945,15.778358459472656,24.283477783203125,-56.88266372680664,-63.88539505004883,-111.44974517822266,-2.3364319801330566,1.543720245361328,-6.4300947189331055,126.61898803710938,-34.0075798034668,-43.80783081054688,1.6079566478729248,-10.834806442260742,6.256204605102539,161.6353759765625,-67.411376953125,113.0528793334961,-0.4380994439125061,1.1369562149047852,-3.766930103302002
2305.4663014411926,177.361572265625,-60.30657577514648,-62.567909240722656,0.6707030534744263,4.565623283386231,-0.7826833724975586,-175.3035125732422,-57.85375213623047,-66.59385681152344,6.995616912841797,-18.182453155517575,-2.522061824798584,-54.7945671081543,-58.60318756103516,-116.01242065429688,-2.11759090423584,3.970503807067871,-7.003863334655762,119.36891174316406,-46.56971740722656,-53.00884628295898,3.0411295890808105,-22.498432159423828,16.143070220947266,159.25994873046875,-68.00047302246094,115.1151351928711,-0.0180504582822322,0.0880010724067688,-3.1493406295776367
2305.4955899715424,175.2596893310547,-56.73600769042969,-58.679386138916016,0.7567125558853149,1.3687870502471924,1.190500259399414,-175.64442443847656,-58.984962463378906,-67.72241973876953,0.859370231628418,-12.538640975952148,7.9576416015625,-55.71905517578125,-53.11263656616211,-117.1886749267578,-1.4389684200286863,6.74088191986084,-1.1868419647216797,108.0233154296875,-56.454627990722656,-53.36415100097656,6.957104682922363,-18.22272109985352,17.858169555664062,156.90330505371094,-68.4373550415039,117.28982543945312,2.125617027282715,-2.184202194213867,1.3563194274902344
2305.5265901088715,173.0878143310547,-53.91032791137695,-54.96588516235352,-1.7614779472351074,0.5239731073379517,0.7851467132568359,-175.23846435546875,-56.25365829467773,-71.16588592529297,2.926231384277344,-11.384986877441406,13.026187896728516,-62.98748779296875,-45.160945892333984,-114.57571411132812,0.524940013885498,11.128211975097656,10.450668334960938,98.35198974609376,-55.70450973510742,-48.28309631347656,6.392082214355469,-9.04632568359375,8.152200698852539,152.3800048828125,-68.74471282958984,121.5709457397461,-2.3866119384765625,-1.616000413894653,6.164589881896973
2305.556604385376,172.7360076904297,-52.071739196777344,-51.83053207397461,-2.1928553581237797,-0.995946168899536,2.443678855895996,-170.46006774902344,-50.8076400756836,-74.2821044921875,-5.442486763000488,-13.894733428955078,14.49168586730957,-66.92979431152344,-34.161407470703125,-110.73792266845705,11.908731460571287,8.408002853393555,22.48011779785156,93.1251220703125,-49.135047912597656,-41.623653411865234,14.1527099609375,-10.50062370300293,10.52115249633789,150.05307006835938,-67.9758071899414,124.9087905883789,-3.837639331817627,-0.0303570814430713,7.5447235107421875
