Timestamp,D4:22:CD:00:05:5D_EulerX,D4:22:CD:00:05:5D_EulerY,D4:22:CD:00:05:5D_EulerZ,D4:22:CD:00:05:5D_FreeAccX,D4:22:CD:00:05:5D_FreeAccY,D4:22:CD:00:05:5D_FreeAccZ,D4:22:CD:00:05:5E_EulerX,D4:22:CD:00:05:5E_EulerY,D4:22:CD:00:05:5E_EulerZ,D4:22:CD:00:05:5E_FreeAccX,D4:22:CD:00:05:5E_FreeAccY,D4:22:CD:00:05:5E_FreeAccZ,D4:22:CD:00:05:6B_EulerX,D4:22:CD:00:05:6B_EulerY,D4:22:CD:00:05:6B_EulerZ,D4:22:CD:00:05:6B_FreeAccX,D4:22:CD:00:05:6B_FreeAccY,D4:22:CD:00:05:6B_FreeAccZ,D4:22:CD:00:05:6E_EulerX,D4:22:CD:00:05:6E_EulerY,D4:22:CD:00:05:6E_EulerZ,D4:22:CD:00:05:6E_FreeAccX,D4:22:CD:00:05:6E_FreeAccY,D4:22:CD:00:05:6E_FreeAccZ,D4:22:CD:00:49:AA_EulerX,D4:22:CD:00:49:AA_EulerY,D4:22:CD:00:49:AA_EulerZ,D4:22:CD:00:49:AA_FreeAccX,D4:22:CD:00:49:AA_FreeAccY,D4:22:CD:00:49:AA_FreeAccZ
1535.7194020748138,176.17564392089844,-47.248313903808594,-98.44647979736328,-0.4323634505271911,1.6956586837768557,3.312009811401367,-167.51698303222656,-44.976173400878906,-32.48760223388672,-0.4388661980628967,-6.708371162414551,12.806312561035156,-52.58157730102539,-13.261220932006836,-88.05583190917969,8.608396530151367,7.019731521606445,30.23971939086914,63.975494384765625,-72.1655502319336,26.3100700378418,5.546570777893066,3.064512252807617,9.090831756591797,132.7795867919922,-68.43228149414062,143.24676513671875,-4.850771903991699,-3.838150978088379,10.744287490844728
1535.727695941925,177.27362060546875,-48.43817901611328,-99.0370101928711,-0.7269744873046875,1.211179494857788,2.2052154541015625,-167.1896209716797,-43.20121383666992,-31.738021850585938,-4.100515365600586,4.334524154663086,1.908897399902344,-41.564701080322266,2.5564658641815186,-84.27723693847656,9.41347312927246,-11.828693389892578,16.58675765991211,57.55010223388672,-76.72476196289062,32.02909469604492,8.017398834228516,0.1987226903438568,11.145967483520508,132.63987731933594,-68.75688934326172,144.26768493652344,-4.001446723937988,-1.5367274284362793,8.972726821899414
1535.8164448738098,172.04327392578125,-53.69697570800781,-118.39096069335938,0.1350460648536682,-0.4714713096618652,4.655087471008301,-78.34024810791016,-3.3276944160461426,-112.2347412109375,-0.6764544248580933,3.8989315032958975,-5.521995544433594,-37.04151153564453,38.894718170166016,-54.77169799804688,-5.050146102905273,-6.225268363952637,5.372434616088867,149.54031372070312,-55.25766372680664,-25.32397079467773,-7.988275527954102,-0.2451396286487579,7.34453010559082,-146.1123504638672,-70.41738891601562,77.56562805175781,1.7248854637145996,0.1200919449329376,1.3837175369262695
1535.875891208649,174.91494750976562,-61.29898071289063,-122.12448120117188,-3.2295727729797363,-5.335742950439453,7.300642013549805,-81.27992248535156,3.21632981300354,-124.619873046875,-3.856806755065918,4.084009170532227,-15.309270858764648,-36.49714660644531,43.8009033203125,-57.69390487670898,-0.3836410045623779,-6.175865173339844,-1.3433971405029297,151.48992919921875,-49.252532958984375,-23.269407272338867,-7.30143928527832,-1.9164214134216309,6.472721099853516,-137.42523193359375,-69.527587890625,73.70993041992188,1.7213256359100342,2.1673169136047363,-4.117039680480957
1535.9058847427368,175.47039794921875,-71.0267333984375,-126.42689514160156,-6.0964765548706055,-5.624608039855957,4.41616153717041,-94.3453369140625,3.0585479736328125,-136.71173095703125,-13.881601333618164,-0.7771992683410645,-18.37183380126953,-32.65951156616211,44.601661682128906,-60.32906723022461,0.0206047892570495,1.2938480377197266,-4.799581527709961,150.3333740234375,-40.03160095214844,-19.200592041015625,-5.604391098022461,-3.195086479187012,1.224966049194336,-137.28138732910156,-69.946533203125,77.35006713867188,2.056046962738037,4.341540336608887,-6.898650169372559
1535.9365932941437,173.14422607421875,-82.0504379272461,-129.7294464111328,-5.019815444946289,-1.784278154373169,-1.6657114028930664,-111.75953674316406,-4.535919666290283,-145.5358123779297,-25.50811004638672,1.3287241458892822,-12.40072250366211,-29.07752227783203,44.00181579589844,-63.39368438720703,2.52858829498291,-0.6759504079818726,-6.653633117675781,146.9877471923828,-33.97332763671875,-16.32938575744629,-3.6909141540527344,-1.510833501815796,-5.336643218994141,-139.80540466308594,-71.64910125732422,81.86156463623047,0.800527811050415,2.646291732788086,-9.361007690429688
1535.9667675495148,88.22095489501953,-88.15750885009766,-45.897220611572266,9.552339553833008,1.1848719120025637,-12.871170043945312,-118.31726837158205,-15.27223300933838,-151.1012725830078,-12.11600112915039,10.478496551513672,4.67751407623291,-26.842782974243164,39.9257698059082,-68.8337173461914,4.435118675231934,8.619985580444336,-12.71299171447754,144.61424255371094,-29.173572540283203,-14.776071548461914,-1.9428746700286863,-2.504714012145996,-5.267124176025391,-140.91542053222656,-72.48577117919922,84.71481323242188,0.272616446018219,-0.944645881652832,-8.867759704589844
1535.996693611145,91.47721099853516,-85.81614685058594,-47.33239364624024,3.904681205749512,2.368316173553467,-11.067754745483398,-114.02239990234376,-21.78410530090332,-151.63612365722656,-11.83122444152832,17.26494598388672,-7.926947593688965,-25.94904327392578,32.06722640991211,-76.0474853515625,4.405228614807129,7.010385513305664,-12.524900436401367,141.9237823486328,-25.468111038208008,-13.138890266418455,-1.1952955722808838,-4.66203498840332,-6.11207389831543,-137.61944580078125,-73.35478210449219,82.62934875488281,1.686446189880371,0.479751706123352,-8.45368766784668
1536.0261509418488,117.63927459716795,-82.40570831298828,-71.0622787475586,1.361368179321289,-2.023078441619873,-8.35234260559082,-125.46222686767578,-20.663732528686523,-144.01547241210938,-13.329540252685549,6.299310684204102,-9.709173202514648,-23.722387313842773,19.602270126342773,-86.46369171142578,1.4480929374694824,-5.497617721557617,-14.947572708129885,137.78672790527344,-23.024227142333984,-10.549779891967772,0.3571152687072754,-5.71247673034668,-6.1714372634887695,-132.5249481201172,-74.46598815917969,78.21847534179688,-0.9797484874725342,1.1542036533355713,-7.034152984619141
1536.056707382202,128.2829132080078,-80.44339752197266,-79.21019744873047,13.11619758605957,4.944268226623535,-7.031793594360352,-144.4805145263672,-14.29462432861328,-134.26824951171875,-25.105125427246094,5.963020324707031,4.859185218811035,-17.177366256713867,2.511346340179444,-99.75072479248048,-8.100761413574219,-38.32022857666016,-10.540061950683594,133.66259765625,-22.18809127807617,-6.916866779327393,3.4218640327453613,-2.5759663581848145,-6.956110000610352,-124.1802978515625,-75.79755401611328,70.38935089111328,0.6801677942276001,-0.7161246538162231,-3.620221138000488
1536.0863926410675,142.36648559570312,-77.79735565185547,-89.46145629882812,3.8372397422790527,-4.20538330078125,-5.445788383483887,-149.11636352539062,-12.538263320922852,-129.3710174560547,-10.882308959960938,-20.54901123046875,-29.84706115722656,-10.384698867797852,-6.307838439941406,-110.4586944580078,-5.547345161437988,-12.576351165771484,-7.601142883300781,134.421142578125,-22.525117874145508,-3.9326231479644775,5.5445756912231445,-0.1855368614196777,-6.770819664001465,-121.22117614746094,-76.9798355102539,66.87989807128906,-1.421940565109253,-2.892435073852539,0.5079402923583984
1536.1166260242462,146.98370361328125,-75.32495880126953,-93.04999542236328,-1.743623971939087,-4.625276565551758,-0.6168670654296875,-153.7308807373047,-15.093721389770508,-125.5697784423828,-17.770648956298828,-14.430112838745115,-2.1731247901916504,-30.189617156982425,-5.15002965927124,-103.87655639648438,-10.650938034057615,8.224023818969727,-1.7807025909423828,140.4722900390625,-23.566184997558597,-3.894429206848145,5.31285572052002,-6.4522809982299805,-4.34321403503418,-118.15250396728516,-78.01332092285156,63.93999862670898,-3.5647406578063965,-3.840085506439209,0.7605733871459961
1536.176279783249,147.8239288330078,-72.98863983154297,-92.5545654296875,-3.390511512756348,-4.0259504318237305,5.817203521728516,-161.73597717285156,-16.17888832092285,-123.0083236694336,4.388377189636231,-14.523015975952148,2.0201187133789062,-41.82455825805664,-0.7387686967849731,-98.3711166381836,-3.256067276000977,0.2737425565719604,-5.9812421798706055,143.88943481445312,-25.05413818359375,-6.150486946105957,8.103071212768555,-13.809242248535156,-0.7645273208618164,-112.2450180053711,-78.65541076660156,58.127567291259766,-0.7451434135437012,-0.4259338974952698,3.7483835220336914
1536.2070035934448,147.6405792236328,-71.15026092529297,-88.15836334228516,0.4703508019447326,-3.2612500190734863,5.084821701049805,-163.93760681152344,-19.297866821289062,-119.85592651367188,-6.294621467590332,-9.702028274536133,-4.064335823059082,-44.84660720825195,3.717096090316773,-92.044189453125,2.202400684356689,1.3510007858276367,-9.29648208618164,138.16839599609375,-26.418363571166992,-9.352667808532717,9.866722106933594,-9.083948135375977,-0.5424032211303711,-110.32337951660156,-79.94396209716797,55.7163314819336,3.450284481048584,-0.7830615043640137,6.984172821044922
1536.2361764907837,144.2801971435547,-69.59123992919922,-81.69952392578125,-1.162964105606079,0.70960533618927,6.40540885925293,-164.41912841796875,-23.536357879638672,-115.77513885498048,-4.277292251586914,-8.320505142211914,-4.128181457519531,-49.78408050537109,9.840948104858398,-82.53443908691406,-1.547285556793213,-7.403636932373047,0.0380754470825195,125.5727310180664,-26.659141540527344,-12.821810722351074,12.377788543701172,-6.653459548950195,-0.9734325408935548,-109.42363739013672,-81.28630065917969,53.87882614135742,1.5770180225372314,-4.638426780700684,5.215090751647949
1536.2665491104126,137.97555541992188,-68.03467559814453,-76.23949432373047,-0.2437073290348053,-3.140842914581299,5.143380165100098,-164.44998168945312,-27.421592712402344,-112.56236267089844,-6.744906425476074,-4.7061614990234375,-2.9998583793640137,-46.43094253540039,15.851551055908203,-71.02880096435547,-1.0320255756378174,-7.637021064758301,-3.029576778411865,111.84185028076172,-26.17738342285156,-14.251151084899902,17.621028900146484,-3.783926486968994,-7.422944068908691,-105.36207580566406,-81.51737976074219,48.69890594482422,1.7772152423858645,-0.9376159906387328,0.1340827941894531
1536.2962279319763,130.9167938232422,-65.93824768066406,-72.58782196044922,1.5548508167266846,-6.227522850036621,8.019277572631836,-161.0494384765625,-31.2949333190918,-110.92730712890624,-5.355856895446777,-9.369354248046877,-6.10369873046875,-40.50010299682617,18.98818016052246,-56.83649063110352,-1.828913688659668,2.7701663970947266,-0.825225830078125,106.33865356445312,-25.17343521118164,-13.808062553405762,13.429662704467772,0.4917830228805542,-11.740558624267578,-105.02738189697266,-81.66947174072266,45.82230758666992,10.095987319946287,4.450899124145508,-3.077183246612549
1536.3262388706207,118.5689468383789,-64.92288970947266,-69.80443572998047,8.529708862304688,-2.8295793533325195,2.262367248535156,-156.39707946777344,-34.2784423828125,-110.07717895507812,-3.3169398307800293,-7.0932722091674805,-0.861332893371582,-33.04757308959961,18.83109474182129,-40.78598403930664,-1.84136700630188,6.866392135620117,2.35080623626709,103.4732437133789,-22.707311630249023,-13.191587448120115,10.880828857421877,1.6750178337097168,-4.9869537353515625,-110.3717041015625,-82.3972396850586,49.028541564941406,7.468396186828613,-0.1973055601119995,-0.0739698410034179
1536.3566989898682,119.4686279296875,-61.58095169067383,-79.92607879638672,23.307106018066406,12.959651947021484,6.925262451171875,-150.9481964111328,-37.43690490722656,-110.72785949707033,-1.8420937061309812,-6.416001319885254,-3.336423873901367,-26.089656829833984,17.97237205505371,-21.96784400939941,8.87166976928711,18.78213119506836,-8.262201309204102,99.36699676513672,-20.315818786621094,-11.152128219604492,14.246488571166992,3.1542115211486816,-6.490129470825195,-110.80110931396484,-81.88821411132812,50.31157302856445,-3.2608470916748047,-0.4629820585250854,5.112876892089844
1536.3865594863892,127.43458557128906,-55.13739013671875,-95.2993392944336,16.281341552734375,4.726535797119141,3.8932504653930655,-143.99478149414062,-39.28148651123047,-111.0457763671875,-6.2472028732299805,-3.6024394035339355,-7.489850997924805,-37.16913986206055,16.539398193359375,-1.164209485054016,-4.300838470458984,23.686222076416016,-19.153156280517575,98.94441986083984,-18.94277572631836,-8.526878356933594,12.605964660644531,5.30991268157959,-7.536616325378418,-107.5211410522461,-81.51254272460938,49.19927215576172,5.819240570068359,3.2149672508239746,4.778224945068359
1536.416698217392,135.49859619140625,-46.83121490478516,-109.57141876220705,5.4227495193481445,1.0797686576843262,-3.340366840362549,-142.90383911132812,-37.36803436279297,-109.5000228881836,-7.87451171875,-6.9229021072387695,-11.723661422729492,-54.05329895019531,15.666613578796388,16.532649993896484,10.130691528320312,-2.844003200531006,9.83340072631836,100.42477416992188,-17.32495880126953,-7.040738582611084,8.50421142578125,3.716694831848145,-5.623096466064453,-102.45114135742188,-81.7087631225586,44.38389205932617,10.525606155395508,3.4748377799987797,0.9918975830078124
1536.4768068790436,142.68081665039062,-38.16426849365234,-120.072021484375,-2.3891897201538086,1.724170207977295,-11.19053077697754,-144.58493041992188,-32.89842224121094,-107.46409606933594,-6.372078895568848,-5.438868522644043,-8.115076065063477,-52.823360443115234,16.35085105895996,27.881799697875977,2.5469460487365723,10.00784683227539,1.746870040893555,100.80015563964844,-14.955766677856444,-6.477240562438965,6.558182716369629,1.4317069053649902,-5.983892440795898,-91.42354583740234,-82.41077423095703,33.080204010009766,-0.1069176495075225,1.15852952003479,-4.641819000244141
1536.5064222812653,149.9954376220703,-30.681100845336918,-127.28833770751952,-3.1050915718078613,6.71922492980957,-16.463531494140625,-148.1463623046875,-26.37407684326172,-106.4142608642578,-4.840690612792969,-3.94827938079834,-5.276123046875,-52.82406997680664,16.892305374145508,34.82020950317383,-5.329746246337891,7.468158721923828,-6.597151756286621,101.5334930419922,-12.167076110839844,-4.8221940994262695,6.244406700134277,-1.600043535232544,-12.60699462890625,-85.19064331054688,-82.83568572998047,27.53930282592773,-5.885991096496582,-1.415996551513672,-7.841069221496582
1536.5365076065063,156.29029846191406,-26.065547943115234,-132.9609832763672,0.7414438724517822,4.817119598388672,-13.20888328552246,-150.48043823242188,-20.816198348999023,-105.6955795288086,-8.424396514892578,-8.486682891845703,-7.361410140991211,-55.37731552124024,15.37094497680664,39.64801406860352,0.289837121963501,4.938531875610352,-2.0472612380981445,103.61871337890624,-9.117321968078612,-1.9450135231018064,3.966279983520508,0.250821590423584,-7.831795692443848,-81.72750854492188,-82.1843032836914,26.529956817626957,-0.2564750909805298,-1.6751232147216797,-8.361011505126953
1536.5662763118744,160.02554321289062,-24.932641983032227,-138.07736206054688,-6.313824653625488,2.1313838958740234,-6.8976640701293945,-150.09756469726562,-16.48488998413086,-104.71066284179688,-3.967899799346924,-7.14321231842041,-0.9227790832519532,-53.65057373046875,10.882649421691896,42.595481872558594,-0.3198311328887939,5.784313201904297,-8.682243347167969,106.96694946289062,-4.744936466217041,1.0475283861160278,4.773406982421875,2.780986785888672,-6.577914237976074,-81.24667358398438,-81.41048431396484,29.134281158447266,5.240374565124512,0.3482785224914551,-6.950243949890137
1536.5966012477877,157.10861206054688,-27.1608829498291,-141.33880615234375,-10.27993392944336,-1.9595582485198972,-8.383460998535156,-150.5389404296875,-14.113167762756348,-102.96916961669922,-4.145212173461914,-7.884270668029785,-0.0260190963745117,-53.04526901245117,1.915080428123474,43.56070709228516,1.1992506980895996,7.376316070556641,-15.635000228881836,113.7917938232422,1.4224644899368286,5.113303661346436,8.531562805175781,-1.471810817718506,-1.438715934753418,-85.89139556884766,-81.01687622070312,35.23796463012695,6.155826568603516,3.0552783012390137,-5.917513847351074
1536.627056598663,155.2012176513672,-30.61874771118164,-140.2089080810547,-4.094642639160156,-1.2941031455993652,7.915618896484375,-151.5841064453125,-13.830492973327637,-100.85990142822266,-5.8599853515625,-6.101737022399902,-1.668797492980957,-55.73990249633789,-11.499186515808104,42.96039581298828,12.553668975830078,14.791475296020508,-6.300997734069824,124.05438995361328,10.524812698364258,13.909489631652832,17.580284118652344,-9.465700149536133,15.992597579956056,-83.61030578613281,-80.57978057861328,31.1214599609375,4.43964958190918,2.6442370414733887,-1.9864344596862795
1536.6568915843964,155.3933563232422,-31.79969787597656,-135.20364379882812,-9.468721389770508,-5.45932674407959,8.854288101196289,-153.4649200439453,-14.11044979095459,-99.85115814208984,-7.460293769836426,-6.200942993164063,-3.10391616821289,-56.17667770385742,-26.31058692932129,40.33580017089844,29.728954315185547,26.36068344116211,12.824541091918944,133.43466186523438,21.126850128173828,27.202058792114254,17.228397369384766,-11.392816543579102,10.95864486694336,-79.9478759765625,-80.92745208740234,25.76554679870605,-1.3400285243988037,-5.717862129211426,5.871712684631348
1536.6914594173431,159.87911987304688,-31.207199096679688,-129.58453369140625,-16.621559143066406,-2.063973903656006,15.860994338989258,-155.0658416748047,-16.36102867126465,-100.41909790039062,-7.213003158569336,-6.819517135620117,-2.408821582794189,-47.35250854492188,-30.01152801513672,36.55625534057617,22.7550048828125,10.492727279663086,10.165666580200195,137.94876098632812,33.52998352050781,42.85895919799805,13.861213684082031,-15.395956039428713,0.8672151565551758,-79.80567932128906,-81.242431640625,26.58979797363281,-0.4775282740592956,2.1574621200561523,10.542318344116213
1536.716614484787,160.38426208496094,-25.975811004638672,-125.7202606201172,-14.063310623168944,-8.326005935668945,18.362091064453125,-156.92193603515625,-21.30030632019043,-102.07635498046876,-7.364908218383789,-8.048395156860352,-0.8040399551391602,-44.73175048828125,-20.79709243774414,37.477088928222656,20.42153549194336,20.89901351928711,-23.47983169555664,143.1648712158203,47.69783782958984,61.46421813964844,27.61088180541992,-10.358236312866213,-0.9645872116088868,-94.13333892822266,-81.17823791503906,42.44853973388672,5.182670593261719,-3.38687801361084,9.559839248657228
1536.7762031555176,161.68960571289062,-17.594043731689453,-124.15715789794922,-12.18581199645996,-14.50779914855957,14.701257705688477,-157.54762268066406,-29.358556747436523,-104.81117248535156,-4.198112487792969,-17.899547576904297,1.7580204010009766,-59.278541564941406,-8.69155502319336,37.72304534912109,25.379852294921875,4.475930213928223,0.2016401290893554,150.88514709472656,60.29208755493164,88.09351348876953,25.7779541015625,0.9702249765396118,-7.584066390991211,-99.83651733398438,-81.78264617919922,48.87309265136719,5.295197486877441,1.015810489654541,7.785106658935547
1536.8067853450775,157.4949951171875,-9.905508041381836,-125.50069427490234,-12.244148254394531,-10.018718719482422,8.773033142089844,-155.4703369140625,-36.93115997314453,-107.61563873291016,-2.8038482666015625,-16.945186614990234,-4.31163215637207,-65.36029052734375,-0.8293753266334534,33.46287536621094,14.951026916503906,9.490312576293944,-4.67142391204834,169.7942352294922,65.36373138427734,125.44813537597656,18.136314392089844,6.713869094848633,-9.946067810058594,-110.30085754394533,-82.52178955078125,59.36705017089844,5.177967071533203,2.542339324951172,8.418323516845703
1536.8367836475372,155.78318786621094,-4.8635687828063965,-127.4508819580078,-5.222568511962891,-2.5511693954467773,-3.851561069488525,-153.111572265625,-39.72783279418945,-109.73649597167967,0.4241062998771667,-1.6093971729278564,-4.482324600219727,-74.55440521240234,0.7870606780052185,28.393089294433597,6.991391181945801,5.082889556884766,-5.490886688232422,-176.4894256591797,61.61803817749024,154.60446166992188,7.484980583190918,4.993167877197266,-12.210325241088867,-120.47288513183594,-83.433349609375,67.79271697998047,6.467771530151367,1.9846205711364744,8.621274948120117
1536.8664565086365,158.98757934570312,-4.178335666656494,-128.5978546142578,-3.8344244956970215,4.560205459594727,-10.479606628417969,-155.1645050048828,-37.26873779296875,-111.1414566040039,-5.445777893066406,7.677627563476562,-1.1326160430908203,-87.08905029296875,-3.281602382659912,25.45784568786621,2.878032684326172,3.8673629760742183,0.8448629379272461,-168.84188842773438,55.41281509399414,170.32394409179688,4.589320182800293,2.929754734039306,-9.34645652770996,-127.9323959350586,-84.96366882324219,72.48883056640625,2.234015464782715,1.4835443496704102,3.6343822479248047
1536.8964416980743,161.79559326171875,-8.78077220916748,-129.0215606689453,-4.96270751953125,8.676387786865234,-14.276620864868164,-159.41763305664062,-32.315513610839844,-113.7452392578125,-0.4253016710281372,-2.54272985458374,-10.815057754516602,-97.50181579589844,-11.297263145446776,24.8369140625,2.4030160903930664,5.569592475891113,-2.136600971221924,-157.4598846435547,50.32600402832031,-179.366943359375,4.10518741607666,0.126599907875061,-6.14189338684082,-141.96148681640625,-86.47674560546875,83.7745361328125,-0.8955776691436768,1.572669267654419,-4.095973014831543
1536.9264495372772,159.6779327392578,-17.947975158691406,-128.7708282470703,-6.165392875671387,7.478422164916992,-15.932201385498049,-164.7265167236328,-29.485326766967773,-116.10050201416016,-0.0400610044598579,1.4469735622406006,-9.742332458496094,-110.2990951538086,-20.50499153137207,26.190906524658203,3.845325946807861,4.774255752563477,-4.389354705810547,-143.96229553222656,47.53776550292969,-172.5031280517578,2.945246696472168,-1.085073471069336,-4.228528022766113,-167.0618438720703,-85.77376556396484,107.5054168701172,-0.0313573032617569,-0.4979206323623657,-7.0598859786987305
1536.956444978714,153.84324645996094,-29.891876220703125,-127.0040512084961,-6.7704010009765625,1.65802264213562,-13.563648223876951,-169.1354217529297,-28.33916473388672,-115.9786376953125,-1.8319752216339111,5.678353309631348,5.379785537719727,-129.313232421875,-28.804208755493164,29.059791564941406,1.5235366821289062,2.608180046081543,-1.584822654724121,-136.26358032226562,47.085933685302734,-169.02383422851562,3.309783935546875,1.3496911525726318,-4.691991806030273,-170.50608825683594,-85.374755859375,110.63213348388672,0.777529239654541,-0.0066028237342834,-10.376716613769531
1536.986268043518,147.474365234375,-43.23670959472656,-122.64633178710938,-5.109743118286133,-2.2274622917175293,-9.906347274780272,-168.730712890625,-26.63995742797852,-115.97974395751952,-7.380824089050293,-3.5932345390319824,-13.466974258422852,-154.68313598632812,-33.89577102661133,27.71311378479004,-12.255517959594728,11.66350555419922,-0.4504404067993164,-141.6187286376953,49.93916702270508,-170.67926025390625,3.1959052085876465,-0.5971260070800781,-2.7691802978515625,-171.9888916015625,-85.70331573486328,110.73067474365234,0.8155887126922607,3.2827939987182617,-11.086135864257812
1537.0173044204712,141.73403930664062,-57.18183135986328,-115.09505462646484,-0.5350133180618286,-5.5298051834106445,-3.86652946472168,-173.55116271972656,-21.408042907714844,-116.70246887207033,-9.717947006225586,-7.282034873962402,-7.268430709838867,-170.43190002441406,-39.805301666259766,26.30146026611328,-4.019184112548828,3.8531670570373535,-12.29025650024414,-159.6606903076172,55.00514602661133,178.58201599121094,1.0006709098815918,-2.702439785003662,-6.096848487854004,-179.36289978027344,-86.1765365600586,115.01367950439452,1.276950120925903,3.245935440063477,-10.925529479980469
1537.0763356685638,129.03240966796875,-72.08932495117188,-98.12405395507812,3.032726287841797,-4.994451522827148,7.556699752807617,-177.2681884765625,-16.13786506652832,-119.16952514648438,-11.306632995605469,-10.26521110534668,-3.7626233100891113,-175.54197692871094,-44.848594665527344,30.632869720458984,-5.023355484008789,-2.0833873748779297,-14.521966934204102,169.38674926757812,56.66476440429688,153.796142578125,-1.2058985233306885,4.181894302368164,-12.772029876708984,168.74557495117188,-86.4613265991211,123.19788360595705,0.5136481523513794,1.5937154293060305,-11.36418342590332
1537.1063282489777,60.80704498291016,-81.03430938720703,-25.964548110961918,13.477754592895508,2.6521472930908203,14.055702209472656,-176.8543701171875,-14.05404281616211,-121.3879165649414,-6.684205055236816,-14.359174728393556,1.5777931213378906,-179.277099609375,-46.79294967651367,40.99625778198242,-2.424559593200684,-1.978083610534668,-12.682012557983398,134.40335083007812,47.309688568115234,126.7382583618164,-9.867856979370115,31.19329071044922,-35.71306610107422,170.3034210205078,-85.49089813232422,118.5868911743164,-0.3822222352027893,-2.649754047393799,-5.929056167602539
1537.1365134716034,17.784624099731445,-74.87391662597656,19.79311752319336,8.165369033813477,25.900768280029297,-8.099861145019531,-176.0928192138672,-15.21584129333496,-123.01091766357422,-10.302057266235352,-16.06180191040039,-0.0416793823242187,173.62535095214844,-45.33848190307617,55.7637825012207,1.104480504989624,3.977926254272461,-9.102947235107422,124.64798736572266,36.09849548339844,124.36858367919922,-6.229635238647461,6.219776153564453,-13.031028747558594,-174.91412353515625,-83.09110260009766,102.73125457763672,4.076355934143066,-5.468166351318359,1.0701398849487305
1537.166519165039,23.423778533935547,-74.44847869873047,11.01173973083496,23.18387222290039,2.14853572845459,-7.761438369750977,-173.50119018554688,-18.239990234375,-124.54806518554688,-9.617219924926758,-15.850057601928713,-4.096759796142578,166.19033813476562,-40.914649963378906,71.22694396972656,2.3015856742858887,15.967823028564451,-2.480578899383545,145.24209594726562,39.41563415527344,133.26438903808594,3.8261332511901855,-5.198310852050781,-8.377412796020508,-171.18515014648438,-80.24270629882812,98.52156829833984,4.992119789123535,1.2138605117797852,8.837112426757812
1537.1970567703247,56.79181671142578,-77.34004974365234,-18.61965751647949,10.087587356567385,-3.7441000938415527,10.087575912475586,-164.8491973876953,-22.851036071777344,-126.72624206542967,-8.296224594116211,-5.671687126159668,-8.567527770996094,166.44760131835938,-37.43168640136719,82.96807098388672,-10.841564178466797,18.04800796508789,3.007352828979492,177.37840270996094,45.14948272705078,150.94076538085938,2.084710121154785,5.014421463012695,-6.679023742675781,-169.7793731689453,-79.58815002441406,96.04270935058594,5.113321304321289,1.8997762203216555,8.727266311645508
1537.229070186615,84.60095977783203,-79.05339050292969,-48.26737594604492,-3.2959585189819336,-14.732013702392578,8.478286743164062,-151.50143432617188,-23.24661445617676,-129.19192504882812,-12.743078231811523,11.037313461303713,11.771728515625,176.71261596679688,-36.821197509765625,83.92779541015625,17.178050994873047,9.07334327697754,9.697248458862305,-156.13113403320312,48.91567611694336,172.73435974121094,1.5732576847076416,12.346420288085938,-9.799013137817385,-167.65249633789062,-78.80319213867188,93.16368865966795,5.606853485107422,3.308122158050537,10.123397827148438
1537.256157398224,105.47689056396484,-80.0205307006836,-68.7328109741211,-0.178336501121521,-1.8586010932922363,8.827800750732422,-143.2582244873047,-15.939143180847168,-128.34991455078125,-23.9189567565918,8.025699615478516,6.653800964355469,178.88694763183594,-35.401763916015625,78.02484893798828,9.220365524291992,19.19888687133789,3.7255067825317374,-135.26795959472656,49.06528854370117,-164.42323303222656,0.7493246793746948,4.371445655822754,-14.242172241210938,-165.1458282470703,-77.78492736816406,92.4544677734375,-1.2331414222717283,-1.524643898010254,7.823568344116211
1537.286491394043,126.15721893310548,-78.43346405029297,-82.65086364746094,-6.17730712890625,9.93014907836914,4.805865287780762,-143.22784423828125,-4.9500250816345215,-124.5573959350586,-13.606748580932615,-1.9222817420959477,-2.8811440467834477,178.74855041503906,-34.388729095458984,73.2348861694336,6.360414505004883,17.77322006225586,-2.862394332885742,-119.18447875976562,45.84990310668945,-145.25782775878906,2.5075793266296387,-0.7080157995223999,-4.608613014221191,-163.59869384765625,-77.3971176147461,94.73152160644533,-5.517768859863281,-2.7260217666625977,1.0116844177246094
1537.3165929317474,137.91912841796875,-78.5333480834961,-91.93382263183594,-1.4401905536651611,3.862946510314941,0.1251697540283203,-147.3925018310547,5.925703525543213,-120.0244140625,-9.01962661743164,4.427059173583984,-11.99876594543457,-174.93276977539062,-33.33613967895508,69.64447784423828,6.89128303527832,11.534910202026367,-6.594464302062988,-103.3232421875,41.5145263671875,-131.15492248535156,3.0063133239746094,-17.118961334228516,7.656209945678711,-164.91156005859375,-77.19723510742188,102.07357788085938,-2.326432704925537,-1.2478790283203125,-6.84577751159668
1537.3767848014832,149.87899780273438,-79.49983978271484,-102.65634155273438,0.9995861053466796,1.9794950485229488,-2.9475412368774414,-153.1400604248047,14.72500991821289,-114.45166778564452,4.407073974609375,8.833534240722656,-11.764690399169922,-164.95523071289062,-31.817138671875,65.49019622802734,7.81282901763916,3.638312816619873,-6.018492698669434,-86.38556671142578,39.94833755493164,-125.8136978149414,0.5022380352020264,-9.166467666625977,3.7943058013916016,-168.08168029785156,-75.59254455566406,108.84652709960938,-0.4526422023773193,2.0238733291625977,-8.870567321777344
1537.4060904979706,163.74710083007812,-80.19217681884766,-115.5250015258789,1.3536927700042725,-2.459768772125244,1.292496681213379,-155.6382598876953,19.307106018066406,-109.1050796508789,4.326506614685059,10.360597610473633,-9.68045425415039,-159.6708984375,-30.412193298339844,61.265254974365234,4.481656074523926,3.689838409423828,-5.793194770812988,-77.5698471069336,45.59635925292969,-129.04934692382812,5.308269500732422,-6.52052116394043,-5.162993431091309,-170.43154907226562,-74.673828125,111.433837890625,1.800046443939209,-1.5394957065582275,-0.9850921630859376
1537.4390904903412,172.6580047607422,-79.4166030883789,-123.4743423461914,0.4499548077583313,-2.0171947479248047,0.0192031860351562,-160.03514099121094,19.6038761138916,-103.3358917236328,-0.0955398231744766,1.441044807434082,-7.621105194091797,-154.18609619140625,-29.91162109375,58.421817779541016,1.1293213367462158,0.3266916275024414,-1.938838481903076,-79.62601470947266,54.42234420776367,-139.2725372314453,9.43836784362793,10.686969757080078,-4.755986213684082,-172.69166564941406,-73.33511352539062,113.19741821289062,-4.140810966491699,1.3210034370422363,0.4877452850341797
1537.4666078090668,176.48414611816406,-77.67254638671875,-126.2298583984375,1.5706288814544678,-2.1245226860046387,-0.0237360000610351,-162.29029846191406,16.119476318359375,-97.47149658203124,-2.329087734222412,-8.17039680480957,-8.988262176513672,-152.3373565673828,-30.65576171875,56.56220626831055,1.236440658569336,0.4491559863090515,-1.9918131828308103,-82.17894744873047,63.7547492980957,-148.95364379882812,9.213687896728516,8.890630722045898,2.756349563598633,-173.65602111816406,-71.61202239990234,114.09996032714844,-4.730010032653809,1.1505756378173828,-1.2751693725585938
1537.4961788654327,177.80471801757812,-75.81400299072266,-126.48609924316406,-0.2758411169052124,1.4483935832977295,-0.0983533859252929,-159.26531982421875,9.350423812866213,-93.31644439697266,2.6533308029174805,-16.41921615600586,-10.34747314453125,-155.18479919433594,-32.23120880126953,54.5551986694336,-0.3850236535072326,0.4819591045379638,-1.385014533996582,-63.6929817199707,73.37129974365234,-139.8384246826172,5.762531280517578,7.601022720336914,2.8231029510498047,-176.0501251220703,-71.5554428100586,116.48898315429688,-2.094489097595215,2.2255992889404297,-1.5438508987426758
1537.5264608860016,-179.91354370117188,-73.63102722167969,-130.1165008544922,-6.406051635742188,2.5153675079345703,0.5578765869140625,-149.8588409423828,3.663687944412232,-91.27354431152344,-9.222671508789062,-20.784255981445312,14.770959854125977,-160.41087341308594,-33.65299987792969,51.49392318725586,-1.4067931175231934,2.695387363433838,-2.405411720275879,4.519278526306152,75.54710388183594,-79.09156799316406,7.270981788635254,2.365087509155273,-10.089902877807615,-179.9264678955078,-70.65299224853516,120.3200912475586,-0.5461523532867432,-0.2841211557388305,-0.7260046005249023
1537.5569891929626,-177.4057159423828,-70.66242980957031,-134.43106079101562,-0.2946870923042297,-1.664754867553711,0.8628215789794922,-142.1306915283203,-1.4485607147216797,-91.40902709960938,-2.677976608276367,-12.236982345581056,-18.371204376220703,-165.81976318359375,-35.182273864746094,46.29228973388672,-3.7765069007873535,8.836603164672852,-3.176398754119873,42.81167602539063,60.23155975341797,-42.02689743041992,6.996739387512207,-7.753471374511719,-18.005046844482422,173.81854248046875,-71.02417755126953,124.3664779663086,0.4955456256866455,0.0491975471377372,-2.7457046508789062
1537.58651638031,-177.0882110595703,-66.98155975341797,-136.69338989257812,0.5708985328674316,-2.4545340538024902,1.3138551712036133,-142.0798797607422,-3.319648742675781,-91.91357421875,2.9934115409851074,-31.75920867919922,-1.1486129760742188,-165.9935302734375,-37.508392333984375,38.79128646850586,-2.5616979598999023,9.059085845947266,-4.721434593200684,52.729888916015625,38.06871795654297,-29.600509643554688,19.216632843017575,-14.790227890014648,-24.26626205444336,165.5568389892578,-71.74916076660156,129.75428771972656,0.5739409923553467,0.8694441318511963,-2.106532573699951
1537.6160411834717,-179.93812561035156,-63.037086486816406,-135.63002014160156,-0.1174757182598114,1.390615463256836,-1.4591436386108398,-140.526123046875,-0.3640088737010956,-91.41715240478516,-0.92557692527771,-26.682117462158203,-4.593305587768555,-162.01535034179688,-39.73571395874024,28.564468383789062,-1.7068798542022705,9.38034439086914,-6.401994705200195,52.16363525390625,16.646198272705078,-23.382686614990234,42.64786529541016,-26.872859954833984,-13.661865234375,156.63829040527344,-72.55337524414062,136.90005493164062,-2.2015185356140137,-0.9457669258117676,-2.40811824798584
1537.676647901535,177.27476501464844,-58.969722747802734,-132.83786010742188,2.061748504638672,-0.0535092800855636,-0.6958503723144531,-134.45291137695312,3.270155668258667,-90.5699691772461,-5.079592704772949,-31.921123504638672,-7.809508323669434,-154.48695373535156,-40.86723709106445,15.651633262634276,-1.8979196548461916,9.715227127075195,-6.7801008224487305,49.30789566040039,7.890575408935547,-20.609020233154297,16.793487548828125,-6.24835205078125,-10.652019500732422,148.24215698242188,-73.37091064453125,144.6381378173828,-0.2052932977676391,1.359635591506958,-1.262075424194336
1537.706760406494,175.49732971191406,-55.31734848022461,-129.45004272460938,1.766016721725464,1.0323128700256348,-0.772120475769043,-128.49574279785156,8.897333145141602,-88.52491760253906,-9.285322189331056,-24.13751220703125,-14.073116302490234,-141.7036895751953,-39.49439239501953,0.8772789239883423,-1.8867130279541016,17.357032775878906,-2.093993186950684,46.60059356689453,5.330380916595459,-23.10623359680176,13.873128890991213,-13.548049926757812,-15.869150161743164,142.15728759765625,-72.90199279785156,149.1857147216797,0.967873215675354,1.5874552726745603,7.328195571899414
1537.7368540763855,174.9546356201172,-52.36773300170898,-128.0221710205078,2.0348567962646484,0.4728191494941711,-0.1867341995239257,-127.60843658447266,12.964427947998049,-86.20091247558594,-10.922727584838867,-20.017120361328125,-6.041413307189941,-119.2233428955078,-35.21916580200195,-13.606971740722656,7.877058982849121,20.451583862304688,0.0637321472167968,35.893943786621094,2.105419158935547,-23.63716506958008,25.08373641967773,-17.25368881225586,-3.684749126434326,140.64842224121094,-71.75959014892578,150.49349975585938,-6.810190200805664,-4.735184669494629,11.809608459472656
1537.766015291214,175.4528045654297,-50.77125930786133,-128.1172332763672,0.9104913473129272,1.5594747066497805,1.563380241394043,-126.015625,13.314752578735352,-84.78998565673828,-3.8417506217956543,-10.588571548461914,-1.399613380432129,-99.0551300048828,-26.76179313659668,-25.874929428100582,10.33696746826172,28.199199676513672,4.583046913146973,23.11928939819336,-3.706434965133667,-21.208484649658203,15.950942993164062,-25.127418518066406,-9.326715469360352,140.47071838378906,-70.75547790527344,150.8714141845703,-1.3958125114440918,-2.4670629501342773,8.209047317504883
1537.796485900879,177.02545166015625,-50.929500579833984,-128.96165466308594,0.373309314250946,1.5179297924041748,2.7120237350463867,-126.28108978271484,10.75764274597168,-85.72613525390625,0.3345564007759094,-1.391723394393921,-4.262452125549316,-77.6495132446289,-14.451254844665527,-33.78800201416016,22.56475830078125,23.117233276367188,6.675041198730469,28.43315887451172,-8.842610359191895,-14.56540584564209,24.38253402709961,-11.591886520385742,-10.599363327026367,141.44570922851562,-69.70170593261719,149.88548278808594,-0.5080779790878296,-4.074830055236816,7.162960052490234
1537.8265233039856,178.7813720703125,-52.28637313842773,-129.4611358642578,0.041029155254364,1.69250226020813,1.982940673828125,-130.76461791992188,6.63084077835083,-89.44668579101562,4.859931945800781,2.185868740081787,-7.587000846862793,-58.14154815673828,-0.5308917164802551,-36.91300582885742,16.50792694091797,16.082595825195312,1.615560531616211,37.894962310791016,-15.373282432556152,-5.773199558258057,27.12904357910156,17.774539947509766,-2.902806282043457,138.37332153320312,-71.3125,154.54933166503906,-6.858328819274902,-2.6027979850769043,9.368330001831056
