Timestamp,D4:22:CD:00:05:5D_EulerX,D4:22:CD:00:05:5D_EulerY,D4:22:CD:00:05:5D_EulerZ,D4:22:CD:00:05:5D_FreeAccX,D4:22:CD:00:05:5D_FreeAccY,D4:22:CD:00:05:5D_FreeAccZ,D4:22:CD:00:05:5E_EulerX,D4:22:CD:00:05:5E_EulerY,D4:22:CD:00:05:5E_EulerZ,D4:22:CD:00:05:5E_FreeAccX,D4:22:CD:00:05:5E_FreeAccY,D4:22:CD:00:05:5E_FreeAccZ,D4:22:CD:00:05:6B_EulerX,D4:22:CD:00:05:6B_EulerY,D4:22:CD:00:05:6B_EulerZ,D4:22:CD:00:05:6B_FreeAccX,D4:22:CD:00:05:6B_FreeAccY,D4:22:CD:00:05:6B_FreeAccZ,D4:22:CD:00:05:6E_EulerX,D4:22:CD:00:05:6E_EulerY,D4:22:CD:00:05:6E_EulerZ,D4:22:CD:00:05:6E_FreeAccX,D4:22:CD:00:05:6E_FreeAccY,D4:22:CD:00:05:6E_FreeAccZ,D4:22:CD:00:49:AA_EulerX,D4:22:CD:00:49:AA_EulerY,D4:22:CD:00:49:AA_EulerZ,D4:22:CD:00:49:AA_FreeAccX,D4:22:CD:00:49:AA_FreeAccY,D4:22:CD:00:49:AA_FreeAccZ
516.2861597537994,-177.8731231689453,-46.81853866577149,-65.10061645507812,-2.183635234832764,-2.2549619674682617,2.733073234558105,-172.2884979248047,-58.74204635620117,-24.304855346679688,2.983106136322021,4.530403137207031,-2.02112340927124,-58.46868896484375,-4.685879707336426,-96.72420501708984,0.4466023445129394,-0.8733075857162476,19.42626571655273,103.65680694580078,-5.1910176277160645,-74.64363861083984,3.204591751098633,1.8826677799224851,-1.5656070709228516,144.59039306640625,-74.14864349365234,149.91427612304688,-5.808502197265625,-0.9972012042999268,8.993598937988281
516.2961657047272,-176.3832244873047,-49.65523147583008,-65.70311737060547,-2.6434688568115234,-1.8458616733551023,4.165741920471191,-173.23199462890625,-66.39815521240234,-20.515966415405277,1.867321252822876,3.3220348358154297,-3.857845306396485,-47.38331604003906,7.574339866638184,-90.82769775390624,0.3679208755493164,-6.46764087677002,10.915666580200195,109.2834930419922,-18.13349723815918,-74.22200012207031,2.7369918823242188,2.2174806594848637,-0.3520622253417969,144.87127685546875,-76.62922668457031,155.02105712890625,-3.075049877166748,-0.1683734059333801,4.466861724853516
516.354161977768,176.4903564453125,-62.85285568237305,-122.20641326904295,1.8483359813690183,1.9116175174713133,0.8240737915039062,-157.3610076904297,-62.43550491333008,-43.31838607788086,3.228113174438477,-6.959959030151367,18.962425231933597,-69.00552368164062,-20.48662376403809,-95.0889663696289,-5.330953598022461,9.077896118164062,9.779640197753906,58.58523941040039,-44.54387283325195,143.520751953125,-27.35586166381836,-1.6777303218841553,12.792465209960938,88.73065948486328,-55.27970123291016,-157.89682006835938,-9.01121711730957,-7.011829376220703,4.467580795288086
516.3837819099426,178.06153869628906,-59.04454040527344,-123.4167938232422,1.6908447742462158,4.120360374450684,-0.1161012649536132,-175.6802978515625,-64.97628784179688,-26.835084915161133,7.159918785095215,-11.810359954833984,19.62981414794922,-70.26666259765625,-2.7117044925689697,-90.95945739746094,-3.6441383361816406,2.7164478302001958,26.243392944335938,137.7709197998047,-61.0474739074707,68.7488784790039,-2.15098237991333,20.602798461914062,9.630804061889648,96.9233856201172,-66.97443389892578,-163.613525390625,-2.029374122619629,-5.48795223236084,2.422174453735352
516.4142551422119,-179.90077209472656,-56.552276611328125,-124.06690216064452,0.2269675731658935,3.545984268188477,2.523365974426269,140.9154052734375,-75.8606185913086,20.6025447845459,-3.350844383239746,-1.4257066249847412,5.488897323608398,-65.4195785522461,16.971004486083984,-83.07864379882812,-0.9562320709228516,-13.654361724853516,23.26822280883789,-135.72608947753906,-65.40460205078125,-6.251099586486816,8.503284454345703,2.471968173980713,7.056886672973633,113.82533264160156,-73.30644989013672,-178.1230926513672,-0.6611852645874023,-2.699049472808838,7.537929534912109
516.4442510604858,-178.37554931640625,-55.40913009643555,-124.736083984375,-0.9614009857177734,2.9607391357421875,2.7880735397338867,112.64434051513672,-72.79114532470703,46.89617919921875,2.9000515937805176,1.0263516902923584,1.6963844299316406,-50.45411682128906,34.44159698486328,-70.8909683227539,5.5091705322265625,-22.739727020263672,10.541145324707031,-88.0599594116211,-57.65499496459961,-40.4068603515625,9.288942337036133,-17.120731353759766,-3.566816806793213,132.49734497070312,-75.7035903930664,165.17855834960938,-2.3244528770446777,-2.268118381500244,8.64454460144043
516.47425365448,-177.08688354492188,-55.57773208618164,-125.7201690673828,0.4106940627098083,2.41511869430542,2.386259078979492,91.73111724853516,-71.95712280273438,75.76470947265625,1.4262330532073977,9.115608215332031,-2.0882930755615234,-26.370073318481445,45.57182312011719,-55.07313919067383,7.782195091247559,-18.379474639892575,-0.6330728530883789,-74.74051666259766,-52.15946960449219,-47.34318542480469,10.67661476135254,-17.879409790039062,-3.374687671661377,148.4934844970703,-76.91768646240234,151.2270965576172,-3.483325958251953,-3.276432037353516,9.677358627319336
516.5047709941864,-175.59580993652344,-57.33002853393555,-126.59986877441406,1.1684317588806152,1.7650001049041748,3.0405006408691406,65.48229217529297,-68.9104232788086,106.50714874267578,-1.1824448108673096,3.6822047233581534,-2.64022159576416,-2.193711757659912,50.06684112548828,-41.72044372558594,7.421762466430664,-8.290733337402344,-1.860548496246338,-63.94538497924805,-48.91678237915039,-47.27110290527344,16.757984161376953,-16.52234649658203,-6.555765151977539,164.72605895996094,-77.96498107910156,138.6185302734375,-4.697516441345215,-0.9623068571090698,6.821613311767578
516.5337624549866,-173.61595153808594,-60.83498001098633,-126.856201171875,-3.683187961578369,3.3014278411865234,5.915000915527344,49.31657791137695,-59.20808792114258,125.45703887939452,-1.4229998588562012,7.129444122314453,-1.4556865692138672,13.49453067779541,52.0576400756836,-34.42353439331055,0.4728891849517822,-5.952641487121582,-0.6986150741577148,-55.687496185302734,-48.14488983154297,-43.452178955078125,15.04140281677246,-14.901145935058594,-11.361799240112305,179.4532012939453,-79.17931365966797,128.71705627441406,-3.5381627082824707,-1.3134820461273191,5.436361312866211
516.5640790462494,-172.92880249023438,-65.15823364257812,-123.90202331542967,-11.478843688964844,-1.2020409107208252,8.275861740112305,42.16471099853516,-45.3360481262207,136.6333770751953,-9.891624450683594,10.256439208984377,0.2208452224731445,20.04866981506348,53.03249740600586,-30.25588798522949,-6.738251686096191,-2.5273966789245605,-2.4500203132629395,-52.86541748046875,-49.15467834472656,-35.23823547363281,11.900623321533203,-9.086954116821287,-10.370826721191406,-164.2850341796875,-80.12352752685547,117.79933166503906,-0.8456281423568726,-0.9409281015396118,1.6334171295166016
516.6235914230347,-179.48728942871094,-70.67723846435547,-116.71315002441406,-10.792253494262695,-6.058353424072266,0.0008125305175781,36.13644790649414,-32.63788986206055,142.84945678710938,-17.310253143310547,8.312360763549805,-8.867620468139648,14.79604434967041,52.96773910522461,-27.964542388916016,-5.32871150970459,3.018074512481689,-4.492197036743164,-52.593379974365234,-49.71344375610352,-25.848052978515625,11.178232192993164,-5.5559186935424805,-11.239191055297852,-147.18087768554688,-79.67842864990234,105.61453247070312,-0.613951563835144,-0.938052773475647,-2.785797119140625
516.6537749767303,165.49630737304688,-72.23020935058594,-97.19254302978516,9.379493713378906,-1.8319356441497805,-6.7053327560424805,29.13315773010254,-24.91343688964844,146.01412963867188,-18.986072540283203,6.557132720947266,-15.78073501586914,1.7782350778579712,53.95723342895508,-29.552091598510746,-4.309161186218262,-3.559067249298096,-8.615242004394531,-52.03549575805664,-50.64022064208984,-16.65546417236328,6.115396499633789,-0.5346325635910034,-13.156906127929688,-131.6855010986328,-79.24784851074219,93.47138214111328,1.385845422744751,2.7340450286865234,-8.47596549987793
516.6846814155579,155.30831909179688,-70.63836669921875,-77.2691879272461,2.806558132171631,-3.280169486999512,-9.704687118530272,23.9276180267334,-21.873994827270508,149.8760223388672,-11.234851837158203,8.728290557861328,-24.17656707763672,-10.10495948791504,55.902645111083984,-41.1549072265625,-1.2378900051116943,-3.913049697875977,-10.85991668701172,-50.99930953979492,-51.59496307373047,-8.55737590789795,3.3281359672546387,1.18080472946167,-12.133441925048828,-117.6366195678711,-80.1064224243164,81.7975845336914,1.389054536819458,3.6528382301330566,-12.859304428100586
516.7152199745178,148.62940979003906,-71.23857879638672,-62.47494888305664,10.697782516479492,-0.7074334621429443,-11.659982681274414,22.61627769470215,-23.733665466308597,153.63357543945312,-8.100990295410156,-0.5793118476867676,-25.737110137939453,-20.119110107421875,54.8309440612793,-64.32740020751953,-3.558469772338867,-2.192268848419189,-12.675970077514648,-48.76417541503906,-52.26618576049805,-1.807822823524475,3.701664924621582,2.598208427429199,-12.145313262939451,-95.6104507446289,-81.49845886230469,62.06875228881836,-1.4421045780181885,-1.1712307929992676,-9.253358840942385
516.7443654537201,150.13111877441406,-70.2661361694336,-57.1228141784668,1.787846565246582,12.341062545776367,-0.9004354476928711,24.076679229736328,-29.318096160888672,155.8948516845703,-10.938909530639648,-3.840784072875977,-16.61785888671875,-24.229246139526367,47.48957824707031,-88.84505462646484,-6.000741004943848,-4.9154863357543945,-17.214317321777344,-44.50785446166992,-53.0610466003418,2.7638750076293945,5.981767654418945,4.050731658935547,-10.809186935424805,-71.02418518066406,-80.91336822509766,39.55541610717773,-1.4530465602874756,-2.4159092903137207,-8.768045425415039
516.774373292923,152.64486694335938,-69.07801055908203,-57.02943801879883,-1.5759692192077637,2.708789825439453,-1.7452983856201172,19.581602096557617,-38.86640930175781,156.34800720214844,-13.116792678833008,-6.071184158325195,-10.074708938598633,-22.810243606567383,37.05148315429688,-105.81031036376952,-9.41533088684082,-18.929988861083984,-20.07021713256836,-40.5113525390625,-54.4481201171875,5.722535133361816,7.525581359863281,7.014730453491211,-7.120447158813477,-58.83765411376953,-79.98290252685547,30.37165260314941,0.7979403734207153,-0.0914855301380157,-4.973409652709961
516.804060459137,153.29397583007812,-68.17583465576172,-57.29214477539063,-2.5193347930908203,-3.091930866241455,0.0684499740600586,11.015721321105955,-50.790489196777344,155.6986846923828,-12.202106475830078,-1.824211359024048,-6.143838882446289,-10.715266227722168,35.27337646484375,-117.37194061279295,-3.537704944610596,6.641524314880371,-19.05937957763672,-36.99651718139648,-56.24003219604492,7.0343918800354,7.219923973083496,9.0439453125,-3.2368106842041016,-47.84744644165039,-79.42577362060547,21.701393127441406,-0.5933696031570435,1.155681848526001,-1.7397775650024414
516.8342185020447,151.82029724121094,-67.08830261230469,-55.96219253540039,2.8087778091430664,-5.385577201843262,3.0310354232788086,5.138859748840332,-60.95719146728516,154.47315979003906,3.618475437164306,3.2718491554260254,19.83782196044922,-9.78977108001709,37.58087539672852,-113.19251251220705,18.916160583496094,9.999738693237305,-14.203702926635742,-33.21236038208008,-58.074981689453125,6.7071919441223145,6.721059799194336,9.609834671020508,-0.3621530532836914,-46.47237777709961,-79.54108428955078,21.935646057128903,-1.1245365142822266,-0.3571003675460815,0.1593313217163086
516.8732187747955,151.28692626953125,-65.3701171875,-53.05270004272461,1.9156877994537356,0.7490079402923584,2.527524948120117,11.265363693237305,-63.96500396728516,152.1702880859375,4.220559120178223,-6.073285102844238,6.535604476928711,-13.953375816345217,41.12880706787109,-98.86531066894533,-11.021604537963867,-4.413652420043945,-6.812191963195801,-31.601295471191406,-61.2323112487793,6.53992223739624,6.32752799987793,12.409494400024414,3.309814453125,-43.775638580322266,-80.45748138427734,20.279285430908203,-0.2234610915184021,-1.348691701889038,4.133543014526367
516.9239115715027,148.51097106933594,-64.24395751953125,-50.37044143676758,2.623844623565674,0.4290704131126404,4.784795761108398,14.64180850982666,-65.69059753417969,147.4108428955078,-6.101628303527832,-2.2602076530456543,10.672231674194336,-7.50963020324707,44.002708435058594,-80.69327545166016,-8.147899627685547,-8.440521240234375,-11.445533752441406,-34.89322662353516,-64.91252899169922,6.290035247802734,4.22707462310791,14.144014358520508,5.808608055114746,-42.33776092529297,-81.98717498779297,18.68535614013672,-0.2458718419075012,-1.1371080875396729,2.9957046508789062
516.9540021419525,143.3199462890625,-63.70606994628906,-46.853553771972656,0.7358864545822144,-1.4860918521881104,3.877060890197754,12.247368812561035,-68.1866455078125,145.3419952392578,-2.4416794776916504,10.388507843017578,6.313941955566406,-2.532550096511841,43.293338775634766,-62.08758163452149,-4.264338493347168,-3.3303356170654297,-5.770876884460449,-42.59228897094727,-66.9162826538086,6.456571102142334,-2.160696029663086,9.396915435791016,8.957807540893555,-49.50936126708984,-83.18939971923828,25.5192985534668,0.6844086647033691,-1.1810636520385742,4.736681938171387
516.9845283031464,137.6680450439453,-62.828643798828125,-42.65911865234375,2.6873083114624023,-1.1689941883087158,1.7537899017333984,10.244105339050291,-69.77406311035156,143.30380249023438,-5.5725507736206055,8.010509490966797,-1.9952917098999023,-1.801361918449402,40.6830940246582,-47.5554313659668,-3.350514411926269,-1.3081862926483154,1.306685447692871,-46.34148788452149,-65.90625762939453,4.4112467765808105,-3.2499542236328125,9.55748176574707,8.35833740234375,-66.60872650146484,-83.9532470703125,41.93584442138672,3.4776430130004883,0.7798217535018921,2.180458068847656
517.0136270523071,131.8367156982422,-61.12769317626953,-41.09152603149414,7.567538261413574,-2.9349498748779297,0.6885662078857422,14.068707466125488,-69.63453674316406,138.29759216308594,-5.123419761657715,4.157353401184082,-0.3859443664550781,-3.178067207336426,37.22563934326172,-37.62909698486328,-10.487922668457031,5.00016975402832,-1.538774490356445,-44.95181655883789,-63.186805725097656,-2.055572509765625,-0.5819829702377319,4.869192123413086,5.333024978637695,-93.06710052490234,-83.20571899414062,65.64244842529297,5.017128944396973,5.982104301452637,-1.2383403778076172
517.0447690486908,125.46039581298828,-59.99382019042969,-43.44161987304688,14.25468635559082,1.0916688442230225,6.466379165649414,19.89177894592285,-68.95096588134766,131.79478454589844,-3.801839828491211,2.811981678009033,-0.8850908279418945,-8.543575286865234,30.071168899536133,-29.975399017333984,-10.632946014404297,6.089285850524902,-6.928540229797363,-41.28678131103516,-59.43886947631836,-10.776083946228027,1.213531732559204,-2.297502040863037,-0.0075922012329101,-118.01486206054688,-81.04527282714844,84.59403228759766,8.868900299072266,6.989354133605957,-4.305853843688965
517.0740764141083,126.2203140258789,-56.33806610107422,-55.06148147583008,16.509422302246094,22.0627555847168,10.35965347290039,26.28020477294922,-68.06336975097656,125.86156463623048,-4.723389625549316,0.5766180753707886,-1.200544357299805,-18.32659912109375,19.161516189575195,-23.580730438232425,-4.177248954772949,-0.1801320314407348,-8.34874153137207,-39.1465072631836,-55.09789276123047,-18.84889793395996,6.075861930847168,-11.43442153930664,-2.5745577812194824,-138.73513793945312,-77.7168960571289,97.53618621826172,5.485980033874512,0.9501280784606934,-2.099653720855713
517.1041023731232,134.0341033935547,-50.11517333984375,-70.8906021118164,14.870702743530272,11.644800186157228,-0.622767448425293,30.716846466064453,-67.71038818359375,122.04196166992188,-5.212322235107422,-0.2492074370384216,-1.4753961563110352,-28.168506622314453,6.638452053070068,-17.8757266998291,3.1023073196411133,-5.642704010009766,-0.7135105133056641,-39.65250015258789,-52.01317596435547,-25.38649177551269,5.598081588745117,-16.640838623046875,-3.667303562164306,-144.88333129882812,-74.83136749267578,102.71366119384766,-4.318225860595703,-3.5429978370666504,5.503216743469238
517.1341423988342,142.12838745117188,-42.70866012573242,-86.00285339355469,9.057327270507812,3.605330467224121,-7.960580825805664,32.737300872802734,-68.32659149169922,120.0015106201172,-4.106925010681152,0.4519492387771606,-1.4173946380615234,-36.81917953491211,-6.700504302978516,-13.059988021850586,4.543610572814941,-3.3250718116760254,-2.869983673095703,-36.07442855834961,-52.13268280029297,-30.581735610961918,2.919572353363037,-15.90853500366211,-5.270437240600586,-144.4932403564453,-73.53649139404297,105.2891082763672,-2.227463722229004,1.784334659576416,3.7311840057373047
517.1641421318054,151.32131958007812,-34.640625,-98.17833709716795,2.4235496520996094,0.3566940426826477,-12.717294692993164,34.5524787902832,-69.42159271240234,118.78294372558594,-3.407512187957764,2.043827533721924,-1.5357542037963867,-45.45094299316406,-22.92696952819824,-9.948169708251951,8.63775634765625,-7.232108116149902,-0.6306648254394531,-27.466102600097656,-54.98328399658203,-36.10485076904297,5.336304664611816,-11.509828567504885,-8.142948150634766,-145.354248046875,-72.97416687011719,105.55860900878906,2.571893215179444,8.085466384887695,-1.3743104934692385
517.2239563465118,162.62469482421875,-27.25815773010254,-107.76742553710938,0.5761806964874268,-0.2910545468330383,-11.351198196411133,37.315162658691406,-71.82694244384766,116.6681137084961,-3.373025894165039,1.0029773712158203,-1.8260979652404783,-48.365081787109375,-43.31433868408203,-8.997179985046387,14.07843780517578,-9.943132400512695,12.697921752929688,-15.966889381408691,-58.96751022338867,-44.45381927490234,5.128656387329102,-6.138916015625,-6.56245231628418,-147.7255401611328,-73.0929946899414,105.83250427246094,2.661182403564453,4.369516372680664,-5.86241340637207
517.254435300827,173.74838256835938,-21.80839157104492,-116.28314208984376,-4.52631950378418,-1.801743507385254,-7.259830474853516,42.17909240722656,-75.51448059082031,111.2544403076172,-4.2323808670043945,1.2473056316375732,-1.80792236328125,-30.57024955749512,-62.62988662719727,-21.12020874023437,10.00069808959961,0.4735183715820312,31.60215377807617,-0.7375935316085815,-61.84321594238281,-56.80350112915039,3.549745559692383,-2.86148452758789,-5.976606369018555,-150.81895446777344,-73.0212631225586,107.4176254272461,0.2354305386543274,0.75792396068573,-5.82163143157959
517.283951997757,-179.79318237304688,-19.27339553833008,-124.25935363769533,-13.48944091796875,-2.628077983856201,-5.135489463806152,51.15673828125,-79.4441146850586,101.68566131591795,-4.442299842834473,-0.2157021760940551,-1.5156288146972656,-7.033158779144287,-71.12317657470703,-39.827884674072266,-5.951694488525391,-0.0294182300567626,13.884662628173828,16.928863525390625,-62.439212799072266,-71.04821014404297,2.129305362701416,-1.4567818641662598,-5.723545074462891,-150.6143035888672,-73.29569244384766,107.09021759033205,-2.17435073852539,-2.3466615676879883,-4.798925399780273
517.3140020370483,175.33746337890625,-20.50188446044922,-129.983154296875,-17.386821746826172,5.48123836517334,6.081398010253906,70.60054016113281,-82.7080307006836,81.55789947509766,-5.252246856689453,2.1022844314575195,-1.4957847595214844,-3.765424489974976,-70.05227661132812,-28.677410125732425,18.48391342163086,8.41630744934082,4.049391746520996,34.44815826416016,-60.761375427246094,-84.49932861328125,3.5611886978149414,-0.1563891470432281,-1.4840469360351562,-148.50540161132812,-73.3731918334961,105.6639633178711,0.4341980218887329,-2.1182336807250977,-1.381089210510254
517.344006061554,169.564208984375,-18.90616607666016,-127.8739013671875,-12.373405456542969,-11.935813903808594,3.5909557342529297,100.57500457763672,-84.14415740966797,50.50235366821289,-5.907788276672363,3.5581655502319336,-0.8111753463745117,-18.23046112060547,-64.37189483642578,-5.966376304626465,14.222372055053713,-0.5407171249389648,10.544523239135742,50.25109100341797,-56.68714141845703,-96.70584869384766,3.7445693016052246,-0.2967550158500671,8.833417892456055,-144.8711700439453,-73.69488525390625,102.04608154296876,6.692487716674805,6.43116569519043,2.398538589477539
517.3749418258667,178.6309356689453,-19.885629653930664,-123.54885864257812,2.0425076484680176,-22.99604797363281,2.6619176864624023,122.25609588623048,-84.12413787841797,27.818944931030277,-6.189552307128906,3.964963912963867,-0.0083703994750976,-34.48713684082031,-54.430267333984375,4.926070690155029,16.131572723388672,-1.989494800567627,14.668025970458984,63.36562728881836,-49.36503601074219,-103.97581481933594,3.681343078613281,4.369546890258789,22.417808532714844,-148.4357452392578,-72.93123626708984,102.78862762451172,3.3733696937561035,2.6954030990600586,2.917986869812012
517.4046468734741,-177.76516723632812,-22.00132179260254,-120.44808197021484,-7.429920196533203,-12.663021087646484,8.249404907226562,124.12930297851562,-84.01811218261719,25.24808883666992,-5.068958282470703,5.214417457580566,0.235198974609375,-38.941219329833984,-44.68402862548828,4.235132217407227,14.09311294555664,-6.934996604919434,7.163507461547852,74.55561828613281,-39.78726959228516,-108.6557159423828,13.181001663208008,16.656280517578125,28.08516311645508,-152.86996459960938,-73.12982940673828,103.86466979980467,-1.5271601676940918,2.458058357238769,12.485477447509766
517.4336547851562,177.65805053710938,-22.5872802734375,-122.19561004638672,-8.453939437866211,-11.29482078552246,10.100868225097656,108.51061248779295,-83.6025161743164,40.37314987182617,-5.783496856689453,4.236753463745117,0.2615175247192383,-43.19257354736328,-37.58759689331055,0.0953347235918045,10.664363861083984,-4.820585250854492,-0.5460672378540039,82.09843444824219,-27.2478084564209,-116.15540313720705,11.481283187866213,16.88681411743164,25.34576416015625,-153.42604064941406,-73.57108306884766,103.17955780029295,-1.1899168491363523,3.411996841430664,9.719585418701172
517.4736692905426,173.20980834960938,-22.556167602539062,-127.73076629638672,-19.452194213867188,-6.876921653747559,6.221796035766602,82.87992858886719,-82.64720916748047,64.75603485107422,-7.230846405029297,2.707866668701172,0.3929939270019531,-51.74578857421875,-34.749000549316406,-6.6062726974487305,2.266810417175293,-6.581235885620117,-1.6788177490234375,85.90022277832031,-11.216707229614258,-123.23104095458984,4.723504066467285,5.874320983886719,19.77277374267578,-158.08486938476562,-73.35272216796875,106.30197143554688,5.86563777923584,5.678199768066406,9.612493515014648
517.524317741394,169.5297393798828,-24.0089054107666,-131.5665740966797,-21.685955047607425,-3.480476856231689,3.500330924987793,53.35021209716797,-80.5286865234375,91.46988677978516,-4.260395050048828,9.532360076904297,2.7117395401000977,-61.602760314941406,-36.79113006591797,-15.033714294433594,-4.334267616271973,-5.453746795654297,5.5706892013549805,86.43711853027344,6.427388668060303,-130.02308654785156,2.517708778381348,-2.883594036102295,8.321714401245117,-164.93646240234375,-73.13066864013672,109.61204528808594,4.706633567810059,4.216693878173828,6.652519226074219
517.5544736385345,166.01185607910156,-28.47116470336914,-131.7637481689453,-0.178668200969696,-5.09401798248291,4.0209550857543945,29.304353713989254,-76.50971984863281,111.25054168701172,0.4444983005523681,3.319842338562012,14.32685089111328,-63.638710021972656,-41.83367156982422,-26.228670120239254,-4.021913528442383,-1.23555588722229,-0.1188249588012695,81.7983627319336,23.201738357543945,-138.57965087890625,1.838491916656494,-6.171145439147949,1.0851430892944336,-173.08889770507812,-73.51258850097656,112.5528335571289,3.442627429962158,-1.1425645351409912,5.681900024414063
517.5833168029785,164.86672973632812,-32.86825942993164,-132.5281219482422,-6.239574432373047,-6.741182327270508,-4.196656227111816,21.70819664001465,-71.5998764038086,120.39083862304688,-7.020620346069336,3.1562938690185547,-3.289224147796631,-61.00252532958984,-47.64494705200195,-39.69766998291016,-3.194892883300781,-3.013205051422119,-4.883662223815918,71.24539947509766,36.65948867797852,-150.93218994140625,6.310627937316895,-6.067649841308594,-4.894858360290527,178.5312042236328,-74.58497619628906,115.95539855957033,2.1365389823913574,0.7121407985687256,-2.205495834350586
517.6139342784882,160.3090057373047,-39.31776428222656,-132.62783813476562,-5.687067985534668,-0.4834569692611694,-7.2138214111328125,12.759970664978027,-73.66181182861328,125.24333953857422,-7.342144012451172,8.646749496459961,-10.742258071899414,-59.53932571411133,-52.76537704467773,-53.3359260559082,-3.154005527496338,-3.185630321502685,-5.916494369506836,51.74376678466797,43.88816833496094,-167.35409545898438,11.388799667358398,-9.094064712524414,-6.566714286804199,170.15296936035156,-74.4155502319336,119.10667419433594,2.607905864715576,0.6330212354660034,-7.430397033691406
517.6440732479095,155.70884704589844,-47.56461715698242,-132.10263061523438,-5.197662353515625,-4.100719451904297,-18.581676483154297,-4.410245895385742,-78.08456420898438,135.9424285888672,1.043611764907837,-8.31787109375,-6.61446475982666,-59.22150421142578,-56.75152969360352,-66.9820327758789,-3.0222787857055664,-0.5815474987030029,-5.366556167602539,26.813831329345703,44.47097396850586,179.9949951171875,11.710067749023438,-1.8273499011993408,-9.904199600219728,168.03402709960938,-73.44599914550781,116.6316146850586,-2.5729947090148926,0.0287176147103309,-9.285219192504885
517.6740791797638,153.3582763671875,-61.70236587524414,-131.21852111816406,-5.980560302734375,-2.8186745643615723,-10.962984085083008,-21.90040397644043,-78.20085906982422,145.53125,-4.731415748596191,-8.455619812011719,-10.641292572021484,-55.94265365600586,-59.41065216064453,-82.09458923339844,-2.8274126052856445,1.4785654544830322,-5.63619327545166,8.818161010742188,43.63317108154297,179.5873260498047,1.2667808532714844,5.108955383300781,-7.849884033203125,166.49668884277344,-73.93833923339844,115.92623138427734,-2.161415100097656,2.008334159851074,-8.095762252807617
517.7045891284943,143.68453979492188,-82.49134063720703,-124.67417907714844,1.6185662746429443,1.6761689186096191,17.283458709716797,-38.031368255615234,-79.45924377441406,154.4912109375,-12.257568359375,0.5921392440795898,-6.487691879272461,-48.42102813720703,-61.06134033203125,-99.14183807373048,-2.458772659301758,1.6159749031066897,-6.971163749694824,6.31034517288208,46.51648712158203,-169.56655883789062,-7.03940486907959,-3.839641571044922,-8.575883865356445,158.32861328125,-75.94945526123047,121.53852081298828,0.9677654504776,1.8837175369262693,-8.655851364135742
517.7341783046722,-17.182689666748047,-77.5269546508789,34.46754455566406,17.264278411865234,5.145357131958008,16.910446166992188,-55.04248428344727,-80.5535888671875,168.47869873046875,-4.155501365661621,0.2065069675445556,-4.657655715942383,-38.6632080078125,-61.99640655517578,-114.83203887939452,-2.414285659790039,1.6137075424194336,-6.809233665466309,19.50896644592285,48.73313522338867,-146.73648071289062,-15.690397262573242,-13.730030059814451,-23.781494140625,152.52017211914062,-77.01756286621094,123.95333099365234,2.1117100715637207,-1.9411461353302,-9.510822296142578
517.7641859054565,-9.900972366333008,-67.8310546875,28.45871925354004,20.503223419189453,13.781890869140623,-30.81835174560547,-78.69210815429688,-80.70999908447266,-170.35101318359375,1.0384557247161863,2.365084648132324,-1.7460289001464844,-28.386781692504883,-63.05849838256836,-130.66342163085938,-2.241316318511963,2.954329490661621,-5.797245979309082,42.27775192260742,44.370262145996094,-124.3802719116211,-12.197612762451172,-25.02507781982422,-38.14476776123047,152.19137573242188,-77.19526672363281,122.19222259521484,0.5685678720474243,-4.008749008178711,-3.777600288391113
517.8237152099609,-10.945740699768066,-69.02326202392578,26.49582290649414,14.962362289428713,3.521620750427246,-10.80548858642578,-104.2786865234375,-79.00946807861328,-150.18548583984375,-4.223721504211426,1.3380165100097656,4.585895538330078,-18.1893310546875,-64.04358673095703,-145.74349975585938,-0.6802017688751221,2.947096824645996,-4.762006759643555,60.32559585571289,47.506534576416016,-127.6563491821289,2.775309562683105,11.638622283935549,-10.25006866455078,152.09393310546875,-77.7809829711914,121.06433868408205,-0.7555702924728394,-0.7268990278244019,-1.2564458847045898
517.8540832996368,4.271655559539795,-74.68067169189453,15.443829536437988,11.128591537475586,-0.0657429248094558,-2.8019399642944336,-114.35047912597656,-76.94487762451172,-141.287109375,-6.03708553314209,-1.6218342781066897,0.6378517150878906,-12.184308052062988,-65.03929138183594,-157.4626922607422,-3.418537139892578,1.9720590114593504,-4.085951805114746,63.97758865356445,53.585731506347656,-143.83494567871094,2.910076141357422,-13.475399017333984,-2.1171646118164062,149.90335083007812,-78.7188720703125,121.26239013671876,3.27777099609375,4.868231773376465,-0.629298210144043
517.8838837146759,42.86084365844727,-80.1406478881836,-12.12958526611328,9.89950180053711,4.012142181396484,-1.1023378372192385,-117.28411865234376,-75.21711730957031,-138.00271606445312,-3.1793785095214844,3.2352209091186523,4.256466865539551,-6.426426410675049,-67.7868423461914,-168.6231231689453,-2.608750820159912,3.645842075347901,3.482250213623047,46.32211685180664,56.82129669189453,-171.34976196289062,-4.533913612365723,-8.2138671875,-11.976604461669922,152.47811889648438,-79.44354248046875,117.70123291015624,2.4061408042907715,1.7658233642578125,1.9837026596069336
517.9139182567596,98.30132293701172,-80.43059539794922,-58.25762176513672,-3.5010461807250977,-0.5237958431243896,6.862039566040039,-116.83265686035156,-73.66569519042969,-137.8266143798828,-5.965084075927734,1.1321790218353271,3.1548280715942383,3.392839193344116,-71.47142791748047,177.6281280517578,-0.4550211429595947,5.536349296569824,6.155738830566406,25.567707061767575,50.99436569213867,158.1441192626953,-1.827103614807129,9.21946144104004,-15.422313690185549,158.48541259765625,-79.97850036621094,111.8408203125,1.0100030899047852,4.376768112182617,3.288418769836426
517.9439158439636,115.52396392822266,-79.45713806152344,-78.30328369140625,1.9487342834472656,-14.52202606201172,2.2950439453125,-113.27349090576172,-72.56836700439453,-140.14366149902344,-5.181491851806641,2.4242196083068848,2.767388343811035,18.621906280517575,-75.22919464111328,161.42088317871094,0.018789529800415,4.195596694946289,6.662961959838867,24.26370620727539,37.35610580444336,138.9517059326172,-3.665838718414306,-9.526643753051758,-12.090307235717772,164.09182739257812,-79.881591796875,107.35090637207033,3.249943256378174,3.113926410675049,6.550956726074219
517.9739234447479,131.1807861328125,-78.94652557373047,-91.28665924072266,-11.086421966552734,-5.956267356872559,15.677738189697266,-107.06369018554688,-71.57036590576172,-144.58973693847656,-6.694174766540527,0.0295622684061527,0.6621379852294922,36.70576858520508,-78.60065460205078,145.51193237304688,1.254955530166626,3.732841014862061,8.017208099365234,25.567716598510746,20.60079765319824,126.36478424072266,-4.125583648681641,1.3821065425872805,-12.260517120361328,169.68678283691406,-79.20471954345703,103.69369506835938,0.7530103921890259,-0.4796122908592224,2.877438545227051
518.0041499137878,144.8168182373047,-76.06070709228516,-96.43482971191406,0.7052942514419556,3.543748378753662,-1.2316303253173828,-96.9079360961914,-70.74275970458984,-151.25997924804688,-5.048635482788086,-1.4503850936889648,1.6807861328125,54.5555305480957,-82.09003448486328,131.17184448242188,1.6927077770233154,3.218186378479004,5.44249439239502,33.6385383605957,4.65727424621582,116.33724975585938,2.3056440353393555,11.070972442626951,-1.4066858291625977,175.0020751953125,-77.35935974121094,101.10980224609376,-0.1371846497058868,-1.498309850692749,2.9265289306640625
518.0342435836792,154.0634765625,-74.71137237548828,-102.23464965820312,-6.600313186645508,9.057056427001951,1.3569440841674805,-80.43544006347656,-69.7034912109375,-160.76394653320312,-9.04307746887207,-1.169288158416748,-2.911990165710449,82.68960571289062,-86.28495788574219,107.35778045654295,2.184875011444092,2.62307071685791,3.332609176635742,43.43659591674805,-6.387223243713379,109.36628723144533,17.805721282958984,18.224105834960938,13.750846862792969,177.05709838867188,-75.31547546386719,102.56800079345705,-2.93326187133789,1.5530686378479004,1.9872169494628904
518.0642437934875,160.52005004882812,-74.0585708618164,-107.33383178710938,-2.562002182006836,-0.4670636057853699,1.61279296875,-63.50408935546875,-68.94035339355469,-163.8054656982422,-23.421783447265625,9.070335388183594,-11.31105613708496,-178.29959106445312,-87.36648559570312,14.889124870300291,3.235597610473633,0.0899736881256103,-0.8405523300170898,57.32670211791992,-11.004816055297852,110.36930084228516,3.2387170791625977,3.664241790771485,1.0413694381713867,-179.19309997558594,-73.7703628540039,104.21307373046876,-1.2242529392242432,-1.699066400527954,-2.153136730194092
518.1237556934357,168.63710021972656,-73.42212677001953,-113.96310424804688,-0.6424535512924194,-1.1439366340637207,-0.5974893569946289,-57.15903472900391,-70.52298736572266,-153.4333038330078,-28.341461181640625,5.216221809387207,-8.896745681762695,-147.273193359375,-84.32142639160156,-9.351269721984863,1.9436023235321045,-6.283489227294922,-8.223398208618164,59.9162712097168,-12.190940856933594,111.49681854248048,-12.093141555786133,-14.491004943847656,14.45847511291504,-174.993896484375,-71.9869155883789,106.49513244628906,0.5900791883468628,-1.378279447555542,-2.577610492706299
518.1538972854614,174.31256103515625,-72.10023498535156,-119.01458740234376,1.059600591659546,-1.9267609119415283,0.0309429168701171,-81.7348861694336,-73.8051986694336,-121.52245330810548,-19.48041534423828,-5.842609405517578,-11.137514114379885,-157.960693359375,-83.5995101928711,1.0254532098770142,4.342737197875977,-19.26005172729492,-7.368678092956543,54.10942840576172,-11.348814964294434,109.97808837890624,9.543497085571287,-2.9055047035217285,-2.836812973022461,-176.78787231445312,-70.47850799560547,110.95919799804688,2.639544010162353,4.0237321853637695,-1.7417926788330078
518.1994152069092,177.2613525390625,-70.55415344238281,-120.90657806396484,1.1188979148864746,-2.342529773712158,-0.5936899185180664,-124.90460205078124,-72.75629425048828,-78.56570434570312,-6.750972747802734,-4.962656021118164,-10.644235610961914,-178.12307739257812,-84.80326080322266,12.94497299194336,-4.93825626373291,8.313911437988281,-2.077014446258545,62.473365783691406,-11.316041946411133,109.71574401855467,8.527381896972656,-3.3496904373168945,-13.121183395385742,177.66746520996094,-70.19895935058594,115.02838897705078,-0.2576449513435364,1.1580846309661863,-0.265665054321289
518.2144141197205,178.7270050048828,-68.86328125,-121.00084686279295,-0.5445703268051147,0.1477851867675781,0.1629905700683593,-155.14358520507812,-67.74575805664062,-51.26335525512695,0.5565674304962158,-1.9416067600250244,-8.594537734985352,158.53440856933594,-85.29660034179688,34.46519470214844,-4.585492134094238,1.2757952213287354,1.248128890991211,79.6817626953125,-15.178844451904297,110.08335876464844,-2.692073345184326,-2.788503646850586,-5.812877655029297,173.31082153320312,-70.44573211669922,119.02637481689452,-6.397140502929688,1.4651048183441162,0.7781124114990234
518.2445120811462,179.20883178710938,-67.11259460449219,-120.9535140991211,-1.341787576675415,0.0293923988938331,-0.2709531784057617,-172.6665496826172,-64.4677505493164,-35.72664260864258,7.686421394348144,-1.5821104049682615,-6.771644592285156,154.19923400878906,-85.50643157958984,36.74578857421875,-0.1784002482891082,0.655231237411499,0.3999290466308594,92.21495056152344,-23.76396751403809,110.64887237548828,-2.619075298309326,-1.312596082687378,3.153752326965332,170.97311401367188,-70.9563217163086,121.71492767333984,-3.574376106262207,-0.0908562242984771,-0.3812370300292969
518.2736511230469,178.90513610839844,-64.67529296875,-120.9635009765625,-0.4592167139053345,-2.427579879760742,-1.194993019104004,175.6150360107422,-65.69248962402344,-22.948360443115234,15.318092346191406,-3.046546459197998,-5.718090057373047,-173.09173583984375,-87.00173950195312,1.8058655261993408,0.132736325263977,2.988219738006592,-0.690730094909668,94.11888122558594,-37.14652633666992,110.9671630859375,-2.176221370697021,2.768408298492432,7.111625671386719,167.38255310058594,-71.51336669921875,123.98414611816406,0.7261255979537964,-1.001671552658081,-4.119908332824707
518.3041679859161,178.74180603027344,-61.53352355957031,-120.64063262939452,-0.6017155647277832,-0.5012667179107666,-0.738189697265625,163.046875,-70.40675354003906,-5.118207931518555,-1.94181489944458,12.296466827392578,12.214349746704102,-102.94869232177734,-83.60987854003906,-70.86626434326172,-0.6745650768280029,6.684332847595215,1.216273307800293,85.61105346679688,-53.52800369262695,111.3411865234375,-0.2702136635780334,9.988458633422852,16.112953186035156,161.81712341308594,-71.93272399902344,127.64981842041016,-0.1600567400455474,0.3981170058250427,-3.600088596343994
518.3343002796173,178.20339965820312,-57.94645690917969,-119.74026489257812,-0.2467041909694671,-1.526242733001709,-0.7177715301513672,158.70199584960938,-72.91695404052734,5.490602493286133,16.960735321044922,7.100150108337402,3.1680145263671875,-85.5067367553711,-74.95630645751953,-87.81609344482422,1.4697847366333008,6.347524642944336,5.694724082946777,68.77912139892578,-66.50361633300781,117.07742309570312,4.013164520263672,15.852184295654297,27.185470581054688,155.84237670898438,-72.26361083984375,133.42745971679688,-1.3269665241241455,-1.7910454273223877,-3.349111557006836
518.3644270896912,177.83116149902344,-54.31136703491211,-118.57019805908205,-0.4330145120620727,0.2160440385341644,0.2526350021362304,157.0042724609375,-74.0268783569336,10.741966247558594,6.959212303161621,9.206499099731444,12.75649642944336,-75.74356842041016,-63.19407272338867,-94.57238006591795,1.1151375770568848,4.528705596923828,10.940013885498049,67.05555725097656,-65.53368377685547,115.35729217529295,3.8203959465026855,5.83974552154541,-2.15818452835083,147.260498046875,-72.74357604980469,141.97103881835938,0.9860892295837402,-0.9608482122421264,-1.864354133605957
518.424426317215,177.88491821289062,-51.16972351074219,-118.01142120361328,-0.7061306238174438,0.4221893548965454,0.6901664733886719,164.9250030517578,-72.53526306152344,1.779367446899414,4.898731231689453,4.440386772155762,13.774518966674805,-68.91409301757812,-49.23954772949219,-95.78714752197266,-5.046316146850586,9.288673400878906,16.500259399414062,74.306640625,-57.13743209838867,109.32284545898438,-7.317990303039551,24.96944046020508,1.020665168762207,140.85133361816406,-72.60540008544922,148.42294311523438,-0.3124898672103882,0.3626249432563782,5.217187881469727
518.4544186592102,178.62925720214844,-48.780216217041016,-118.5345458984375,-2.114051818847656,1.6863102912902832,1.539240837097168,173.99644470214844,-69.39506530761719,-8.642857551574707,-0.0452337116003036,-2.651566982269287,13.145397186279297,-59.32713317871094,-35.62726211547852,-89.7281265258789,3.970681667327881,5.801901817321777,15.033927917480469,80.76760864257812,-50.3629150390625,111.75469207763672,-9.732383728027344,11.795076370239258,0.4350442886352539,139.1616973876953,-72.21089172363281,152.15240478515625,-1.763105869293213,-1.744347095489502,6.542442321777344
518.484370470047,-179.94656372070312,-47.52749252319336,-119.8125457763672,0.2398723065853119,0.155294120311737,1.3966560363769531,-178.27381896972656,-66.0665512084961,-15.184843063354492,5.399418830871582,-5.397180557250977,7.315700531005859,-42.04010772705078,-21.73688316345215,-80.99088287353516,-0.9097630977630616,-2.624439239501953,18.050800323486328,84.45146179199219,-49.93108367919922,119.42668914794922,-11.341846466064451,6.839483261108398,5.204413414001465,139.72335815429688,-72.3906021118164,153.19876098632812,-0.1704451739788055,0.7465424537658691,6.5231781005859375
518.5143706798553,-177.9958038330078,-47.62620162963867,-121.7979965209961,-1.1465938091278076,1.498260259628296,2.542819023132324,-178.05140686035156,-64.84737396240234,-16.533903121948242,4.55986213684082,-5.793630599975586,2.570476531982422,-26.38074111938477,-6.970092296600342,-69.2821044921875,1.5151515007019043,-11.310441970825195,13.681879043579102,88.57073211669922,-53.74273681640625,128.03326416015625,-9.721731185913086,-3.6498403549194336,11.042165756225586,141.8278350830078,-72.88720703125,152.05538940429688,-0.4857097268104553,0.4634863138198852,7.5048980712890625
518.5443716049194,-175.56190490722656,-49.05514526367188,-124.67689514160156,-0.9261797666549684,1.0758395195007324,2.011054992675781,178.1448516845703,-67.99771118164062,-14.661703109741213,2.1289825439453125,-1.3589017391204834,2.741659164428711,-12.248106956481934,5.667978286743164,-59.35673522949219,9.461091995239258,-9.938047409057615,7.527744293212891,92.9160385131836,-61.843868255615234,135.8057403564453,1.5709819793701172,-0.9609400033950806,12.12123680114746,145.5686798095703,-73.26203155517578,149.69529724121094,-4.294808387756348,-0.520550012588501,8.677362442016602
