Timestamp,D4:22:CD:00:05:5D_EulerX,D4:22:CD:00:05:5D_EulerY,D4:22:CD:00:05:5D_EulerZ,D4:22:CD:00:05:5D_FreeAccX,D4:22:CD:00:05:5D_FreeAccY,D4:22:CD:00:05:5D_FreeAccZ,D4:22:CD:00:05:5E_EulerX,D4:22:CD:00:05:5E_EulerY,D4:22:CD:00:05:5E_EulerZ,D4:22:CD:00:05:5E_FreeAccX,D4:22:CD:00:05:5E_FreeAccY,D4:22:CD:00:05:5E_FreeAccZ,D4:22:CD:00:05:6B_EulerX,D4:22:CD:00:05:6B_EulerY,D4:22:CD:00:05:6B_EulerZ,D4:22:CD:00:05:6B_FreeAccX,D4:22:CD:00:05:6B_FreeAccY,D4:22:CD:00:05:6B_FreeAccZ,D4:22:CD:00:05:6E_EulerX,D4:22:CD:00:05:6E_EulerY,D4:22:CD:00:05:6E_EulerZ,D4:22:CD:00:05:6E_FreeAccX,D4:22:CD:00:05:6E_FreeAccY,D4:22:CD:00:05:6E_FreeAccZ,D4:22:CD:00:49:AA_EulerX,D4:22:CD:00:49:AA_EulerY,D4:22:CD:00:49:AA_EulerZ,D4:22:CD:00:49:AA_FreeAccX,D4:22:CD:00:49:AA_FreeAccY,D4:22:CD:00:49:AA_FreeAccZ
2261.5515220165253,170.12472534179688,-55.36425018310547,-104.2921371459961,2.6892895698547363,0.5305502414703369,1.7916831970214844,-155.3545684814453,-52.65532302856445,-50.6960334777832,-1.596189260482788,-10.987831115722656,6.278919219970703,-60.52516174316406,-38.33454132080078,-44.682395935058594,-3.318936824798584,15.84172821044922,16.678104400634766,61.5604133605957,-37.7017707824707,100.70781707763672,-2.896661758422852,15.01728057861328,12.242498397827148,139.1632537841797,-73.90731811523438,158.186279296875,-6.408608436584473,-3.522352695465088,7.505712509155273
2261.555522918701,170.58067321777344,-53.47179412841797,-103.3897933959961,1.0712192058563232,1.55100679397583,2.2715330123901367,-154.76504516601562,-50.008880615234375,-50.44157028198242,3.3294596672058105,-2.540109634399414,3.286746025085449,-65.4375991821289,-27.662599563598636,-43.03003692626953,-7.495583534240723,23.022602081298828,24.955856323242188,67.07909393310547,-28.50438690185547,105.97792053222656,-12.090190887451172,12.457149505615234,11.823415756225586,139.2765350341797,-74.32001495361328,160.89266967773438,-4.394068717956543,-0.783362865447998,9.269115447998049
2261.558522939682,171.14447021484375,-53.15068817138672,-102.33480834960938,-1.2075982093811035,1.526543378829956,1.4635744094848633,-155.26187133789062,-51.11808395385742,-50.44739532470703,3.181140422821045,0.8900059461593628,-2.0134778022766118,-60.9685173034668,-14.92574977874756,-37.4541015625,-2.856140613555908,10.609569549560549,18.88180160522461,69.23258972167969,-20.856908798217773,112.85424041748048,-10.33884620666504,7.914437294006348,-0.002105712890625,138.52330017089844,-74.57508087158203,163.92819213867188,-0.2054606974124908,-1.6248955726623535,4.246428489685059
2261.636059045792,-87.80084991455078,-67.29780578613281,-176.3757781982422,-6.471243858337402,0.1286748349666595,-0.5283365249633789,-149.14317321777344,-66.1700439453125,-12.844079971313477,-29.5450439453125,-11.4395751953125,32.04630279541016,-80.41778564453125,-66.58342742919922,-115.7498779296875,6.516664505004883,-1.7471098899841309,-2.4720940589904785,52.44169235229492,-67.00565338134766,47.00477981567383,-9.463262557983398,-1.2293457984924316,8.263223648071289,163.15684509277344,-70.93758392333984,126.54473114013672,0.2683532238006592,-0.0023763896897435,-3.2838683128356934
2261.6660594940186,-106.17887878417967,-73.66866302490234,-154.0546875,-5.98353385925293,3.397435188293457,-4.8857526779174805,-176.89785766601562,-27.64640998840332,4.489154815673828,18.75128936767578,-6.411827087402344,-1.531696319580078,-57.546817779541016,-58.275386810302734,-140.6785125732422,7.071460723876953,-7.438564300537109,-2.7142014503479004,56.44772720336914,-62.15999603271485,34.63374328613281,1.5409448146820068,-6.047701835632324,10.053525924682615,153.64857482910156,-71.87918090820312,133.73324584960938,-2.206632137298584,-0.2750968337059021,-4.885869979858398
2261.696058511734,-139.06878662109375,-74.35172271728516,-118.68181610107422,-6.048094749450684,5.490625381469727,-2.334672451019287,163.8118133544922,-23.098369598388672,7.86707592010498,29.687767028808597,5.579458236694336,-0.9238576889038086,-48.0933837890625,-47.34852600097656,-156.15025329589844,0.8544400930404663,-0.8164757490158081,-2.065281867980957,27.104398727416992,-57.33543014526367,50.39342498779297,27.347949981689453,-11.553197860717772,9.99903678894043,155.14547729492188,-75.38237762451172,131.333740234375,-6.193960189819336,-2.4640684127807617,-1.3540849685668943
2261.726608991623,-161.65501403808594,-69.7884750366211,-95.22570037841795,-0.1207644045352935,6.089301109313965,-0.9680519104003906,160.24305725097656,-44.23298645019531,8.596402168273926,21.12296295166016,-3.5450973510742188,12.272165298461914,-56.943946838378906,-31.7763729095459,-155.92076110839844,15.13547706604004,9.899528503417969,23.74793243408203,7.761917591094971,-52.29316711425781,75.02692413330078,-7.910665512084961,23.56176376342773,8.807559967041016,168.96852111816406,-78.32111358642578,117.81590270996094,-1.221611738204956,0.314771294593811,1.0144195556640625
2261.756613254547,-168.33473205566406,-65.0518569946289,-87.71825408935547,-0.2909701466560364,5.8621320724487305,-0.85833740234375,152.3914031982422,-60.18218231201172,18.364961624145508,5.308559417724609,-2.9800257682800293,16.624618530273438,-53.01874923706055,-8.563512802124023,-152.02040100097656,10.647571563720703,-8.255256652832031,42.38147735595703,20.39949989318848,-54.37425994873047,57.91151428222656,7.106938362121582,21.569477081298828,24.72157287597656,177.41177368164062,-78.23654174804688,109.63226318359376,5.110319137573242,-1.7145895957946775,7.648677825927734
2261.786606311798,-170.6168212890625,-62.44587326049805,-83.6632308959961,-3.2913331985473637,1.9995019435882568,4.168404579162598,143.1731414794922,-66.51116943359375,27.457542419433597,-8.487680435180664,3.8899192810058594,13.71198844909668,-34.65428161621094,15.774762153625488,-146.24705505371094,-15.70553970336914,-9.248655319213867,19.706275939941406,42.64891052246094,-53.09222030639648,40.66298675537109,-0.594559907913208,17.51776885986328,7.904294967651367,178.7554931640625,-76.47692108154297,108.06614685058594,3.0414204597473145,-2.9795851707458496,12.077247619628906
2261.816610336304,-172.3375244140625,-61.50187301635742,-80.46173858642578,-5.365249633789063,1.3382174968719482,1.86507511138916,135.24436950683594,-69.0001449584961,36.07469940185547,-2.529641628265381,9.103710174560549,1.3625526428222656,-15.784401893615724,31.68866729736328,-133.883544921875,-18.966045379638672,0.8978748321533203,11.541160583496094,52.99881362915039,-51.55440902709961,34.311771392822266,-7.132925987243652,10.89527702331543,-3.386519432067871,179.0421905517578,-74.96443939208984,107.7782974243164,-5.452692985534668,-1.0034773349761963,12.59353256225586
2261.87614440918,-172.90585327148438,-61.88568115234375,-79.50321197509766,-4.340315818786621,2.0408425331115723,1.7853126525878906,122.94967651367188,-73.25023651123047,50.94585037231445,-4.387274742126465,6.5947370529174805,-3.752251148223877,6.409931182861328,39.62961959838867,-119.9126434326172,-18.952667236328125,11.986026763916016,-1.4522228240966797,54.10161209106445,-52.55525207519531,36.53555679321289,-6.323511123657227,2.8910059928894043,-11.48843765258789,-172.7904510498047,-75.32608032226562,101.7054214477539,-6.554752349853516,2.324944496154785,10.618677139282228
2261.906494379044,-172.34024047851562,-64.02159118652344,-80.63729095458984,-4.321763038635254,3.1692323684692383,3.059789657592773,93.29755401611328,-76.73637390136719,79.74195098876953,-3.3106584548950195,2.058445930480957,-6.348385810852051,27.4926872253418,43.80815505981445,-109.62317657470705,-10.661235809326172,10.066080093383787,-11.719501495361328,49.878883361816406,-55.90313720703125,46.85570526123047,-4.925319671630859,-1.9992780685424805,-12.22469711303711,-158.3036651611328,-75.436279296875,92.24315643310548,-2.296019554138184,3.8645248413085938,7.773366928100586
2261.9370250701904,-170.7323760986328,-69.0738296508789,-83.3145523071289,-1.6067190170288086,3.6521072387695312,4.078834533691406,52.5166015625,-74.76314544677734,117.30023956298828,-3.5346827507019043,6.788864135742188,-9.471405029296877,39.634037017822266,47.5979118347168,-104.13642120361328,0.1814686059951782,3.311062812805176,-14.447723388671877,40.90618896484375,-58.313621520996094,65.26010131835938,-7.765848159790039,-2.280318260192871,-10.61544418334961,-143.61111450195312,-75.20360565185547,83.06831359863281,0.7990779876708984,2.8571605682373047,5.114046096801758
2261.9660334587097,-165.17430114746094,-78.05572509765625,-94.57991027832033,-7.0431318283081055,3.221999168395996,3.621188163757324,28.086257934570312,-68.29263305664062,140.91773986816406,-0.4648533463478088,9.06395149230957,-12.17074966430664,40.68657684326172,51.14997482299805,-106.3590087890625,2.9190902709960938,-1.2236907482147217,-13.325677871704102,31.12370109558105,-57.679569244384766,85.07003784179688,-7.971936225891113,-2.3732080459594727,-11.465421676635742,-130.6842803955078,-75.09844970703125,75.36634826660156,1.943723201751709,-0.5333042144775391,0.0086870193481445
2261.9962270259857,-151.40985107421875,-82.25889587402344,-113.92472076416016,-1.2157559394836426,2.564849853515625,2.0363082885742188,14.942789077758787,-59.99574661254883,153.71588134765625,-4.082598686218262,2.9929699897766118,-12.934040069580078,35.60432052612305,55.70463943481445,-114.58390808105467,4.830927848815918,-2.588505744934082,-12.403020858764648,25.81149101257324,-54.49552154541016,99.18626403808594,-4.496050834655762,-4.522849082946777,-10.731779098510742,-117.34359741210938,-74.52665710449219,67.2469711303711,-1.472937822341919,-0.7938418388366699,-8.449962615966797
2262.0267810821533,-162.1060791015625,-83.17111206054688,-101.83493041992188,4.529671669006348,4.59694766998291,-3.229475975036621,4.785089015960693,-51.9345932006836,159.7688446044922,-9.854497909545898,3.028263092041016,-14.81484603881836,27.00391387939453,62.4246711730957,-128.427001953125,-2.0584988594055176,-5.0965576171875,-12.18160629272461,24.48720359802246,-50.49581909179688,108.41100311279295,-4.296717643737793,-3.06666898727417,-9.951602935791016,-106.15888214111328,-73.14956665039062,61.30816268920898,0.2458075881004333,0.6915444135665894,-14.647069931030272
2262.05676984787,-174.55050659179688,-79.91973876953125,-83.70361328125,10.144458770751951,-1.980499505996704,-9.451456069946287,-4.826694488525391,-46.15351867675781,163.55047607421875,-12.969526290893556,3.24511194229126,-12.88011360168457,11.7686128616333,71.78878784179688,-156.5343017578125,4.000527381896973,-1.664289474487305,-12.845375061035156,24.88365936279297,-47.018802642822266,115.16879272460938,-5.943438529968262,-5.360841751098633,-7.93874454498291,-97.3995590209961,-73.36416625976562,57.064247131347656,6.114087104797363,2.317400932312012,-12.529273986816406
2262.085770368576,-170.61268615722656,-77.65788269042969,-81.0046615600586,2.163980007171631,-2.898829460144043,-8.349479675292969,-13.561875343322754,-43.2408561706543,167.8314971923828,-10.78264045715332,4.476031303405762,-13.782632827758787,-30.06163024902344,71.45873260498047,157.0615692138672,9.990989685058594,-1.2793364524841309,-12.583133697509766,25.77272224426269,-43.864505767822266,118.4769515991211,-2.9851574897766118,-6.187257766723633,-6.914579391479492,-96.65663146972656,-74.53900146484375,56.97978210449219,4.07940673828125,2.41869592666626,-8.11655044555664
2262.11678314209,-172.51971435546875,-77.38422393798828,-85.49079132080078,-14.392333984375,7.456181526184082,-3.810514450073242,-19.846416473388672,-43.38954925537109,171.31875610351562,-15.981122970581056,-1.6761529445648191,-15.783504486083984,-61.31697845458984,60.44858932495117,133.87823486328125,-0.9786434173583984,8.877641677856445,-15.665145874023438,27.55769920349121,-41.22843933105469,120.04661560058594,-0.6371732950210571,-5.139758110046387,-6.915911674499512,-94.44049835205078,-75.71528625488281,53.56317901611328,-0.6575441360473633,-0.0166979804635047,-7.255964279174805
2262.17631816864,-177.5534210205078,-76.26371765136719,-83.09806823730469,-1.9195256233215328,-8.262235641479492,-4.909172058105469,-26.63374900817871,-47.63501739501953,175.22686767578125,-16.98468780517578,5.757869720458984,-11.949527740478516,-73.61087799072266,44.78808975219727,126.19963073730467,-4.956297874450684,18.2271728515625,-14.575416564941406,29.320995330810547,-39.52436828613281,121.6046905517578,-2.857475757598877,-7.979793548583984,-6.176033020019531,-87.83767700195312,-76.35045623779297,46.27582550048828,-1.3736724853515625,1.6152865886688232,-4.397761344909668
2262.206338405609,-179.6758575439453,-75.89723205566406,-75.47761535644531,-1.9434700012207031,-1.610008955001831,3.6874008178710938,-33.13782501220703,-53.85104370117188,-178.1558380126953,-21.339675903320312,6.36713981628418,-12.307432174682615,-81.51276397705078,39.63392639160156,127.22174072265624,7.07744026184082,-2.82822322845459,-5.056734085083008,29.288070678710938,-39.15774154663086,123.7069091796875,-1.7161223888397217,-9.097213745117188,-5.57201099395752,-85.59300231933594,-77.06049346923828,42.81190490722656,2.4348788261413574,2.5473904609680176,1.3567686080932615
2262.2358798980717,178.2056427001953,-76.1187515258789,-70.0254898071289,4.35443115234375,-0.6602069139480591,2.869524955749512,-37.70591735839844,-59.442508697509766,-172.1495361328125,-0.9397014379501344,-12.144708633422852,4.116093635559082,-92.0055694580078,43.98596954345703,132.2645721435547,-16.298870086669922,7.79676342010498,18.34527587890625,27.24297523498535,-41.20330810546875,127.98351287841795,-2.041471481323242,-7.903770446777344,-4.260972023010254,-86.5552749633789,-78.25172424316406,41.45939636230469,-4.333203315734863,0.884101390838623,3.887649536132813
2262.266953229904,173.42941284179688,-75.94638061523438,-62.45176696777344,2.6141605377197266,-2.356163501739502,2.409351348876953,-36.55832290649414,-63.49299621582031,-172.43165588378906,-5.068599700927734,-17.782962799072266,4.52957820892334,-70.49837493896484,46.91974639892578,140.21920776367188,1.918738603591919,7.3052215576171875,-6.394130706787109,22.54598999023437,-45.74248123168945,134.72421264648438,-5.20836067199707,-7.084375381469727,0.1603822708129882,-91.63416290283205,-79.81219482421875,43.87076950073242,-1.731032133102417,-1.661747694015503,5.97507381439209
2262.295952796936,165.40716552734375,-75.30110931396484,-54.560245513916016,-3.614590167999268,-1.2736170291900637,5.639924049377441,-39.27772903442383,-67.5362319946289,-171.8993682861328,-1.6873998641967771,8.511716842651367,11.95698356628418,-50.88429641723633,52.39545440673828,160.06387329101562,-5.219017028808594,8.521318435668945,-12.847450256347656,13.464519500732422,-51.19064331054688,144.40042114257812,-6.835735321044922,-5.25788688659668,1.7677345275878906,-92.6491928100586,-81.1781997680664,42.32004928588867,1.0078470706939695,-1.785491943359375,4.183163642883301
2262.326500892639,153.74864196777344,-75.2388916015625,-45.54464340209961,1.018171787261963,-0.5826953649520874,2.4364967346191406,-41.355228424072266,-71.58055877685547,-171.3498992919922,-5.025959968566895,0.839343786239624,-0.505497932434082,-28.343446731567383,50.83845901489258,-173.52896118164062,-8.800210952758789,10.35923957824707,-4.5193071365356445,-1.8093668222427368,-55.98619079589844,157.7611083984375,-10.864757537841797,-4.751385688781738,5.034842491149902,-93.01335144042967,-81.99339294433594,40.216251373291016,-0.474550187587738,-0.0629115104675293,2.4280309677124023
2262.356500387192,137.33644104003906,-75.59857940673828,-35.417633056640625,2.26047420501709,-0.750575065612793,-0.9033632278442384,-38.59976577758789,-74.54816436767578,-174.80575561523438,-7.535039901733398,0.1937784552574157,-4.895862579345703,-8.259238243103027,42.20616912841797,-153.7910614013672,0.7491543292999268,4.792920112609863,-1.496769905090332,-20.290733337402344,-58.12401580810547,171.7431640625,-10.744508743286133,-3.797361850738525,6.428346633911133,-103.75589752197266,-81.45103454589844,48.53868865966797,5.381470680236816,-0.38927161693573,-0.1531696319580078
2262.3865008354187,127.51046752929688,-72.361083984375,-32.80942153930664,8.004566192626953,1.2961022853851318,4.2489166259765625,-31.98615264892578,-76.63058471679688,178.0853729248047,-5.5554609298706055,-1.7923097610473633,0.178502082824707,1.7177443504333496,29.55072784423828,-139.7739715576172,8.244585037231445,0.7055258750915527,-7.099844932556152,-36.54961013793945,-58.48530578613281,-178.93345642089844,-6.095658302307129,-1.445356369018555,-2.0271425247192383,-123.73239135742188,-79.21953582763672,64.40608215332031,10.522172927856444,1.958514213562012,-2.4634323120117188
2262.4157145023346,128.2871551513672,-67.52132415771484,-43.54013442993164,8.955745697021484,21.140769958496094,10.661720275878906,-28.826698303222656,-78.44554901123047,173.67120361328125,-4.848593711853027,-0.639366626739502,-1.286250114440918,5.157426357269287,13.956241607666016,-127.74031829833984,1.0723416805267334,-4.1856231689453125,-8.244287490844727,-48.2090950012207,-59.07831573486328,-173.57302856445312,-2.5164008140563965,3.6921114921569824,-3.6443724632263184,-139.22622680664062,-76.81048583984375,72.18122100830078,9.552810668945312,0.5501973628997803,-3.592503547668457
2262.476286649704,136.50404357910156,-59.32557678222656,-58.47998428344727,8.328393936157227,13.5675048828125,9.23879623413086,-26.33136367797852,-79.86981201171875,170.30755615234375,-5.058956146240234,-0.7434790134429932,-1.022783279418945,4.824397087097168,-0.9755068421363832,-116.08474731445312,9.01682472229004,-12.42869758605957,-6.713876724243164,-53.34935760498047,-58.67631912231445,-170.05728149414062,-6.317580223083496,1.7612836360931396,-1.1341447830200195,-146.8753204345703,-75.60928344726562,73.24278259277344,-0.9135429859161376,-1.0244848728179932,4.474130630493164
2262.50630235672,142.65277099609375,-49.612247467041016,-71.64854431152344,4.927725791931152,5.427324295043945,2.965504646301269,-25.41294479370117,-81.33431243896484,168.56243896484375,-2.880923271179199,0.9359011650085448,-0.4593954086303711,-9.06684684753418,-13.611235618591309,-105.04080963134766,5.958517074584961,-5.371269226074219,-8.757652282714844,-53.92889404296875,-58.1654052734375,-168.1506805419922,-8.061683654785156,-0.7436950206756592,-1.909189224243164,-151.18702697753906,-75.28223419189453,76.11991119384766,-3.517679214477539,2.2175111770629883,3.862762451171875
2262.5368349552155,147.53453063964844,-39.45488357543945,-82.5423583984375,0.6666332483291626,-2.816980361938477,-7.144827842712402,-27.01884651184082,-82.93036651611328,170.07833862304688,-3.4044785499572754,-0.8069009780883789,-1.2672185897827148,-21.39564323425293,-21.11761283874512,-96.5624542236328,-10.871658325195312,0.3124608993530273,6.494607925415039,-51.49740982055664,-59.07029724121094,-167.53732299804688,-5.777052879333496,-2.1246743202209477,-3.309481620788574,-153.10443115234375,-75.40177154541016,77.10430908203125,4.199055671691895,2.0337119102478027,-1.869206428527832
2262.5658345222478,153.1128692626953,-30.359867095947266,-90.31253814697266,-5.342796325683594,-3.4445571899414062,-15.834980010986328,-38.85829925537109,-84.83715057373047,-176.8659210205078,-2.105647087097168,-0.4340250492095947,-1.835515022277832,-21.51177024841309,-23.76826858520508,-93.52679443359376,2.48154878616333,0.9403281211853028,-1.600691795349121,-45.66032791137695,-61.52620697021485,-169.35467529296875,-4.357111930847168,-2.3681535720825195,-4.483491897583008,-155.4180450439453,-75.53997039794922,78.27787017822266,3.5495615005493164,2.68367338180542,-2.1803202629089355
2262.595834493637,159.84963989257812,-23.65195846557617,-96.7541961669922,-5.923751831054688,-0.6366351842880249,-14.35555648803711,-88.62015533447266,-85.99845886230469,-125.47663879394533,-2.2030181884765625,-6.739540100097656,-3.0592737197875977,-22.39244842529297,-26.27313995361328,-94.3536148071289,4.106422424316406,-0.0064685344696044,-5.543393135070801,-36.07850646972656,-64.64656829833984,-174.96493530273438,-3.73445463180542,-2.328007698059082,-6.413841247558594,-156.75332641601562,-75.85075378417969,78.82807159423828,-0.7728610038757324,2.0450210571289062,-2.943303108215332
2262.63139462471,160.47264099121094,-21.57630729675293,-103.1605987548828,-8.173337936401367,-3.296781063079834,-12.305635452270508,-134.25387573242188,-82.38024139404297,-80.25379180908203,-1.8752343654632568,1.9596917629241943,-0.4726314544677734,-28.70039367675781,-31.325252532958984,-95.29230499267578,-0.4413843750953674,-1.5168883800506592,-9.194538116455078,-23.75272560119629,-67.33055114746094,175.51934814453125,-5.535401344299316,-3.801191329956055,-2.234035015106201,-154.08236694335938,-76.95703125,76.05008697509766,-0.4131708145141601,2.3043599128723145,-2.4683470726013184
2262.6565794944763,155.91015625,-23.993562698364254,-108.06298065185548,-9.1082763671875,-4.407819747924805,-13.311866760253906,-146.56558227539062,-76.49625396728516,-69.54143524169922,-5.36839485168457,0.0587126016616821,-1.1606836318969729,-39.39617538452149,-41.27285385131836,-97.59766387939452,-7.1766204833984375,-11.872161865234377,-0.6219921112060547,-4.966063022613525,-67.6531753540039,159.4509735107422,-7.093594551086426,-6.826584815979004,2.106827735900879,-149.13638305664062,-78.91329193115234,71.08145141601562,3.875268459320069,0.4233301281929016,-4.374729156494141
2262.6859064102173,152.62753295898438,-29.90404319763184,-110.86402893066406,-4.301629066467285,-9.03936767578125,-2.060230255126953,-151.34693908691406,-71.62953186035156,-65.48612213134766,-6.123756408691406,0.5618339776992798,-0.7405157089233398,-43.62733840942383,-55.06938552856445,-107.9206771850586,-7.619093894958496,-17.755699157714844,45.30995941162109,17.829803466796875,-64.03483581542969,136.1129913330078,-9.953184127807615,-6.61993408203125,4.532137870788574,-139.46331787109375,-81.7697525024414,60.2883186340332,2.36384391784668,0.466755747795105,-5.467889785766602
2262.715980768204,150.6597137451172,-31.971630096435547,-111.5677261352539,-11.219070434570312,-15.577232360839844,32.01183319091797,-154.6367645263672,-68.74847412109375,-62.96043014526367,-3.947766304016113,1.4962725639343262,2.151431083679199,-37.67399215698242,-61.58791732788086,-121.30960845947266,1.0108604431152344,-20.42361831665039,19.075519561767575,38.29187774658203,-53.85636138916016,113.71222686767578,-5.267195701599121,-5.55202579498291,13.786605834960938,-135.4810333251953,-83.62994384765625,54.874141693115234,0.4803208112716675,-0.3037949800491333,-0.9243440628051758
2262.7765102386475,149.00537109375,-24.65188980102539,-107.9562759399414,0.5788815021514893,-15.96110725402832,20.389568328857425,-157.9553680419922,-67.81483459472656,-59.846466064453125,-3.956906795501709,2.027191638946533,1.8673505783081052,-55.9713020324707,-54.25662612915039,-112.4826431274414,4.332282066345215,-9.060867309570312,10.966726303100586,50.49820327758789,-38.12917709350586,100.74441528320312,-4.941633224487305,-16.715404510498047,16.043914794921875,-137.28433227539062,-84.8323745727539,54.242279052734375,3.2042784690856934,-1.4188189506530762,4.184860229492188
2262.806516647339,152.87393188476562,-13.7572603225708,-106.02577209472656,-8.15446662902832,-18.22156143188477,18.90951156616211,-160.88314819335938,-68.8548583984375,-56.75254821777344,-5.356014251708984,1.4738867282867432,0.8571872711181641,-57.33452224731445,-40.44851303100586,-107.32796478271484,-15.234046936035156,-14.250127792358398,26.009441375732425,55.65753173828125,-21.854751586914062,91.95716094970705,0.796108603477478,-19.214061737060547,7.858600616455078,-149.0740509033203,-84.51902770996094,64.4300765991211,0.116615206003189,-1.3143022060394287,6.853315353393555
2262.836678504944,150.55349731445312,-3.379362106323242,-105.93842315673828,-8.268077850341797,-13.815471649169922,4.611660957336426,-163.05068969726562,-71.95051574707031,-54.67605209350586,-6.536338806152344,0.8063308000564575,1.9677000045776367,-44.52605056762695,-30.14138603210449,-109.1298370361328,-5.247740745544434,-16.395843505859375,-6.33793830871582,61.664833068847656,-5.58292818069458,84.80755615234375,0.803600549697876,-12.002328872680664,9.956052780151367,-149.82501220703125,-85.07272338867188,65.70303344726562,2.177814483642578,1.8014423847198489,9.325714111328123
2262.8666846752167,149.1341094970703,3.589858293533325,-106.66043090820312,-6.410270690917969,-4.5749359130859375,-6.921021461486816,-161.92431640625,-77.01016235351562,-56.862098693847656,-6.726491928100586,-0.9199832677841188,5.0042572021484375,-46.93514633178711,-23.46816062927246,-111.60095977783205,-5.646986961364746,-2.065882682800293,-5.66380786895752,70.448486328125,10.42989730834961,81.3433837890625,-2.7231550216674805,-5.757918357849121,8.983640670776367,-156.52761840820312,-85.02405548095703,73.481689453125,4.107690811157227,3.2894601821899414,10.406068801879885
2262.8966767787933,150.6071319580078,5.140133857727051,-107.14823150634766,-8.365470886230469,1.5061464309692385,-14.591411590576172,-148.3709259033203,-82.94158935546875,-71.32797241210938,-2.9567408561706543,-5.184877395629883,10.549598693847656,-54.18680191040039,-22.324405670166016,-115.1334228515625,-1.7027719020843506,4.9059038162231445,0.8657655715942383,85.8857192993164,23.07472801208496,81.16288757324219,-10.94868278503418,6.810882568359375,13.915210723876951,-166.70831298828125,-85.54816436767578,84.58297729492188,5.068297386169434,3.61647891998291,9.759775161743164
2262.925941705704,152.55836486816406,0.1578919738531112,-106.12625122070312,-7.966006278991699,2.377893447875977,-20.050559997558597,-31.257251739501957,-85.35945129394531,175.81500244140625,7.630500793457031,-3.0677270889282227,0.8914632797241211,-56.82923889160156,-25.74333000183105,-120.35869598388672,1.403228998184204,3.130795478820801,4.493921279907227,88.6099853515625,31.079139709472656,81.41497802734375,-9.23735809326172,13.025489807128906,9.36937141418457,179.99697875976562,-85.86431121826172,98.13932037353516,3.987610340118408,2.815602779388428,4.560026168823242
2262.9559412002563,153.99452209472656,-10.280789375305176,-103.96273040771484,-5.746829986572266,-3.2246737480163574,-21.584228515625,0.0466676577925682,-81.27877044677734,151.8471221923828,-9.499361038208008,2.476234436035156,-11.905080795288086,-57.83837127685547,-30.131345748901367,-125.9647979736328,1.2304110527038574,3.758780002593994,-4.099783897399902,79.34034729003906,35.31047058105469,80.40180206298828,-7.645074844360352,8.267717361450195,-3.0305514335632324,163.99658203125,-85.2370834350586,113.80847930908205,3.4727158546447754,0.9277623891830444,-0.7126865386962891
2262.985941171646,155.47161865234375,-24.785524368286133,-101.3639907836914,-3.862189292907715,-9.055431365966797,-16.78585433959961,10.94701099395752,-79.44898986816406,141.36941528320312,-3.2233943939208984,-3.413374423980713,-7.70145320892334,-61.05788803100586,-34.52006149291992,-130.2254638671875,1.8427436351776123,6.069428443908691,-4.888745307922363,66.79114532470703,36.6552963256836,80.45703125,-5.838421821594238,6.014907836914063,-9.898855209350586,156.62306213378906,-83.94709014892578,120.11238861083984,1.0920119285583496,-1.030675172805786,-5.163558006286621
2263.01695895195,156.41311645507812,-42.13935089111328,-98.73168182373048,-4.238227844238281,-10.06450653076172,-5.197257995605469,12.100523948669434,-77.80574798583984,138.8841094970703,0.0413246676325798,3.0096678733825684,-9.744853973388672,-63.375118255615234,-38.58374786376953,-133.11155700683594,4.266663551330566,3.635321140289306,-4.3302202224731445,57.305397033691406,36.97907257080078,83.64850616455078,-3.086115837097168,4.271986961364746,-14.111312866210938,163.20138549804688,-82.18656921386719,112.86920928955078,-2.507972717285156,-1.71608567237854,-10.99030876159668
2263.0761036872864,153.26800537109375,-62.18536758422852,-95.00254821777344,-1.5689620971679688,-4.534295082092285,10.00680160522461,12.342849731445312,-76.87862396240234,139.42388916015625,-8.216299057006836,11.452432632446287,-12.756771087646484,-65.28319549560547,-40.50932312011719,-134.8639373779297,4.843547821044922,1.4939730167388916,-6.7405853271484375,53.255332946777344,36.6788215637207,90.37837982177734,-2.353232383728028,5.4157257080078125,-14.345760345458984,169.316650390625,-80.81778717041016,106.15115356445312,-0.9372379779815674,5.016277313232422,-12.434118270874023
2263.1061203479767,125.39909362792967,-82.9002456665039,-67.62943267822266,8.561227798461914,4.895927429199219,25.188465118408203,10.365952491760254,-79.09467315673828,140.32687377929688,-0.74278724193573,-3.538637161254883,-2.640276908874512,-69.96572875976562,-40.13315200805664,-136.02919006347656,9.712654113769531,-3.920663356781006,-7.508015632629394,50.29437255859375,36.07916259765625,100.02132415771484,-7.543582916259766,12.872344970703123,-14.810985565185549,171.03982543945312,-79.98957824707031,103.0241928100586,1.4830939769744873,0.7823401689529419,-7.880992889404297
2263.136644363404,10.16271686553955,-76.3135757446289,51.10874176025391,12.128280639648438,24.762454986572266,11.041555404663086,6.606179714202881,-82.55284118652344,140.9396514892578,0.2733514308929443,-1.2111027240753174,-0.8279170989990234,-71.45819091796875,-38.69172286987305,-138.54627990722656,3.6398773193359375,0.4150080680847168,-7.058218002319336,49.21736526489258,37.40557861328125,110.59857940673828,-0.2165822684764862,8.917617797851562,-21.76435089111328,167.07180786132812,-81.07368469238281,106.31275939941406,-0.1666020154953003,-1.4106929302215576,-10.557592391967772
2263.166644334793,2.23880672454834,-68.48786163330078,57.28043365478516,-6.19413948059082,19.05874252319336,-18.74740600585937,-21.092283248901367,-86.8026123046875,164.8495635986328,1.0348849296569824,-2.738370418548584,0.3235044479370117,-68.21519470214844,-37.14042663574219,-140.815673828125,2.7171316146850586,0.0868841409683227,-6.22361946105957,55.23584365844727,43.07152938842773,111.59979248046876,5.386014938354492,-2.0819430351257324,-15.925050735473633,166.4192352294922,-81.60881042480469,106.623779296875,0.2716448903083801,-1.8135082721710205,-8.32868766784668
2263.196644306183,0.8357134461402893,-69.24101257324219,52.80670547485352,15.557514190673828,3.464423656463623,-9.612430572509766,-115.20208740234376,-86.51715850830078,-102.64116668701172,-6.828325271606445,-4.639583587646484,8.83995246887207,-64.73536682128906,-35.750186920166016,-142.26339721679688,2.2393059730529785,-2.6577696800231934,-4.893385887145996,64.55059051513672,50.261714935302734,105.4772720336914,-3.274127960205078,-3.8802900314331055,-9.964187622070312,175.7868194580078,-80.13418579101562,96.81359100341795,4.345990180969238,-1.8095428943634035,2.0180253982543945
2263.226173877716,27.01080894470215,-74.03496551513672,36.08793640136719,8.970951080322266,6.995730400085449,-1.033039093017578,-122.8502960205078,-84.02470397949219,-94.38787841796876,-3.1768670082092285,4.109001159667969,7.15892219543457,-62.75836181640625,-34.899539947509766,-142.8570098876953,-0.3394639492034912,-1.7774419784545898,-0.5151214599609375,64.69586181640625,54.85887145996094,95.7886199951172,-6.637750625610352,-8.223217010498047,-9.855623245239258,-175.841796875,-78.65550994873047,88.92142486572266,1.939715385437012,-1.2866291999816897,3.9819068908691406
2263.2561736106877,71.3318862915039,-76.1832275390625,5.056493759155273,3.5786118507385254,15.28132438659668,-1.0510549545288086,-112.89812469482422,-82.38088989257812,-103.13732147216795,-3.725672721862793,-1.513347864151001,6.101229667663574,-61.33271408081055,-35.55207061767578,-141.5547332763672,-0.0642702579498291,-2.240619659423828,1.563624382019043,54.90953826904297,57.4344596862793,75.2561264038086,-5.555962562561035,0.17550790309906,-14.541315078735352,-171.51351928710938,-77.77517700195312,86.34707641601562,0.9725168943405152,2.644977569580078,4.539786338806152
2263.2861742973328,104.05792236328124,-74.7636489868164,-22.633935928344727,-6.21855354309082,-8.409662246704102,5.324141502380371,-94.3342742919922,-81.19645690917969,-119.02449035644533,-3.5725865364074707,-1.4372901916503906,7.775484085083008,-63.00355911254883,-38.27372360229492,-136.66079711914062,1.1396665573120115,-2.691976547241211,6.458522796630859,42.63554000854492,55.00406646728516,49.8780517578125,-10.57685089111328,10.258127212524414,-12.68170166015625,-166.59756469726562,-76.79035186767578,83.3379898071289,6.999238014221191,0.2341510355472564,12.068483352661133
2263.3161911964417,112.30379486083984,-76.2213363647461,-34.419952392578125,4.898741722106934,-4.816972732543945,8.630514144897461,-70.02967071533203,-79.60104370117188,-138.88917541503906,-0.4948543310165405,-5.7242279052734375,6.027350425720215,-63.39036560058594,-42.14785385131836,-128.90675354003906,0.1191668510437011,-3.477532386779785,13.477376937866213,30.47885131835937,46.66423034667969,30.996021270751957,-5.327023506164551,5.376988410949707,-10.938047409057615,-163.22109985351562,-76.45310974121094,83.25173950195312,3.2477970123291016,-0.7472409009933472,3.286067008972168
2263.37671160698,123.32384490966795,-78.10396575927734,-42.550289154052734,-5.603286743164063,-5.022662162780762,8.03150749206543,-47.24118041992188,-76.94306945800781,-155.8377685546875,-13.367713928222656,-0.6012157201766968,-6.080758094787598,-59.39315414428711,-45.90103530883789,-120.98306274414062,-4.283896446228027,-4.688485145568848,9.393692016601562,25.946748733520508,36.69589614868164,19.904041290283203,-2.3789520263671875,-2.8516831398010254,-3.483402729034424,-163.48207092285156,-73.01628112792969,87.80345153808594,-2.521117687225342,-0.2883173823356628,0.9203948974609376
2263.40673160553,133.62692260742188,-80.255859375,-47.2324447631836,-4.173423767089844,4.433550834655762,-1.5202302932739258,-43.91427993774414,-76.88352966308594,-150.25079345703125,-31.101783752441406,4.108567237854004,-7.226591110229492,-58.4073371887207,-47.6574821472168,-113.18986511230467,-4.532420158386231,-5.598702430725098,2.670504570007324,30.724069595336918,27.50033187866211,13.420854568481444,-4.231738090515137,-7.233126640319824,-1.7105531692504885,-165.30413818359375,-69.0109634399414,93.9381332397461,0.0263392142951488,-0.760193943977356,1.0712499618530271
2263.436248064041,144.09181213378906,-82.25859069824219,-56.748085021972656,-3.377653121948242,-1.153210163116455,3.7739953994750977,-66.70001220703125,-79.21221923828125,-120.60261535644533,-16.491905212402344,-4.344286918640137,-8.383964538574219,-62.13286590576172,-47.05065155029297,-106.3083267211914,-3.768852233886719,-2.849567413330078,-2.5130419731140137,45.29784393310547,18.96147918701172,10.586206436157228,-1.7465131282806396,-19.855369567871094,-5.033638954162598,-167.29049682617188,-66.69935607910156,100.23052978515624,-1.8169984817504885,-0.271736741065979,-3.6179823875427246
2263.466248273849,161.5274200439453,-83.67051696777344,-74.4432601928711,1.5677311420440674,-0.1221842467784881,0.0365543365478515,-115.8414306640625,-78.97102355957031,-71.15156555175781,-9.576156616210938,-9.118978500366213,-12.78044319152832,-66.35469055175781,-46.05826187133789,-101.96302032470705,-3.3168716430664062,0.5099807977676392,-2.6679282188415527,68.60327911376953,9.480745315551758,11.654173851013184,-1.3514587879180908,6.144800186157227,-3.9690146446228023,-168.87759399414062,-65.19095611572266,104.382080078125,-1.1522562503814695,3.535069942474365,0.8102025985717773
2263.496250152588,-179.48471069335938,-84.4903564453125,-92.90120697021484,-1.4313392639160156,1.0474278926849363,0.937978744506836,-152.1208953857422,-73.95197296142578,-36.27633666992188,-3.5986204147338867,-3.752541065216065,-9.56855010986328,-68.16194152832031,-46.4007453918457,-101.0444793701172,-1.8704264163970947,1.3120193481445312,0.0012273788452148,80.68822479248047,-1.5184004306793213,10.724448204040527,-3.5562729835510254,5.606407165527344,7.1968536376953125,-170.74685668945312,-64.65377044677734,106.78775024414062,-0.4759144783020019,1.2166743278503418,2.061808586120605
2263.525791168213,-160.50079345703125,-84.69426727294922,-112.5760498046875,-2.046048164367676,0.0928517431020736,0.1277198791503906,-168.9176483154297,-67.8691177368164,-20.115720748901367,-3.471078872680664,-2.1330108642578125,-8.241558074951172,-67.20568084716797,-47.35179138183594,-103.28790283203124,-2.398432731628418,0.1869533061981201,1.0444679260253906,91.3917465209961,-14.01791000366211,7.696926593780518,2.0451860427856445,-1.968624830245972,-5.599302291870117,-172.3638916015625,-64.25484466552734,108.74788665771484,-3.189682483673096,2.0532703399658203,-2.011693000793457
2263.5568509101868,-149.92538452148438,-83.9938735961914,-126.11986541748048,-2.2089414596557617,-0.7739167213439941,-0.6258821487426758,179.6338653564453,-61.95082092285156,-10.681549072265623,-1.2602124214172363,-2.717278957366944,-6.326303482055664,-66.43225860595703,-47.69984817504883,-106.840087890625,-1.793006181716919,-1.3502769470214844,-2.6407580375671387,102.28607940673828,-28.415904998779297,2.685084819793701,-1.362361192703247,-0.5793070793151855,8.871929168701172,-173.36007690429688,-63.637691497802734,109.55069732666016,-4.166116714477539,1.5392258167266846,-2.4636154174804688
2263.5868661403656,-154.91104125976562,-82.79740142822266,-128.93287658691406,-3.768297672271729,-0.8078410625457764,-2.096649646759033,173.75611877441406,-57.55852890014648,-4.5001654624938965,1.7538652420043943,0.3540247082710266,-4.909198760986328,-68.46296691894531,-47.32601547241211,-110.43933868408205,-1.123030424118042,0.619807243347168,-5.65805721282959,105.01718139648438,-44.54001235961914,-5.189202785491943,0.9383156299591064,-2.589554786682129,3.5990562438964844,-175.1779327392578,-63.6092529296875,110.90045166015624,-1.639080286026001,0.1397818624973297,-2.3427658081054688
2263.616413116455,-172.30601501464844,-80.7946548461914,-123.65943145751952,1.0480971336364746,-3.8226284980773926,-1.703984260559082,172.43336486816406,-55.36562347412109,-0.2757501304149627,4.196132659912109,1.8559775352478027,-2.13735580444336,-71.60401916503906,-46.59630584716797,-113.33216857910156,0.1044461727142334,2.6728358268737797,-8.442190170288086,110.33768463134766,-61.6635627746582,-17.97254753112793,6.162798881530762,-3.6428122520446777,11.390871047973633,-178.62469482421875,-64.80326843261719,113.52970886230467,-0.9528100490570068,-1.9867422580718996,-5.67949104309082
2263.67594575882,172.81285095214844,-76.59686279296875,-113.09056854248048,10.68326187133789,-9.239604949951172,-0.8038063049316406,173.48765563964844,-55.755672454833984,3.538391590118408,-0.1807288825511932,5.598649978637695,3.6112136840820312,-75.45361328125,-45.53593444824219,-114.68587493896484,2.1780452728271484,3.431839942932129,-9.583084106445312,121.29745483398438,-72.92747497558594,-38.37777328491211,-6.542879104614258,-16.862510681152344,16.490657806396484,177.1531982421875,-65.96808624267578,116.96390533447266,-0.4046822786331177,-0.1984027028083801,-8.47874641418457
2263.7059664726257,169.38973999023438,-70.63004302978516,-101.74046325683594,-2.156454563140869,4.441580772399902,0.2949399948120117,177.03506469726562,-56.30747604370117,5.395361423492432,-2.4159154891967773,7.839839935302734,17.681270599365234,-77.75366973876953,-43.7775993347168,-115.7640151977539,5.650449752807617,3.4620752334594727,-2.855608463287353,123.72515106201172,-75.07848358154297,-53.04059982299805,5.098386764526367,-12.398263931274414,-0.4759159088134765,173.159912109375,-66.32666015625,119.33165740966795,3.5773181915283203,1.8412094116210935,-5.0857343673706055
2263.736496448517,168.87841796875,-64.31121826171875,-94.38752746582033,2.127379894256592,1.7064623832702637,0.9377431869506836,177.3715362548828,-56.01263427734375,3.0234203338623047,15.763786315917969,5.495466232299805,14.438440322875977,-75.29137420654297,-39.79427337646485,-119.21756744384766,8.368349075317383,1.7054545879364014,8.71773910522461,121.0042724609375,-74.06592559814453,-53.847145080566406,5.817940711975098,-10.540321350097656,8.470436096191406,168.09706115722656,-67.40571594238281,123.04546356201172,-1.859179735183716,2.1595730781555176,2.560457229614258
2263.7664942741394,169.1470489501953,-59.431034088134766,-91.07562255859376,2.796515941619873,0.6187413930892944,1.1919269561767578,177.93765258789062,-55.514251708984375,-0.2085612267255783,15.425060272216797,9.523170471191406,20.62045288085937,-71.6572265625,-32.25718688964844,-124.99671173095705,9.098566055297852,-1.061234951019287,20.84751510620117,114.85311889648438,-72.34839630126953,-41.609371185302734,3.371645450592041,-5.056072235107422,15.55217170715332,161.90762329101562,-68.03043365478516,127.8213348388672,-4.066841125488281,1.471254587173462,3.5651588439941406
2263.7964947223663,169.61412048339844,-56.26529312133789,-89.68138885498047,-1.316479206085205,2.4806108474731445,2.808163642883301,-179.28555297851562,-51.79349899291992,-5.66870641708374,11.724802017211914,1.1698615550994873,17.806652069091797,-66.88348388671875,-19.68957901000977,-132.1591339111328,11.64903450012207,-10.86917495727539,26.42761611938477,106.45930480957033,-66.88797760009766,-22.444957733154297,5.242101669311523,-1.1762323379516602,23.332550048828125,158.96389770507812,-67.78036499023438,129.8310089111328,-3.911875724792481,-2.270806312561035,9.891895294189451
2263.827038049698,170.45669555664062,-54.94804382324219,-89.54061126708984,-1.3478028774261477,2.503759860992432,2.682199478149414,-179.32337951660156,-48.47579574584961,-8.683371543884277,7.894695281982422,-4.561250686645508,13.626424789428713,-62.27433395385742,-2.3113362789154053,-136.7801513671875,9.007562637329102,-15.13132095336914,26.427669525146484,100.1810073852539,-58.75120544433594,-6.0768232345581055,5.115921974182129,7.054671287536621,20.390079498291016,159.44061279296875,-67.4449462890625,130.5690460205078,-2.7833385467529297,-0.4291238784790039,12.14646339416504
2263.85604429245,171.69873046875,-55.445926666259766,-90.22992706298828,-0.4456814527511596,1.315904140472412,2.4791259765625,-174.77725219726562,-47.454891204833984,-10.273649215698242,1.4869627952575684,2.543858528137207,9.558435440063477,-52.85421752929688,15.48553466796875,-136.35586547851562,1.727221965789795,-11.878543853759766,18.017662048339844,95.32217407226562,-53.71685791015625,7.685113906860352,5.479517936706543,6.102581977844238,4.730105400085449,161.59861755371094,-66.42903900146484,129.63328552246094,-3.565699577331543,-1.5101637840270996,10.679195404052734
