Timestamp,D4:22:CD:00:05:5D_EulerX,D4:22:CD:00:05:5D_EulerY,D4:22:CD:00:05:5D_EulerZ,D4:22:CD:00:05:5D_FreeAccX,D4:22:CD:00:05:5D_FreeAccY,D4:22:CD:00:05:5D_FreeAccZ,D4:22:CD:00:05:5E_EulerX,D4:22:CD:00:05:5E_EulerY,D4:22:CD:00:05:5E_EulerZ,D4:22:CD:00:05:5E_FreeAccX,D4:22:CD:00:05:5E_FreeAccY,D4:22:CD:00:05:5E_FreeAccZ,D4:22:CD:00:05:6B_EulerX,D4:22:CD:00:05:6B_EulerY,D4:22:CD:00:05:6B_EulerZ,D4:22:CD:00:05:6B_FreeAccX,D4:22:CD:00:05:6B_FreeAccY,D4:22:CD:00:05:6B_FreeAccZ,D4:22:CD:00:05:6E_EulerX,D4:22:CD:00:05:6E_EulerY,D4:22:CD:00:05:6E_EulerZ,D4:22:CD:00:05:6E_FreeAccX,D4:22:CD:00:05:6E_FreeAccY,D4:22:CD:00:05:6E_FreeAccZ,D4:22:CD:00:49:AA_EulerX,D4:22:CD:00:49:AA_EulerY,D4:22:CD:00:49:AA_EulerZ,D4:22:CD:00:49:AA_FreeAccX,D4:22:CD:00:49:AA_FreeAccY,D4:22:CD:00:49:AA_FreeAccZ
532.6980466842651,175.9206085205078,-53.81631088256836,-72.94050598144531,-1.2758464813232422,0.8363324403762817,0.2156620025634765,164.36521911621094,-50.89335250854492,9.104275703430176,10.189111709594728,-0.945149064064026,15.250497817993164,-170.38198852539062,-74.3953628540039,24.76155662536621,-2.3093490600585938,29.81085205078125,11.72064971923828,68.99560546875,-35.45165252685547,36.99373626708984,12.794166564941406,24.268878936767575,-4.663721084594727,145.73248291015625,-73.630126953125,142.6432647705078,-2.3171911239624023,-0.6551450490951538,5.87226676940918
532.7115995883942,177.312744140625,-54.142765045166016,-74.52117919921875,-0.3866235613822937,0.3086957335472107,1.6619033813476562,174.7781982421875,-49.81536102294922,5.68398380279541,17.09677505493164,6.385648727416992,5.9424896240234375,-107.9980697631836,-64.58112335205078,-35.62583923339844,3.759248733520508,31.692127227783203,12.93406867980957,75.10057067871094,-41.76710510253906,43.808685302734375,3.909060001373291,23.40728759765625,4.306421279907227,149.9904327392578,-73.645751953125,136.82745361328125,-2.272181987762451,0.3666184544563293,9.500795364379885
532.7642297744751,-145.95237731933594,-37.32931518554688,-85.64018249511719,-7.775753974914551,-9.806537628173828,-4.974220275878906,154.0913543701172,-21.9821891784668,-77.23997497558594,-0.0005306197563186,0.0123933460563421,22.538898468017575,-170.82138061523438,-76.74629211425781,-97.18131256103516,-1.2277445793151855,-0.0933181941509246,1.5739459991455078,-33.79853820800781,30.910245895385746,-171.72080993652344,-8.730575561523438,9.24148941040039,22.190860748291016,-172.9535369873047,-71.34066772460938,123.43806457519533,-7.510884284973144,-6.328953742980957,-1.5401020050048828
532.7939209938049,-144.36524963378906,-43.997314453125,-85.73912048339844,-0.9697442054748536,-6.850601196289063,-1.1647720336914062,166.33511352539062,4.517508506774902,-82.00875854492188,-7.036778450012207,-6.007497787475586,10.330005645751951,-156.2921905517578,-72.70985412597656,-107.5335922241211,-5.66860294342041,1.0122742652893066,-3.474179267883301,-24.87255096435547,20.95780372619629,-178.1422576904297,2.377284049987793,6.058864593505859,0.1126880645751953,-154.36044311523438,-69.23588562011719,112.0733642578125,-1.0636906623840332,-0.77500319480896,-1.2729873657226562
532.8541841506958,-143.739501953125,-48.05077362060547,-86.09888458251953,-2.251617431640625,-6.709694862365723,-1.836820125579834,158.63894653320312,15.669917106628418,-84.7998275756836,-7.108844757080078,-1.4613454341888428,-0.4026012420654297,-154.9568634033203,-69.42919158935547,-110.00784301757812,-1.7390358448028564,-0.2436934113502502,-4.190206527709961,-21.52271842956543,28.99227523803711,-177.96473693847656,11.647926330566406,-17.68731689453125,-14.651996612548828,-145.79698181152344,-68.88892364501953,105.77165222167967,4.627772331237793,6.831512451171875,0.5113964080810547
532.884183883667,-144.4759521484375,-50.668067932128906,-86.25010681152344,-0.8876394033432007,-5.065593719482422,-1.250716209411621,147.2797088623047,26.100008010864254,-88.17774200439453,-0.1966792047023773,-1.5113205909729004,-2.3806066513061523,-158.16989135742188,-68.15208435058594,-109.99583435058594,-0.9335172176361084,-1.3333163261413574,-2.346872329711914,-14.9347505569458,43.42694091796875,-165.42221069335938,11.700813293457031,1.0070016384124756,0.3800783157348633,-145.6993865966797,-70.12567901611328,105.24202728271484,0.4447371363639831,4.3554277420043945,-1.5716543197631836
532.9137146472931,-145.9075469970703,-52.60138320922852,-86.03455352783203,0.4196223020553589,-4.227768898010254,-1.0643768310546875,135.97708129882812,34.82905578613281,-90.43324279785156,-1.0134029388427734,-1.8852899074554443,-13.200834274291992,-162.02748107910156,-68.30929565429688,-110.19232177734376,-0.3759757280349731,-2.0541772842407227,-2.2207369804382324,9.082611083984377,49.35784912109375,-141.19468688964844,-3.0086116790771484,2.158065795898437,-0.5656948089599609,-148.02728271484375,-72.16873168945312,107.01435089111328,-3.7256245613098153,-0.0219483003020286,-2.7037248611450195
532.9440457820892,-147.3025665283203,-53.83607482910156,-84.93073272705078,0.8539129495620728,-4.02851676940918,-1.277775764465332,130.63385009765625,40.98176956176758,-89.47264099121094,1.205106258392334,-2.4733223915100098,-17.453128814697266,-163.0661163330078,-69.76692962646484,-112.31117248535156,-2.0709543228149414,-3.620330810546875,-4.216683387756348,38.55654144287109,41.4175910949707,-119.95320129394533,7.242066383361816,-14.358894348144531,-10.686759948730469,-148.56507873535156,-73.8611831665039,106.53458404541016,-1.2276864051818848,-1.933784008026123,-6.149221420288086
532.9742631912231,-149.99755859375,-54.252140045166016,-82.31302642822266,4.023780822753906,-3.677334785461426,-1.8788738250732424,135.2771759033203,42.97238159179688,-83.823486328125,-0.9569783210754396,-3.084733486175537,-27.823543548583984,-161.1553192138672,-72.61526489257812,-120.06060028076172,-2.666821956634521,-2.3833556175231934,-6.264124870300293,49.28927230834961,22.72122383117676,-106.57347106933594,-9.16859245300293,-19.877296447753903,-8.551958084106445,-147.53964233398438,-75.34812927246094,104.3852081298828,0.4186289310455322,-0.5860847234725952,-5.336463928222656
533.0034482479095,-152.63623046875,-53.83823394775391,-78.53458404541016,-1.1721186637878418,-3.441500663757324,-1.095961570739746,145.32737731933594,39.929832458496094,-75.1107406616211,4.859661102294922,-4.880861282348633,-21.76797866821289,-153.34274291992188,-75.17453002929688,-141.46466064453125,-2.395192623138428,1.0163803100585938,-6.016962051391602,51.164363861083984,0.190238207578659,-99.2494659423828,-8.40224838256836,-31.17744445800781,0.9340028762817384,-149.4102783203125,-77.39208221435547,104.804443359375,1.3900394439697266,1.7892308235168457,-3.758509635925293
533.03400349617,-156.58425903320312,-52.72468566894531,-73.4455337524414,-0.8124957084655762,-5.553677558898926,-1.6101503372192385,147.5880126953125,37.20996475219727,-69.91270446777344,19.121421813964844,-13.539861679077148,-36.6246337890625,-137.65415954589844,-74.21326446533203,-178.87246704101562,3.707328796386719,-1.3123290538787842,-4.803762435913086,44.37580871582031,-20.111225128173828,-94.59099578857422,3.175086975097656,-13.948944091796877,0.1905479431152343,-155.1477508544922,-78.92454528808594,108.50072479248048,0.9840388298034668,0.9919909238815308,-6.271651268005371
533.0641045570374,-159.93692016601562,-50.66515350341797,-67.44353485107422,-0.311274766921997,-2.793417930603028,-1.5154685974121094,148.2640380859375,34.22843933105469,-68.07828521728516,21.72969055175781,-10.245328903198242,-27.034252166748047,-117.83203125,-67.5201187133789,149.97018432617188,8.339344024658203,-15.167896270751951,7.15046501159668,34.31158828735352,-31.59017562866211,-92.91631317138672,-8.103944778442383,-9.092330932617188,-3.846446037292481,-163.6917266845703,-79.04546356201172,115.9099349975586,1.9832491874694824,2.8382530212402344,0.0331678390502929
533.0942640304565,-161.68614196777344,-47.30950164794922,-63.171348571777344,-2.265202045440674,-3.3139519691467285,-0.5229158401489258,145.38157653808594,30.954103469848636,-69.10391998291016,10.974042892456056,-20.54457092285156,-10.459527969360352,-101.10352325439452,-56.09577560424805,134.18423461914062,5.077585220336914,-2.5390725135803223,13.800928115844728,34.86793518066406,-37.4329719543457,-93.5989761352539,-5.673155784606934,-8.282154083251953,-1.7721261978149414,-172.20265197753906,-78.4701919555664,123.49352264404295,3.226154327392578,0.5818917751312256,7.626934051513672
533.154093503952,-162.35165405273438,-44.24489212036133,-61.71659851074219,-1.4820075035095217,-3.0364413261413574,-0.0955314636230468,144.4058837890625,27.725940704345703,-70.56111145019531,2.6755919456481934,-22.69543838500977,-7.530739784240723,-97.22059631347656,-40.68857955932617,128.1204376220703,9.008699417114258,-11.099647521972656,23.073070526123047,33.5042839050293,-41.86793899536133,-93.20611572265624,-4.647971153259277,-11.968515396118164,3.696425437927246,-175.52853393554688,-78.41061401367188,125.75936889648438,0.1564286649227142,1.3536088466644287,9.604555130004885
533.1840932369232,-162.78160095214844,-41.96704864501953,-61.33308410644531,-3.25490951538086,-3.307098388671875,1.7395505905151367,147.77076721191406,24.183528900146484,-71.11715698242188,12.769855499267578,-23.18316650390625,-12.839914321899414,-90.56332397460938,-22.62326431274414,126.09564971923828,-3.200437068939209,-7.449521064758301,24.092605590820312,26.97296714782715,-47.78042984008789,-91.28630065917967,-6.385512351989746,-18.096153259277344,7.713735580444336,-173.5417938232422,-78.5986328125,122.4005126953125,-0.7965062856674194,3.715945720672608,13.689321517944336
533.2142312526703,-162.4483184814453,-40.90486145019531,-61.2190055847168,-2.594386100769043,-3.273266315460205,2.5353565216064453,153.43890380859375,18.667524337768555,-72.7557144165039,15.027215957641602,-18.011638641357422,-18.203052520751957,-82.36955261230469,-1.390216588973999,125.24015045166016,-10.832639694213867,-1.8301281929016116,21.0406494140625,22.801464080810547,-55.12254333496094,-85.91825866699219,-0.859966516494751,-19.55590057373047,11.006185531616213,-170.2528533935547,-78.25708770751953,117.78986358642578,0.6638907194137573,2.184647560119629,10.053075790405272
533.2442255020142,-161.61338806152344,-41.38206100463867,-61.43781280517578,-2.198233127593994,-3.912025451660156,1.2650423049926758,150.4547576904297,15.208561897277832,-77.92613983154297,4.799559593200684,-17.125537872314453,-5.160026550292969,-65.98877716064453,19.731245040893555,125.31539154052734,-15.58572006225586,8.811973571777344,14.528234481811523,15.631952285766602,-62.11882400512695,-75.8713607788086,10.61383056640625,-13.815753936767578,13.372962951660156,-169.22218322753906,-77.00967407226562,116.8832550048828,-1.041722297668457,-1.773996114730835,8.472192764282227
533.274218082428,-159.877685546875,-42.785526275634766,-63.17690658569336,-2.2711386680603027,-5.197965621948242,-0.4871234893798828,150.34249877929688,12.71967315673828,-80.18633270263672,12.76678466796875,-12.347526550292969,-15.236583709716797,-46.7711296081543,37.844032287597656,127.26435089111328,-8.769189834594727,9.433172225952148,2.412233352661133,9.372028350830078,-66.33089447021484,-66.77607727050781,8.970100402832031,-4.311521530151367,12.373119354248049,-166.52838134765625,-76.93891906738281,116.3669891357422,-0.6209475994110107,-1.6936335563659668,8.34832763671875
533.3042879104614,-156.73716735839844,-44.52320098876953,-67.16863250732422,-2.1193647384643555,-3.953068256378174,1.5477447509765625,157.16708374023438,7.152886390686035,-80.92671966552734,8.208940505981445,-8.368288040161133,-7.954403877258301,-30.51146697998047,50.84304428100586,133.1832275390625,-3.299823760986328,5.276233673095703,-2.265012741088867,7.203157901763916,-68.37384033203125,-57.56221771240234,6.107961654663086,-0.9645298719406128,4.489153861999512,-156.57337951660156,-78.29344177246094,110.5662841796875,1.5043306350708008,1.1887826919555664,4.314516067504883
533.3340904712677,-153.32369995117188,-48.21543502807617,-71.95977783203125,-2.0818328857421875,-3.692399501800537,4.371516227722168,160.74412536621094,0.0024084954056888,-81.03608703613281,4.011817932128906,-3.267042636871338,-7.495079040527344,-15.75096321105957,58.16728591918945,142.6371307373047,1.7576963901519775,3.936199188232422,-1.99393892288208,10.02319049835205,-68.65062713623047,-46.27532196044922,11.643348693847656,-0.1409950852394104,-7.021431922912598,-143.96556091308594,-79.20439147949219,102.5808334350586,0.0705183297395706,2.231689453125,0.6604442596435547
533.3643445968628,-148.72183227539062,-54.52616882324219,-75.8377914428711,-0.0701973736286163,-9.211963653564451,5.803825378417969,162.25697326660156,-8.117009162902832,-80.48302459716797,0.7222530841827393,0.9931902885437012,-8.708759307861328,-2.3279600143432617,61.13790512084961,149.03953552246094,1.951392650604248,3.606205940246582,-4.905031204223633,12.007732391357422,-69.48002624511719,-33.35841751098633,10.984756469726562,6.227709770202637,-7.522771835327148,-134.29354858398438,-79.20061492919922,97.8376922607422,-3.12844467163086,-2.585087299346924,-5.235503196716309
533.3937559127808,-141.16375732421875,-61.589298248291016,-82.89795684814453,8.535032272338867,-12.2574462890625,2.300662040710449,163.39845275878906,-16.728919982910156,-79.2542495727539,-0.5626955032348633,3.9564828872680655,-6.891278266906738,8.283838272094727,62.79161071777344,149.7593994140625,4.397132873535156,1.3697257041931152,-7.208854675292969,16.10246467590332,-70.95641326904297,-22.77090072631836,6.044610977172852,6.40416145324707,-6.899558067321777,-128.64459228515625,-78.14388275146484,97.02406311035156,-1.031233787536621,-0.1541805565357208,-10.478275299072266
533.4540891647339,-137.6864013671875,-65.90914916992188,-87.06159210205078,1.4082942008972168,10.753313064575195,-3.7410826683044434,163.17823791503906,-25.80691146850586,-77.12300109863281,-2.9646248817443848,5.350753784179688,-3.815974712371826,12.7483549118042,63.70486068725586,145.9998779296875,3.002774238586426,-2.839204788208008,-7.289807319641113,24.49657249450684,-72.74560546875,-15.806070327758787,3.4608798027038574,4.905891418457031,-7.9519548416137695,-126.34326934814452,-77.52374267578125,97.6579360961914,2.124420166015625,3.6503076553344727,-10.65585708618164
533.4842481613159,-133.71580505371094,-67.33341217041016,-83.52284240722656,3.983254909515381,5.889229774475098,-5.545553207397461,159.7848358154297,-34.02743911743164,-73.59086608886719,-7.150144577026367,2.8110570907592773,-2.4041428565979004,7.232288360595703,63.45183563232422,135.77252197265625,-1.1122701168060305,-6.403332710266113,-8.143095016479492,33.64581298828125,-74.13642883300781,-11.375788688659668,0.9793204069137572,6.619017601013184,-7.45509147644043,-119.01603698730467,-78.01861572265625,91.30303192138672,2.684565544128418,1.174264907836914,-8.523082733154297
533.5137543678284,-133.791748046875,-67.89128112792969,-83.52245330810547,3.156278133392334,0.0359991639852523,-7.799703598022461,150.6497802734375,-41.00688171386719,-68.71521759033203,-9.794769287109377,1.875878095626831,4.030460357666016,-9.091527938842772,60.18710708618164,115.34030151367188,-5.835000991821289,-7.514217376708984,-8.083873748779297,42.13899612426758,-74.62367248535156,-10.108473777770996,-2.7068629264831543,5.1284894943237305,-6.453001976013184,-110.25259399414062,-78.5934829711914,83.10084533691406,0.6343091726303101,-1.3200440406799316,-9.242122650146484
533.5438311100006,-131.803466796875,-67.9029312133789,-88.21337127685547,-0.3592242002487182,8.230045318603516,-5.983992576599121,136.7891082763672,-45.71334838867188,-63.37089157104492,-0.9558712244033812,3.1684069633483887,7.93377685546875,-29.295000076293945,50.38955307006836,92.06111907958984,-3.3057198524475098,-0.2048282623291015,-15.173065185546877,50.38589477539063,-73.90160369873047,-11.042898178100586,-3.713584899902344,1.9315319061279297,-6.190321922302246,-103.35832214355467,-79.23210144042969,77.35395812988281,-2.0507540702819824,-2.2703843116760254,-6.007687568664551
533.5742845535278,-136.10986328125,-67.507080078125,-85.32119750976562,-7.171359062194824,-14.313121795654297,-3.7878165245056152,129.15899658203125,-48.23576736450195,-57.69454193115234,1.6086840629577637,12.758943557739258,9.786848068237305,-46.608154296875,33.064064025878906,76.60615539550781,14.359922409057615,30.89750289916992,-35.34886932373047,58.12486267089844,-72.5361557006836,-12.326489448547363,-4.076343536376953,1.7344636917114258,-3.952906608581543,-92.8191375732422,-79.13362121582031,68.58435821533203,-1.2635953426361084,-4.095802307128906,-0.8045063018798828
533.6044456958771,-142.80174255371094,-67.37419128417969,-78.89718627929688,1.8625576496124268,-10.564834594726562,-2.725213050842285,128.68215942382812,-46.034175872802734,-56.92863464355469,1.4618120193481443,19.90464782714844,9.086292266845703,-41.07172775268555,25.21542358398437,67.21991729736328,16.959144592285156,-0.984001636505127,-5.2093353271484375,62.108882904052734,-71.76577758789062,-11.776686668395996,-3.355621814727783,2.851892471313477,2.6344099044799805,-92.83839416503906,-78.42082977294922,69.05668640136719,0.8043630123138428,2.689270496368408,-2.4258384704589844
533.6340482234955,-147.7922821044922,-67.53746795654297,-69.83171081542969,-0.4750623703002929,-4.134238243103027,-0.619236946105957,131.4711456298828,-41.1043586730957,-61.52564239501953,10.58725929260254,-16.931846618652344,3.502652168273926,-38.276512145996094,31.842153549194336,74.44397735595703,-3.557533264160156,-1.740196704864502,-5.54472541809082,61.79500198364258,-72.33634948730469,-10.157849311828612,-1.614123821258545,2.216429710388184,5.845607757568359,-102.61339569091795,-78.98165130615234,76.93986511230469,4.281008720397949,-0.8284037113189697,-1.3950204849243164
533.6636462211609,-153.44845581054688,-67.68759155273438,-61.81312561035156,2.1501307487487797,-2.522768974304199,3.395191192626953,136.6010284423828,-37.99029922485352,-59.82006072998047,-1.663687229156494,-25.72873306274414,-6.727036476135254,-34.353755950927734,41.2194709777832,88.56302642822266,9.633832931518556,12.113592147827148,-6.610443115234375,63.916690826416016,-75.0600814819336,-15.85067653656006,-9.928815841674805,1.2315340042114258,8.958381652832031,-113.70353698730467,-79.23623657226562,85.63929748535156,0.2464127540588379,-0.6585969924926758,5.19521427154541
533.6942524909973,-157.77947998046875,-68.77252197265625,-55.778934478759766,-2.6343626976013184,-5.717212677001953,4.281167030334473,135.19070434570312,-35.083648681640625,-61.49423599243164,13.006208419799805,-17.696979522705078,-5.876310348510742,-17.310922622680664,45.27051544189453,109.9176788330078,-3.461325168609619,5.833588600158691,-10.67927360534668,66.82035827636719,-77.370849609375,-32.485679626464844,-9.447229385375977,3.0188283920288086,8.28359603881836,-124.23744201660156,-79.18204498291016,92.95330047607422,1.22454571723938,-0.8936570882797241,4.476147651672363
533.7540440559387,-161.15536499023438,-71.32830810546875,-52.55078125,-2.5554418563842773,-6.763554573059082,5.237706184387207,130.78773498535156,-31.49679183959961,-64.74525451660156,5.75894832611084,-8.642297744750977,-3.2276153564453125,-1.8414278030395508,42.09326171875,131.8275604248047,3.4923529624938965,6.989527702331543,-5.931828498840332,68.50413513183594,-77.37860107421875,-53.44142532348633,0.4029446840286255,-3.3368144035339355,6.234476089477539,-138.8670654296875,-77.6724853515625,102.78126525878906,5.723245620727539,-0.46812504529953,2.3733835220336914
533.7845249176025,-162.37327575683594,-75.99275970458984,-56.26066970825195,0.1099690347909927,-6.440167427062988,2.276762008666992,128.5668182373047,-28.505102157592773,-66.4222640991211,-3.4664454460144043,-6.125199317932129,4.283061981201172,12.115777969360352,33.81547546386719,149.92611694335938,5.3796586990356445,-0.9390885829925536,-10.154495239257812,58.86616516113281,-76.26356506347656,-60.87019729614258,-0.8957140445709229,-5.36536979675293,-2.0007805824279785,-150.94000244140625,-73.2747573852539,109.1653060913086,5.821557998657227,3.553353786468506,-1.6326055526733398
533.8143701553345,-170.70806884765625,-78.31825256347656,-54.19454193115234,1.5744075775146484,4.827577590942383,1.1837167739868164,129.80868530273438,-26.428735733032227,-67.25405883789062,8.126932144165039,-5.883367538452148,-4.059830665588379,18.32025146484375,21.581283569335938,165.60153198242188,3.8494505882263184,-1.2516331672668457,-8.635759353637695,42.38010025024414,-75.69648742675781,-57.66014862060547,-0.0545598492026329,-2.972348213195801,-8.852682113647461,-156.353515625,-69.81341552734375,108.92759704589844,5.079840660095215,2.072640895843506,-1.5637693405151367
533.8441689014435,174.525634765625,-75.294677734375,-46.10045623779297,-20.80093765258789,22.48067092895508,4.898709297180176,128.8155059814453,-24.316953659057617,-69.70226287841797,4.706601142883301,-6.886842727661133,-3.142709732055664,17.279890060424805,8.318890571594238,-179.3306427001953,-4.040022850036621,-5.083767890930176,-4.392847061157227,28.3072566986084,-75.6378402709961,-49.97444534301758,6.681502342224121,-3.1038923263549805,-8.994474411010742,-157.616943359375,-69.40328216552734,107.02333068847656,-2.831267833709717,-0.6575822830200195,0.4126996994018554
533.8734638690948,166.9857635498047,-64.4666748046875,-44.7467155456543,-4.743104934692383,22.106727600097656,13.670284271240234,128.85821533203125,-22.7351188659668,-71.15785217285156,4.756539344787598,-6.664994239807129,-2.569486141204834,8.020224571228027,-2.539272785186768,-165.81492614746094,-2.511817455291748,-10.87643814086914,-1.0051937103271484,12.12332248687744,-75.10140991210938,-36.29303359985352,13.081222534179688,-3.132760524749756,-4.628215789794922,-157.17173767089844,-69.15351867675781,105.04922485351562,-2.4200806617736816,3.6005873680114746,-0.5570173263549805
533.9044697284698,164.63319396972656,-50.46401977539063,-48.72200775146485,4.255112648010254,9.747520446777344,6.290088653564453,128.3534698486328,-21.579259872436523,-71.9003677368164,5.083714485168457,-6.286115646362305,-2.5466794967651367,-4.699799537658691,-10.138190269470217,-154.97271728515625,-5.018458366394043,4.546734809875488,6.87483024597168,1.9085689783096316,-72.9757080078125,-25.72079086303711,15.526119232177734,-1.652022123336792,-0.2346553802490234,-156.1306915283203,-68.4354248046875,103.00402069091795,7.228384017944336,6.350515365600586,4.577388763427734
533.9342575073242,163.99400329589844,-36.12864685058594,-53.526458740234375,9.268795013427734,2.7837557792663574,-1.0814409255981443,127.98068237304688,-20.825319290161133,-71.89497375488281,4.821148872375488,-6.950909614562988,-3.05923843383789,-7.11552619934082,-12.453052520751951,-147.99342346191406,-7.413817405700684,6.526309967041016,12.601821899414062,2.665189504623413,-70.48680114746094,-23.442506790161133,11.13466453552246,-2.401399612426758,2.015254020690918,-155.2220916748047,-68.90674591064453,101.1736297607422,2.384816646575928,6.241410255432129,4.006117820739746
533.964259147644,169.70310974121094,-22.613998413085938,-57.802490234375,8.929899215698242,0.4874821901321411,-6.707361221313477,129.8169403076172,-21.148887634277344,-68.76396179199219,3.165327548980713,-9.203235626220703,-4.748530387878418,-6.793815612792969,-11.631826400756836,-145.4876251220703,3.514158248901367,-7.106819152832031,3.8384523391723633,12.954873085021973,-67.49346923828125,-25.5245361328125,7.867474555969238,-2.791311740875244,1.0942249298095703,-155.27207946777344,-69.78242492675781,100.64615631103516,-0.2545955181121826,2.784765243530273,1.1398563385009766
533.9944281578064,177.88169860839844,-12.201566696166992,-62.27772521972656,1.6498267650604248,-2.467418670654297,-3.414905548095703,133.28440856933594,-21.953998565673828,-69.25757598876953,8.817863464355469,-6.992533683776856,-1.6926155090332031,-15.34842586517334,-12.637821197509766,-144.7648162841797,0.9341787099838256,-2.309544563293457,-3.667851448059082,27.07787322998047,-64.15404510498047,-27.642000198364254,5.613718032836914,0.3361508846282959,-0.7062473297119141,-155.29518127441406,-70.75397491455078,100.6974639892578,2.900608539581299,0.3944583535194397,-0.6779241561889648
534.0539853572845,-178.151123046875,-6.829325199127197,-67.76922607421875,2.236203193664551,-9.615959167480469,-11.99915885925293,131.8332977294922,-22.62619400024414,-74.29342651367188,5.733950614929199,-9.867773056030272,-6.304697036743164,-26.32921028137207,-19.245365142822266,-144.0117645263672,-5.910221099853516,4.367550849914551,-4.267436981201172,40.77748107910156,-60.36627960205078,-28.232566833496094,0.5436285734176636,2.2317285537719727,1.4946203231811523,-154.89410400390625,-72.16678619384766,100.64891815185548,2.494927406311035,0.6414679288864136,-6.89260196685791
534.0840752124786,179.79318237304688,-8.814400672912598,-72.57084655761719,2.169052600860596,-13.6943359375,-32.98743438720703,129.4384765625,-23.098527908325195,-81.48818969726562,-0.0787970870733261,-1.6900277137756348,-9.833528518676758,-31.073501586914062,-32.077510833740234,-143.35939025878906,-10.497303009033203,-5.477099418640137,10.823564529418944,53.80110168457031,-54.709747314453125,-25.600954055786133,0.5760178565979004,-4.373796463012695,-2.4046883583068848,-157.31919860839844,-72.2593765258789,102.2611846923828,2.585432529449463,1.6924848556518557,-12.01182746887207
534.1136021614075,178.8104248046875,-10.960763931274414,-73.94865417480469,-26.04975128173828,-22.1726188659668,40.631629943847656,125.37738800048828,-23.10601806640625,-86.18321990966797,3.1297755241394043,5.054780006408691,3.377928733825684,-23.153079986572266,-42.4150505065918,-149.1824188232422,-6.923776626586914,-9.930519104003906,15.439537048339844,72.8372802734375,-46.38498306274414,-24.94474601745605,-1.1188557147979736,9.929311752319336,-2.040050506591797,-158.2672576904297,-71.33428192138672,102.39256286621094,-0.7670739889144897,-0.0472571179270744,-6.365047454833984
534.1440222263336,-172.77113342285156,-16.035228729248047,-75.12738037109375,8.969045639038086,-18.799510955810547,-10.249305725097656,124.39485168457033,-21.76165199279785,-87.6084213256836,3.1625213623046875,-7.732664108276367,-0.3414421081542969,-10.474575996398926,-46.44831085205078,-157.62033081054688,-15.77863311767578,-10.0899658203125,4.031569480895996,88.4426498413086,-32.77128219604492,-27.18320846557617,-8.249475479125977,10.682571411132812,16.533164978027344,-156.2129364013672,-69.7794189453125,100.96385955810548,-5.028402328491211,1.7347557544708252,4.420942306518555
534.1741013526917,-168.0208282470703,-21.705734252929688,-77.59111022949219,-10.377897262573242,-21.69817352294922,9.42715835571289,123.01976776123048,-21.03038215637207,-88.58122253417969,6.124655723571777,-12.43288230895996,-1.3839073181152344,-11.195012092590332,-45.22932052612305,-159.04164123535156,-23.986934661865234,-12.86281967163086,-0.3284244537353515,94.71581268310548,-15.096755027770996,-27.99134063720703,2.208749771118164,-3.605604648590088,10.57741355895996,-156.65267944335938,-68.24393463134766,101.6382293701172,1.0718607902526855,-0.8027100563049316,5.868529319763184
534.2038862705231,-167.5883331298828,-18.42626190185547,-76.03675079345703,-0.4792501926422119,-21.842044830322266,7.617179870605469,121.1759033203125,-20.860748291015625,-89.94855499267578,4.022858619689941,-4.278841018676758,-2.978734016418457,-25.47171974182129,-41.78462219238281,-155.72535705566406,-22.22104263305664,-1.9355897903442385,1.0602264404296875,102.58122253417967,4.545165061950684,-29.64197540283203,6.10575008392334,4.878820419311523,26.142322540283203,-161.0069122314453,-65.7660140991211,106.68780517578124,6.288204193115234,5.161128044128418,10.503421783447266
534.2340841293335,-170.6017608642578,-12.879070281982422,-72.9544448852539,8.02292251586914,-28.606334686279297,-0.2405462265014648,119.29011535644533,-21.336650848388672,-89.5161361694336,4.134472846984863,-6.96605110168457,-1.6456327438354492,-40.096900939941406,-38.88383865356445,-155.17347717285156,-16.27480697631836,-0.1727113723754882,3.682795524597168,100.39691925048828,23.784442901611328,-35.29243469238281,5.392436027526856,-10.918405532836914,21.509540557861328,-162.2406005859375,-64.63300323486328,108.0654067993164,3.0985050201416016,4.571999549865723,6.661148071289063
534.2643990516663,-178.63873291015625,-7.725834369659424,-69.99303436279297,9.11652374267578,-26.483509063720703,-3.220865249633789,117.57843017578124,-22.294984817504883,-87.65460205078125,5.052150726318359,-7.931196212768555,-3.1181135177612305,-49.563907623291016,-39.93889999389648,-159.58248901367188,-11.299427032470703,9.342292785644531,3.5530385971069336,82.69232940673828,42.825382232666016,-48.01688766479492,8.530586242675781,-11.391286849975586,4.511521339416504,-163.47410583496094,-64.18806457519531,108.59966278076172,1.860334396362305,2.7512073516845703,4.524566650390625
534.29416847229,-178.174072265625,-3.193579912185669,-66.19894409179688,4.066832542419434,-16.38404083251953,-1.690471649169922,115.6516342163086,-23.045190811157227,-84.87175750732422,5.844985008239746,-7.460023880004883,-3.1684679985046387,-55.31810760498047,-45.5732650756836,-165.81552124023438,-10.38674545288086,5.121220588684082,4.127445220947266,51.15621566772461,56.84150314331055,-71.2102279663086,8.315555572509766,-8.416475296020508,1.204951286315918,-165.34912109375,-64.60824584960938,108.95569610595705,4.098544120788574,3.8439316749572754,4.472517013549805
534.3539249897003,-174.95176696777344,-0.9529623985290528,-63.1268424987793,-0.8101248741149902,-13.565021514892578,3.4383554458618164,113.1789321899414,-23.693601608276367,-80.37120056152344,6.710320472717285,-7.4329423904418945,-1.8331027030944824,-62.80418395996094,-53.22671508789063,-173.30657958984375,-5.50518798828125,10.330286026000977,9.568273544311523,15.896476745605469,61.11422348022461,-96.8680648803711,10.412324905395508,-2.27139663696289,-0.6127252578735352,-168.7102508544922,-64.97057342529297,110.16014862060548,3.4864706993103027,4.693095207214356,2.9992923736572266
534.3840563297272,-174.2485809326172,-1.072062373161316,-61.43324279785156,-4.727885246276856,-5.346909523010254,3.1376094818115234,109.94395446777344,-25.25916862487793,-71.07623291015625,1.1855583190917969,-17.04437255859375,-0.7931022644042969,-68.25039672851562,-62.462928771972656,178.8386688232422,1.0656304359436035,8.407793045043945,11.248941421508787,-9.836183547973633,60.60638046264648,-113.26759338378906,8.791780471801758,2.406557083129883,-3.5454201698303223,-174.4176483154297,-64.98177337646484,113.68054962158205,1.0028278827667236,4.293929100036621,6.071345329284668
534.4140493869781,-175.10574340820312,-4.280337810516357,-61.42416000366211,-4.488924980163574,1.1455047130584717,-2.648266315460205,113.83800506591795,-26.573707580566406,-62.38029098510742,7.344547271728516,-3.876531600952149,1.280710220336914,-72.72285461425781,-72.6463851928711,171.0144500732422,6.889655113220215,7.008959770202637,6.810476303100586,-20.243305206298828,59.98053741455078,-120.65746307373048,0.0728905349969863,2.2753500938415527,-4.782671928405762,179.02188110351562,-65.4296875,118.70806121826172,0.7190988063812256,1.1974763870239258,4.954227447509766
534.4442703723907,-178.3894805908203,-10.96506690979004,-62.992977142333984,-2.579927444458008,2.3005948066711426,-11.52655792236328,124.4278793334961,-28.600971221923828,-55.57320022583008,13.97369384765625,2.0014419555664062,-2.1008496284484863,-87.20854949951172,-83.02967834472656,172.56991577148438,11.794429779052734,2.772808074951172,0.2201156616210937,-16.65930938720703,60.73114013671875,-123.76756286621094,-0.2769026160240173,3.4381699562072754,-10.55052375793457,173.0125274658203,-66.46467590332031,124.30452728271484,1.1258747577667236,-0.1892623901367187,-2.571229934692383
534.4737327098846,177.459716796875,-21.209592819213867,-65.52265930175781,1.887437343597412,-0.9907956123352052,-19.686309814453125,138.131591796875,-30.01209831237793,-56.45357131958008,0.513866662979126,8.35108757019043,3.724639892578125,139.8975830078125,-85.2116928100586,-63.58661651611328,10.951223373413086,-4.043094635009766,-6.539427757263184,-9.16859245300293,62.09215927124024,-125.3043441772461,2.728400707244873,2.30667781829834,-12.571815490722656,167.17453002929688,-67.56771850585938,129.6265411376953,0.3199434876441955,1.3766539096832275,-9.75444793701172
534.5038063526154,175.33241271972656,-34.205055236816406,-69.24485778808594,2.364335536956787,-5.4174394607543945,-17.289527893066406,135.15956115722656,-28.413068771362305,-61.64976501464844,-11.57599639892578,-8.977710723876953,-10.950807571411133,121.61658477783205,-76.07600402832031,-47.84577178955078,7.191189765930176,-6.66683292388916,-9.883625030517578,-8.7190523147583,63.6666259765625,-126.19542694091795,2.39687728881836,-0.5470660924911499,-10.03764533996582,159.68626403808594,-68.87637329101562,134.9704132080078,-0.0499318167567253,0.8802731037139893,-9.44874382019043
534.534462928772,177.5030059814453,-49.40819549560547,-75.10199737548828,1.6316466331481934,-6.265377044677734,-8.112873077392578,130.94740295410156,-29.950592041015625,-60.93188095092773,3.8266639709472656,2.958761692047119,-1.3247365951538086,118.73450469970705,-68.90483093261719,-45.53303146362305,4.908790588378906,-5.706935882568359,-6.570468902587891,-13.360342979431152,66.1911849975586,-122.72881317138672,-2.140203952789306,1.552725076675415,-7.846508026123047,151.78665161132812,-70.68616485595703,141.413818359375,-0.2651993036270141,1.1007049083709717,-9.285890579223633
534.5635559558868,-169.9034423828125,-65.9466323852539,-88.05553436279297,1.4932332038879397,-5.968356132507324,8.04135513305664,131.11520385742188,-30.89851188659668,-60.76180648803711,-2.326793670654297,-3.866856098175049,-8.004941940307617,115.13648986816406,-66.13102722167969,-45.85420989990234,2.39149808883667,-3.708417892456055,-6.49710750579834,-9.135154724121094,70.4498519897461,-106.2175750732422,-7.295625686645508,2.4995908737182617,-1.920269012451172,146.0740203857422,-72.70287322998047,147.3634490966797,0.7329344749450684,2.1043343544006348,-8.584234237670898
534.5936224460602,-116.73072052001952,-79.13082885742188,-137.0213623046875,-5.167544364929199,12.321151733398438,24.90523910522461,129.83590698242188,-31.112489700317383,-63.28582763671875,7.161430358886719,-9.879961013793944,-5.058563232421875,109.25257110595705,-67.61351776123047,-47.54012298583984,-0.9019668102264404,-6.420977592468262,-6.713095664978027,23.45687294006348,71.51797485351562,-63.83942794799805,-0.327868103981018,-3.1298952102661133,-10.837287902832031,143.0466766357422,-73.35408020019531,149.6708526611328,0.3066593408584595,-3.570730209350586,-5.3369903564453125
534.6542806625366,-51.25865936279297,-77.73944854736328,163.87692260742188,-26.27740859985352,20.26354217529297,-19.42444610595703,126.1393585205078,-31.31734275817871,-66.70659637451172,2.726078987121582,-10.95458984375,-2.052806854248047,103.56297302246094,-69.8110122680664,-47.61174011230469,-0.6078333854675293,-11.32758331298828,-4.875722885131836,51.54280090332031,61.10518264770508,-27.064861297607425,15.939544677734377,-6.495448112487793,-29.949607849121094,141.70152282714844,-74.43964385986328,151.59585571289062,4.461058616638184,-2.1833276748657227,-2.154788017272949
534.6832795143127,-57.27194213867188,-79.5376205444336,164.1275177001953,4.000829696655273,21.619064331054688,-6.640048980712891,125.76636505126952,-32.306514739990234,-68.0528793334961,5.901419639587402,-12.70185089111328,0.4113197326660156,103.6860122680664,-69.48055267333984,-45.23541259765625,-1.2768003940582275,-9.101287841796877,-2.73484468460083,56.828426361083984,52.927978515625,-14.594046592712402,22.630054473876957,7.415648460388184,-3.467129230499268,140.3685760498047,-75.40022277832031,153.3152313232422,4.357246398925781,7.021235466003418,2.518880844116211
534.7140057086945,-107.82117462158205,-85.03485870361328,-138.30995178222656,-0.1065160930156707,10.46015739440918,3.334527969360352,127.35590362548828,-34.251441955566406,-68.50851440429688,6.854981422424316,-10.051210403442385,-1.853221416473389,108.60359191894533,-69.30007934570312,-44.44224548339844,2.370534420013428,-3.934489727020264,6.353633880615234,49.99840927124024,56.37515640258789,-22.76342010498047,-6.46080493927002,-9.13528060913086,-5.938843727111816,140.2234649658203,-75.91168212890625,154.02992248535156,0.7432767152786255,4.77370548248291,5.079656600952148
534.7439758777618,-164.3179168701172,-79.73107147216797,-70.16632080078125,-13.722396850585938,2.26955795288086,4.923762321472168,129.1191864013672,-37.294921875,-67.66889190673828,2.1414918899536133,-13.970624923706056,1.4525432586669922,117.36964416503906,-70.97171783447266,-46.98211669921875,0.3147424459457397,-3.7850217819213863,10.252067565917969,51.1800422668457,63.587013244628906,-40.40581512451172,11.668561935424805,5.878702163696289,-5.665960311889648,145.0391845703125,-76.44583129882812,151.39208984375,-0.8597613573074341,1.4642548561096191,5.02958869934082
534.7739729881287,-171.40199279785156,-73.56993103027344,-63.2789306640625,12.938762664794922,-7.031960487365723,1.1984539031982422,132.5723876953125,-40.88609313964844,-67.0632095336914,-2.9814162254333496,-5.245941162109375,0.9205141067504884,130.3164825439453,-73.89070129394531,-52.9765510559082,-1.1304504871368408,-2.31355619430542,6.989894866943359,29.731130599975582,67.66127014160156,-77.03915405273438,17.040817260742188,-1.2454862594604492,-15.762714385986328,151.31837463378906,-76.51075744628906,150.5366668701172,3.481748580932617,-0.5379892587661743,0.2480878829956054
534.8041591644287,-165.2715301513672,-71.40276336669922,-71.59599304199219,6.309765815734863,2.124901294708252,9.18002700805664,141.39735412597656,-43.02699661254883,-68.14631652832031,0.7073869705200195,6.21878719329834,6.413808822631836,148.5730743408203,-76.53900146484375,-63.6861457824707,-3.807821273803711,0.2274200916290283,1.5086021423339844,1.7005687952041626,62.696075439453125,-114.2170181274414,12.228887557983398,-7.323213577270508,-12.46738052368164,158.4562225341797,-75.82597351074219,149.3332061767578,2.094538688659668,-1.563446283340454,-2.447516441345215
534.8337607383728,-159.00479125976562,-68.80070495605469,-79.0980453491211,10.019798278808594,-16.831558227539062,2.79133415222168,158.2070770263672,-40.41411209106445,-70.71990966796875,-0.7672626972198486,15.007654190063477,23.50713348388672,169.1950225830078,-77.41309356689453,-77.02959442138672,-1.999969244003296,0.1493646502494812,-4.615261077880859,-16.03702735900879,52.91265487670898,-134.97860717773438,6.30980396270752,-5.906558990478516,-9.044614791870115,166.060302734375,-73.49561309814453,145.538818359375,1.1358075141906738,-0.559612512588501,-2.8947696685791016
534.893315076828,-154.4533233642578,-67.11328125,-78.31246948242188,-3.759974956512451,-4.811569213867188,2.213804244995117,171.43553161621094,-30.791906356811523,-74.7192611694336,-1.4040520191192627,2.47971248626709,15.050573348999023,-170.00625610351562,-77.24561309814453,-86.4482192993164,-7.912978172302246,10.304731369018556,-12.112871170043944,-29.688404083251957,41.450233459472656,-147.19874572753906,0.5337380170822144,-1.852447271347046,-5.7736005783081055,168.34075927734375,-71.54421997070312,145.3718719482422,-1.856485605239868,1.91697359085083,-4.429487228393555
534.8993225097656,-155.05410766601562,-64.36223602294922,-74.04290771484375,-4.067741394042969,-5.8507490158081055,-1.8332171440124512,178.5635986328125,-17.578041076660156,-77.26116943359375,-3.735229969024658,-2.9506959915161133,2.9272584915161133,-169.9774627685547,-76.49250030517578,-80.03064727783203,-7.226443290710449,10.296554565429688,-3.243114471435547,-40.1419792175293,30.114782333374023,-157.3931121826172,-14.78909683227539,-0.2906737923622131,10.826604843139648,170.02816772460938,-69.95768737792969,145.20652770996094,-4.727874755859375,-3.218564510345459,2.183852195739746
534.9540617465973,-156.0414581298828,-61.128028869628906,-72.68037414550781,-3.317385673522949,-4.049666404724121,0.810999870300293,178.82908630371094,-3.846864700317383,-78.22664642333984,-0.5494993925094604,-1.9495484828948972,-8.373678207397461,-178.40008544921875,-74.9762954711914,-68.22337341308594,2.5889039039611816,8.998039245605469,6.934366226196289,-26.29241180419922,25.988794326782227,-164.91744995117188,-22.603878021240234,39.49024963378906,39.42156219482422,169.61456298828125,-69.44231414794922,145.52528381347656,-3.669797420501709,0.5096137523651123,4.863672256469727
534.9840624332428,-156.3353729248047,-58.70043563842773,-72.31822204589844,0.1019697338342666,-1.4489622116088867,1.188206672668457,174.21011352539062,7.693884372711182,-78.01630401611328,-0.2910434603691101,-0.2212169170379638,-10.682031631469728,-177.8999786376953,-72.70964050292969,-66.2605209350586,-0.4925694465637207,5.032384872436523,4.329302787780762,3.228498935699463,28.67316436767578,-162.19972229003906,14.09145164489746,-2.897590160369873,-13.246789932250977,165.4858856201172,-69.85302734375,149.48858642578125,-1.5797796249389648,1.1937811374664309,7.4779815673828125
535.0135746002197,-156.16400146484375,-57.39078140258789,-71.62152099609375,0.5148758888244629,-1.60426664352417,0.6790800094604492,166.783447265625,15.689094543457031,-76.57453918457031,0.5495579242706299,-3.0322465896606445,-8.55042839050293,-175.86563110351562,-71.14215850830078,-70.3089599609375,-0.9396600723266602,1.4057223796844482,0.8729438781738281,14.709415435791016,28.563682556152344,-152.72706604003906,4.786870956420898,4.971495628356934,-2.380731105804444,160.9982452392578,-71.03642272949219,153.7176055908203,-4.301094055175781,-1.6281580924987793,-1.2423105239868164
535.0435743331909,-155.7840576171875,-56.84031677246094,-70.9306640625,-1.1048591136932373,-3.185507297515869,-0.1138219833374023,160.5709991455078,19.00868034362793,-73.13444519042969,2.6636266708374023,-6.595457077026367,-17.84975814819336,-176.94082641601562,-70.84635162353516,-74.30431365966797,1.3006207942962646,0.1456450819969177,-2.0393495559692383,26.230493545532227,23.7525577545166,-141.2639617919922,2.041137218475342,3.915614604949951,-7.568142890930176,155.49415588378906,-71.8479995727539,159.63417053222656,-1.6865901947021484,-0.9715683460235596,-3.536418914794922
535.073748588562,-156.31788635253906,-56.17444610595703,-70.10358428955078,-1.173444747924805,-5.178727149963379,-1.5598058700561523,161.39389038085938,15.141817092895508,-69.10551452636719,7.176819801330566,-8.315711975097656,-30.40808486938477,-179.44110107421875,-71.37480163574219,-78.02536010742188,-0.2868466377258301,-1.988452911376953,-3.8431930541992183,39.0732650756836,12.622302055358888,-132.30563354492188,0.6686834096908569,-2.057309150695801,-9.957767486572266,150.9247589111328,-72.53410339355469,164.53179931640625,0.5586211681365967,-1.2846791744232178,-3.66075611114502
535.1042892932892,-158.55653381347656,-54.484561920166016,-68.07109069824219,2.74710750579834,-3.3012008666992188,-2.416842460632324,165.72927856445312,7.817231178283691,-64.99015808105469,27.6020622253418,-19.712570190429688,32.60856628417969,175.92315673828125,-72.70128631591797,-82.73859405517578,-1.2470829486846924,-3.928568840026856,-6.546972274780273,46.09542465209961,-3.180293560028076,-124.20654296875,-4.742384910583496,-9.25204849243164,-5.340412139892578,146.0741424560547,-73.657958984375,169.4114990234375,-0.2232221066951751,-0.8427088260650635,-7.451301574707031
535.133871793747,-160.75009155273438,-52.258094787597656,-64.51022338867188,-0.3104491829872131,-3.990252494812012,-0.9086017608642578,161.96136474609375,8.137356758117676,-64.28939056396484,7.416128158569336,-10.11893081665039,-23.412887573242188,170.42308044433594,-75.21898651123047,-89.04950714111328,0.6238104104995728,-4.800387382507324,-5.732712745666504,44.09113693237305,-21.299598693847656,-113.77640533447266,-9.98000717163086,-16.56679916381836,1.659994125366211,142.1751251220703,-73.416748046875,174.35121154785156,-0.609588623046875,1.7042877674102783,-4.852846145629883
535.1638758182526,-162.94378662109375,-49.83868408203125,-59.61328887939453,0.175865352153778,-5.421669960021973,-2.082954406738281,158.6283721923828,7.51425838470459,-63.9374885559082,17.04509735107422,-16.261058807373047,-14.142744064331056,171.147705078125,-79.0475845336914,-102.0282211303711,2.617398262023926,-8.352317810058594,-2.6420645713806152,35.16427230834961,-38.77384567260742,-98.78512573242188,-10.58315658569336,-35.040985107421875,25.0339469909668,136.38702392578125,-73.39388275146484,-179.85211181640625,1.7229735851287842,2.54110050201416,-4.024367332458496
