Timestamp,D4:22:CD:00:05:5D_EulerX,D4:22:CD:00:05:5D_EulerY,D4:22:CD:00:05:5D_EulerZ,D4:22:CD:00:05:5D_FreeAccX,D4:22:CD:00:05:5D_FreeAccY,D4:22:CD:00:05:5D_FreeAccZ,D4:22:CD:00:05:5E_EulerX,D4:22:CD:00:05:5E_EulerY,D4:22:CD:00:05:5E_EulerZ,D4:22:CD:00:05:5E_FreeAccX,D4:22:CD:00:05:5E_FreeAccY,D4:22:CD:00:05:5E_FreeAccZ,D4:22:CD:00:05:6B_EulerX,D4:22:CD:00:05:6B_EulerY,D4:22:CD:00:05:6B_EulerZ,D4:22:CD:00:05:6B_FreeAccX,D4:22:CD:00:05:6B_FreeAccY,D4:22:CD:00:05:6B_FreeAccZ,D4:22:CD:00:05:6E_EulerX,D4:22:CD:00:05:6E_EulerY,D4:22:CD:00:05:6E_EulerZ,D4:22:CD:00:05:6E_FreeAccX,D4:22:CD:00:05:6E_FreeAccY,D4:22:CD:00:05:6E_FreeAccZ,D4:22:CD:00:49:AA_EulerX,D4:22:CD:00:49:AA_EulerY,D4:22:CD:00:49:AA_EulerZ,D4:22:CD:00:49:AA_FreeAccX,D4:22:CD:00:49:AA_FreeAccY,D4:22:CD:00:49:AA_FreeAccZ
2382.6306142807007,176.67449951171875,-56.81270980834961,-83.74884033203125,-5.212029457092285,1.5022368431091309,3.66191291809082,-175.65869140625,-57.17828369140625,-25.09236717224121,5.273373603820801,-6.696043014526367,12.748605728149414,-70.83431243896484,-60.10552215576172,-59.39116668701172,2.357405185699463,3.3811898231506348,2.8914690017700195,78.22964477539062,-41.33495330810547,79.97185516357422,1.106248378753662,12.275617599487305,9.934343338012695,132.36550903320312,-70.8533706665039,154.22718811035156,0.8855878114700317,2.8404054641723637,4.055217742919922
2382.6336145401,175.09127807617188,-54.57437515258789,-80.431884765625,-2.3591599464416504,1.4249160289764404,1.0349578857421875,-167.97360229492188,-51.73281478881836,-29.479158401489254,3.11237907409668,-2.4619898796081543,3.756001472473145,-79.02584075927734,-54.36020660400391,-56.87760162353516,-0.6312108039855957,6.922088623046875,12.858209609985352,81.57975006103516,-32.89229202270508,84.46227264404297,2.5150632858276367,15.963342666625977,8.539966583251953,131.1957244873047,-70.69508361816406,156.10073852539062,-1.8369817733764648,-1.1491856575012207,4.137571334838867
2382.6366155147552,175.58261108398438,-53.34601211547852,-79.77276611328125,-1.1931843757629397,-0.1394289433956146,1.059286117553711,-163.14703369140625,-50.37536239624024,-31.97547912597656,1.1921324729919434,0.3994454741477966,-5.023131370544434,-85.26724243164062,-46.53936767578125,-51.275691986083984,1.9075188636779783,13.459346771240234,18.757266998291016,84.01183319091797,-25.950634002685547,90.92049407958984,-0.9325181245803832,11.675762176513672,5.393280029296875,130.61935424804688,-71.25574493408203,156.9401092529297,-0.8129677772521973,-0.8878694772720337,4.642017364501953
2382.716163396836,-104.03434753417967,-72.75321197509766,-139.9305877685547,-2.9196267127990723,-0.228577971458435,-1.4370841979980469,29.47342109680176,-76.7977294921875,92.34109497070312,-0.5132688283920288,0.8481699228286743,16.202224731445312,-73.48921203613281,-36.44947814941406,-70.41646575927734,-0.255559504032135,1.200840711593628,-7.610506057739258,52.31777572631836,-81.95845794677734,86.5775375366211,5.388077735900879,-16.547000885009766,0.4331617355346679,178.65574645996094,-79.12506866455078,99.74649810791016,1.0463378429412842,0.2289985120296478,-2.86624526977539
2382.745149374008,-120.54051971435548,-73.81927490234375,-121.06053924560548,-0.3656209111213684,0.95950448513031,-0.7883825302124023,16.686603546142578,-74.23970794677734,100.80452728271484,3.138528347015381,11.566375732421877,15.841943740844728,-76.48776245117188,-30.046051025390625,-75.93878936767578,-0.2237430214881897,0.2442483305931091,-1.833573818206787,37.76506423950195,-57.04542541503906,97.33514404296876,-0.0788188576698303,2.534596443176269,2.2195281982421875,168.448974609375,-79.44139862060547,108.44432067871094,0.6715301275253296,-0.0792034864425659,-2.846830368041992
2382.779694080353,-139.0754852294922,-72.60725402832031,-99.7800750732422,-1.6544764041900637,3.225146770477295,-0.33258056640625,-75.9194107055664,-80.66659545898438,-165.27362060546875,-12.71101188659668,1.0581684112548828,16.853458404541016,-80.66622924804688,-21.191469192504883,-81.74884796142578,1.451263427734375,-2.344884395599365,12.89825439453125,35.04768753051758,-53.84688186645508,97.14593505859376,-0.5948766469955444,18.08241271972656,4.587106704711914,159.298583984375,-79.5003433227539,115.70492553710938,-1.9466352462768557,-0.9410058259963988,-2.658759593963623
2382.8056943416595,-152.07305908203125,-69.81483459472656,-84.10661315917969,-5.003606796264648,0.7356586456298828,0.5335426330566406,-141.58493041992188,-74.54786682128906,-94.32772064208984,-4.127140998840332,-0.4338203072547912,20.23093032836914,-82.38072967529297,-9.804323196411133,-88.80103302001953,6.157589912414551,-3.425992012023926,17.756134033203125,34.164833068847656,-62.915557861328125,103.84506225585938,3.324802875518799,15.321264266967772,5.928967475891113,168.98915100097656,-79.39854431152344,105.82919311523438,-1.444481372833252,-0.9899728298187256,7.376386642456055
2382.8357050418854,-161.192626953125,-66.82614135742188,-73.67748260498047,-4.701566696166992,-0.2933817505836487,0.4410696029663086,-155.4707489013672,-65.57434844970703,-74.95562744140625,-2.234702587127685,1.174898386001587,13.80438995361328,-80.10970306396484,4.557193279266357,-93.36296081542967,12.44990348815918,-1.6033148765563965,20.9459228515625,19.27717018127441,-69.33536529541016,127.87093353271484,-5.598040580749512,0.8077077865600586,9.55657958984375,177.59027099609375,-78.91958618164062,98.74153137207033,3.3314080238342285,-4.765204429626465,4.89213752746582
2382.8654160499573,-166.36428833007812,-64.0289535522461,-68.27472686767578,-4.3018951416015625,-0.1678492724895477,-0.0844612121582031,-161.89353942871094,-58.0618896484375,-68.77155303955078,3.266228199005127,5.19304084777832,0.4321870803833008,-68.49906921386719,21.995838165283203,-91.83887481689452,12.794086456298828,-7.840689659118652,17.50719451904297,-1.7360258102416992,-68.742431640625,152.497802734375,-10.066452026367188,-3.780137538909912,6.9435577392578125,177.77987670898438,-77.36627960205078,98.16329193115234,2.7306551933288574,-2.381106376647949,1.650771141052246
2382.895501613617,-169.2978057861328,-61.64045715332031,-66.12427520751953,-4.244824409484863,0.323434829711914,1.0642375946044922,-162.693359375,-55.13399887084961,-68.55438232421875,4.720223426818848,6.307097434997559,-7.47266674041748,-44.79462814331055,38.436744689941406,-80.31729125976562,5.208156585693359,-12.525873184204102,8.181453704833984,-17.366493225097656,-65.01876831054688,168.0806884765625,-16.519039154052734,0.153969794511795,5.303398132324219,-179.72537231445312,-75.80543518066406,96.35385131835938,-1.764040231704712,-0.5869369506835938,4.675870895385742
2382.954970121384,-171.23472595214844,-60.08046722412109,-66.22469329833984,-3.129300117492676,1.671086072921753,0.1604776382446289,-158.08485412597656,-58.425689697265625,-72.42568969726562,4.813610076904297,4.043212890625,-10.818069458007812,-11.0089750289917,46.55632400512695,-59.84143829345703,-4.199211120605469,-9.261922836303713,1.4425544738769531,-23.305110931396484,-60.750038146972656,178.5784912109375,-19.798168182373047,-2.5671815872192383,4.563611030578613,-171.33139038085938,-74.59818267822266,90.59619140625,-3.553575038909912,0.1993950009346008,5.142253875732422
2382.985566854477,-172.1725311279297,-59.7280387878418,-66.86881256103516,-1.963733434677124,1.699354648590088,1.3613052368164062,-145.4281005859375,-67.12646484375,-83.20037841796875,2.6703248023986816,0.0477780178189277,-11.206281661987305,18.85106658935547,47.05440521240234,-42.14340972900391,-9.186525344848633,-8.734268188476562,0.8533201217651367,-18.13812065124512,-56.8462028503418,-173.35186767578125,-20.704124450683597,-6.638901710510254,-2.155381679534912,-160.7860565185547,-73.02371215820312,82.80111694335938,0.4004574418067932,1.167290449142456,7.900283813476562
2383.0155670642853,-173.09165954589844,-60.880741119384766,-67.45521545410156,-1.5965697765350342,2.0154519081115723,2.527521133422852,-107.58172607421876,-77.5024185180664,-119.3890609741211,1.8725144863128664,-4.704677581787109,-8.461790084838867,38.14678955078125,47.162109375,-33.958030700683594,-7.86069393157959,-11.491891860961914,-2.883889675140381,-13.523360252380373,-54.58742141723633,-164.15444946289062,-15.835159301757812,-12.282257080078123,-6.401891708374023,-152.43251037597656,-72.36955261230469,77.13726806640625,1.921633243560791,3.025991439819336,10.746326446533203
2383.0455667972565,-174.06100463867188,-64.22935485839844,-67.48194885253906,-1.522563934326172,3.329751968383789,3.477911949157715,-33.80619430541992,-74.748291015625,165.0352325439453,-1.0457613468170166,-5.564586639404297,-5.176885604858398,47.20192337036133,48.43985748291016,-31.95366096496582,-3.647134304046631,-7.523297309875488,-4.354151725769043,-14.06395435333252,-54.49910354614258,-153.7053985595703,-8.422964096069336,-12.84270477294922,-10.618314743041992,-144.50839233398438,-73.1404800415039,73.0054702758789,-3.8112401962280273,3.1075682640075684,7.708230972290039
2383.075099468231,-174.00205993652344,-71.2098617553711,-69.53791046142578,0.4040552973747253,-2.5228590965271,9.261924743652344,-9.418200492858888,-61.387577056884766,135.25924682617188,-9.859048843383787,8.579952239990234,-1.3805046081542969,49.333473205566406,50.8031005859375,-34.170188903808594,-0.7103381156921387,-5.617226600646973,-5.904243469238281,-18.64501571655273,-55.66179656982422,-144.06813049316406,-0.6511505842208862,-8.63679313659668,-14.49411392211914,-137.03262329101562,-72.83763122558594,69.74740600585938,-1.683393478393555,1.2313721179962158,1.7530155181884766
2383.1054377555847,-178.70022583007812,-77.99536895751953,-69.84443664550781,1.492562770843506,4.5189409255981445,0.0561246871948242,-6.310164451599121,-49.336700439453125,123.23211669921876,-18.88011932373047,24.976394653320312,-2.72170352935791,48.41746139526367,54.202674865722656,-39.28893280029297,-0.4128983616828918,-2.181443214416504,-5.874683380126953,-25.146987915039062,-57.55417251586914,-137.02505493164062,1.2284183502197266,-5.604108810424805,-13.792022705078123,-130.62806701660156,-71.80562591552734,68.36144256591797,1.3420207500457764,-0.8528221845626831,-5.873703002929688
2383.134840488434,176.5702362060547,-76.65349578857422,-59.47279357910156,-2.0949673652648926,21.65167999267578,-3.302633285522461,-10.042922973632812,-42.95778274536133,118.9363250732422,-6.682132720947266,24.25634002685547,-23.029285430908203,43.64150619506836,58.69813919067383,-49.30956268310547,1.6471707820892334,0.626139760017395,-4.470073699951172,-32.022674560546875,-60.01285171508789,-131.74778747558594,0.375424861907959,-5.051589012145996,-10.84827995300293,-128.16403198242188,-71.17386627197266,69.78331756591797,2.1294002532958984,0.2987972497940063,-12.491514205932615
2383.165388584137,173.5355224609375,-70.15186309814453,-51.82294464111328,6.234692573547363,-6.060675621032715,-12.647056579589844,-10.902318000793455,-43.7967414855957,118.55310821533205,0.6051369905471802,18.62471389770508,-24.407546997070312,29.86408805847168,65.09281921386719,-69.29749298095703,7.55320930480957,2.99888277053833,-6.400732040405273,-37.51853942871094,-62.45804977416992,-127.97132873535156,1.108849048614502,-6.8398847579956055,-9.598350524902344,-128.7195587158203,-71.65647888183594,72.13156127929688,3.640808582305908,2.175957202911377,-10.105052947998049
2383.195387840271,175.76499938964844,-70.63093566894531,-50.0614128112793,3.6700825691223145,-9.948244094848633,-8.929237365722656,-13.409149169921877,-50.55385208129883,122.90094757080078,-16.31519317626953,12.65561294555664,-16.101821899414062,-10.51378345489502,65.40795135498047,-109.45099639892578,7.70188045501709,3.6219444274902335,-16.296058654785156,-41.16020202636719,-63.4398078918457,-126.05091094970705,1.8837840557098389,-5.310873985290527,-5.90438175201416,-125.3494644165039,-74.33695220947266,68.9885025024414,0.8584076166152954,1.4116106033325195,-7.195652008056641
2383.2564058303838,174.02615356445312,-71.74161529541016,-49.2082405090332,0.3040359616279602,-8.593189239501953,-2.589064121246338,-29.355712890625,-61.251094818115234,133.5304718017578,-13.122066497802734,12.075372695922852,-5.127375602722168,-49.662879943847656,51.828609466552734,-135.45037841796875,-11.604742050170898,-0.5517463684082031,-33.73100280761719,-43.59687423706055,-63.32303237915039,-124.2672882080078,1.2742180824279783,-5.857250213623047,-3.7750210762023926,-116.70755004882812,-76.58596801757812,61.167213439941406,-2.515886783599853,-1.94411301612854,-6.95955753326416
2383.284933567047,171.18089294433594,-71.75064849853516,-45.29948806762695,0.7342065572738647,-8.350908279418945,1.0763883590698242,-51.58236312866211,-69.99232482910156,151.99281311035156,8.15424919128418,-19.74417495727539,19.12841033935547,-72.776123046875,38.63220977783203,-140.71755981445312,-34.31108093261719,-5.246613502502441,-7.747398376464844,-45.52618789672852,-62.60317993164063,-121.03606414794922,1.551703691482544,-8.864255905151367,-0.7291936874389648,-112.53658294677734,-76.95521545410156,58.19078063964844,-0.8574140071868896,0.2404442727565765,-1.3357887268066406
2383.3159341812134,167.3158416748047,-70.72093963623047,-36.8948974609375,0.7000242471694946,-0.4359081387519836,1.7329912185668943,-54.19232940673828,-72.84556579589844,158.84149169921875,-15.004165649414062,-19.965953826904297,-0.4560317993164062,-80.2568588256836,44.89128875732422,-137.4479217529297,-6.747227668762207,-1.836838722229004,3.8971681594848633,-49.47672271728516,-62.37656021118164,-116.708740234375,7.162201881408691,-13.63324737548828,0.3418359756469726,-108.65131378173828,-78.18854522705078,52.87187194824219,1.3969769477844238,3.850987434387207,2.2977294921875
2383.3459334373474,161.75225830078125,-69.76502227783203,-29.04773712158203,2.255667209625244,3.2746920585632324,1.8163747787475584,-62.40356063842773,-75.33901977539062,163.8264617919922,1.5352883338928225,0.6821351051330566,8.357980728149414,-69.00299835205078,54.498512268066406,-125.49806213378906,-15.886970520019531,-8.028989791870117,-10.115184783935549,-56.86266708374024,-63.26731872558594,-115.00493621826172,4.550168037414551,-13.782838821411133,0.9408998489379884,-110.402099609375,-79.60055541992188,51.886024475097656,-0.34900963306427,-1.6690433025360107,-0.3237295150756836
2383.3749709129333,155.02731323242188,-69.83452606201172,-23.48282623291016,-1.395068883895874,-0.1379019021987915,5.121335983276367,-72.21463775634766,-77.39865112304688,170.97230529785156,-0.5448659658432007,3.015747547149658,6.206232070922852,-39.72628784179688,60.88112258911133,-98.09886932373048,-4.238468170166016,-3.962265491485596,-21.759998321533203,-65.2425765991211,-65.62449645996094,-116.75821685791016,-2.836147785186768,-8.84290885925293,8.01089859008789,-110.55493927001952,-81.0138168334961,49.935096740722656,-0.9330463409423828,1.2673914432525637,3.226142883300781
2383.4059629440308,145.02098083496094,-71.58322143554688,-16.402650833129883,2.850681781768799,-1.138172626495361,3.3741397857666016,-76.84027862548828,-79.6261215209961,175.39878845214844,-1.7285115718841553,3.5680127143859863,-0.5251483917236328,-15.405027389526367,57.06668472290039,-67.37971496582031,-3.594447135925293,-5.40492057800293,-6.955867767333984,-69.21593475341797,-69.03669738769531,-121.53492736816406,-3.6594839096069336,1.359264612197876,5.787453651428223,-109.88116455078124,-82.06555938720703,47.9830322265625,1.3539936542510986,-3.891526699066162,5.848155975341797
2383.435971736908,133.73431396484375,-72.01136016845703,-10.737680435180664,3.687247276306152,0.9773519039154052,-0.9637517929077148,-73.46430206298828,-82.33734893798828,173.57249450683594,-4.842873573303223,3.8891348838806152,-1.670649528503418,-0.5857318639755249,47.172645568847656,-51.79488754272461,-7.857797622680664,-2.7691164016723637,0.4872274398803711,-74.31572723388672,-73.3045654296875,-125.55159759521484,-4.863422393798828,1.7563796043395996,1.2382888793945312,-114.6923599243164,-81.98345184326172,52.47233963012695,3.793720245361328,-0.7460633516311646,-0.468297004699707
2383.465514421463,129.2210693359375,-69.24935913085938,-14.41127109527588,3.562483310699463,10.138931274414062,6.297203063964844,-62.22101593017578,-84.36174011230469,163.98910522460938,-4.629688262939453,3.5692286491394043,2.7898073196411133,10.576475143432615,35.329647064208984,-43.53173828125,-4.293601036071777,3.42048454284668,-4.22627067565918,-76.13268280029297,-77.1725082397461,-130.01864624023438,-8.218843460083008,5.039264678955078,4.600440979003906,-125.83544158935548,-80.89176177978516,61.27814865112305,12.785272598266602,2.024932384490967,-2.215317726135254
2383.4955134391785,134.49900817871094,-62.21158218383789,-26.39456558227539,2.330743789672852,21.918216705322266,13.289390563964844,-54.62044525146485,-85.29589080810547,156.9142303466797,-3.979769706726074,3.280404090881348,2.8950653076171875,13.302159309387209,22.10640335083008,-36.45853805541992,6.170682907104492,13.548357009887695,2.480308532714844,-67.70895385742188,-80.11032104492188,-138.20968627929688,-11.689828872680664,5.395194053649902,1.332258224487305,-137.7000732421875,-79.91674041748047,68.75318145751953,8.931112289428711,0.7773580551147461,0.4138288497924804
2383.555529117584,140.5177459716797,-52.2635612487793,-37.76675033569336,1.7784228324890137,10.608039855957031,8.899887084960938,-45.96341323852539,-85.61019134521484,148.8397216796875,-2.6532135009765625,1.073695421218872,5.733227729797363,-2.2349987030029297,7.8383283615112305,-30.19289207458496,4.613457679748535,6.578851699829102,-5.117144584655762,-58.34383773803711,-82.36334228515625,-145.839111328125,-8.693065643310547,1.7631983757019043,-1.7920513153076172,-145.20176696777344,-80.33401489257812,72.41148376464844,-1.0788984298706057,1.3309893608093262,2.704648017883301
2383.5850570201874,144.23330688476562,-42.42173767089844,-46.777923583984375,4.90296745300293,2.546229839324951,-3.7397494316101074,-18.97075462341309,-83.34274291992188,127.5732879638672,5.312289237976074,5.365365028381348,-2.98586654663086,-16.303531646728516,-4.570377349853516,-26.23590660095215,1.013075828552246,-9.477001190185549,4.345017433166504,-48.62950134277344,-83.64862060546875,-151.26611328125,0.5969815254211426,1.8038523197174072,-1.7887210845947266,-148.65280151367188,-80.36515808105469,72.59705352783203,3.6133766174316406,1.6175565719604492,5.913010597229004
2383.615056991577,150.12474060058594,-34.013545989990234,-54.52318954467773,0.6311239004135132,-1.4388597011566162,-12.977094650268556,-44.02023315429688,-84.27310180664062,152.1327667236328,-0.4962262511253357,2.688184261322021,-6.889251708984375,-22.15529441833496,-15.295104026794434,-24.361804962158203,-1.7365527153015137,-1.5936791896820068,-0.0239839553833007,-31.22191429138184,-83.38138580322266,-161.2056121826172,0.9354813098907472,-4.513867378234863,-3.904034614562988,-149.76832580566406,-80.2781753540039,71.69084930419922,3.163336753845215,1.8971822261810305,2.196752548217773
2383.645057916641,156.28465270996094,-28.244081497192383,-60.8807487487793,-3.715980052947998,-3.3170785903930664,-16.870677947998047,-75.04495239257812,-82.70410919189453,179.5048370361328,0.5025100708007812,1.9267125129699707,-11.115663528442385,-24.82681655883789,-28.65654754638672,-25.292686462402344,0.7222350835800171,-1.580061435699463,-2.761727333068848,-9.73409652709961,-82.65303039550781,-179.12985229492188,-1.2016923427581787,-7.518712997436523,-6.746694564819336,-151.1280975341797,-80.5770263671875,71.58796691894531,0.9621607065200806,2.0242300033569336,-3.0710883140563965
2383.700606584549,161.54592895507812,-26.41438102722168,-65.97345733642578,-5.173872947692871,-2.3577380180358887,-15.3311767578125,-94.5218276977539,-80.35518646240234,-165.99176025390625,-13.190336227416992,17.41244125366211,-10.89229965209961,-23.37112236022949,-47.42001724243164,-30.21854019165039,9.197921752929688,-6.764265060424805,2.740084648132324,18.16085624694824,-81.24456024169922,152.6747283935547,0.9605367183685304,-6.552321434020996,-6.0971221923828125,-153.02166748046875,-80.55496215820312,73.36713409423828,-1.7698123455047607,2.263078212738037,-7.399082183837891
2383.7056064605717,163.9826202392578,-27.671634674072266,-71.34466552734375,-5.128097534179688,-5.332732200622559,-9.918190002441406,-115.29660034179688,-78.2155990600586,-151.0653839111328,-12.199674606323242,-0.3397808074951172,0.102813720703125,-3.7904365062713614,-68.20649719238281,-51.59132766723633,17.723186492919922,-11.943353652954102,34.10858917236328,40.16265487670898,-75.63150024414062,129.8945770263672,1.8325283527374268,-4.7026872634887695,-3.280588150024414,-157.7054443359375,-80.62822723388672,79.10595703125,-0.8585151433944702,2.522164821624756,-9.602191925048828
2383.7356061935425,161.0297393798828,-32.592159271240234,-76.68526458740234,-4.163229942321777,-8.995111465454102,-11.799962997436523,-128.8583984375,-75.3677978515625,-138.4356689453125,0.6235675811767578,0.7339490652084351,4.929067611694336,30.031593322753903,-71.99881744384766,-89.84475708007812,-10.310794830322266,-4.995997428894043,23.700958251953125,54.08650970458984,-64.99981689453125,117.7822265625,-4.065932273864746,-11.237640380859377,2.890416145324707,-162.7183380126953,-79.95418548583984,84.46516418457031,-1.342716932296753,1.2292680740356443,-8.502944946289062
2383.76513838768,159.52810668945312,-36.56428909301758,-81.25870513916016,1.83159613609314,-2.4127583503723145,22.93344116210937,-140.3806610107422,-71.16412353515625,-128.06422424316406,-4.358983039855957,5.254125595092773,-3.922739982604981,9.847604751586914,-72.1729507446289,-69.35222625732422,20.136253356933597,9.08283805847168,-2.942199230194092,60.79642868041992,-49.43339920043945,112.17807006835938,-2.540109634399414,-16.166889190673828,13.011178970336914,-161.73585510253906,-80.22386169433594,83.37346649169922,2.393483638763428,-0.2811099886894226,-2.408003330230713
2383.795137643814,160.93638610839844,-37.94683074951172,-80.48357391357422,-3.580828666687012,-17.44896697998047,10.270092010498049,-146.7479705810547,-69.33985900878906,-120.93533325195312,-4.245896339416504,3.921611785888672,0.0726442337036132,-34.47626495361328,-65.45518493652344,-33.57645797729492,3.891213893890381,-11.063655853271484,5.33576774597168,61.59102630615234,-31.387561798095703,110.34983825683594,1.106358528137207,-11.587059020996094,15.423660278320312,-159.30825805664062,-80.4288558959961,80.8373031616211,6.436239242553711,-2.393662929534912,1.2828302383422852
2383.8551502227783,160.44496154785156,-33.686363220214844,-74.66206359863281,1.7174394130706787,-15.778728485107422,18.061431884765625,-149.853759765625,-69.30232238769531,-117.77465057373048,-4.879604339599609,4.070952415466309,2.6727113723754883,-42.76662826538086,-53.87518310546875,-22.98814392089844,9.20180320739746,-8.35267448425293,13.348642349243164,58.682167053222656,-11.617527961730955,108.16207122802734,4.765458106994629,-7.03611946105957,16.895885467529297,-164.90757751464844,-78.35006713867188,85.36672973632812,3.098693370819092,-3.008251190185547,4.641121864318848
2383.885685443878,162.44711303710938,-23.179344177246094,-69.4512939453125,9.169427871704102,-15.326848983764648,20.75034713745117,-149.02166748046875,-70.52625274658203,-119.20635223388672,-4.449737548828125,4.689555168151856,3.840919494628906,-38.61516571044922,-45.19305419921875,-25.87453269958496,13.600282669067385,-3.5231313705444336,1.393296241760254,52.46794891357422,9.390671730041504,102.48927307128906,-1.2529196739196775,-1.05043625831604,17.279674530029297,-169.0494384765625,-78.40255737304688,87.42123413085938,0.8391135931015015,1.725966453552246,8.497608184814453
2383.9156863689423,159.4612274169922,-12.005208969116213,-68.69982147216797,3.485702991485596,-17.48813247680664,12.330825805664062,-144.9326171875,-72.9909439086914,-124.5816650390625,-5.613086700439453,4.014335632324219,5.15397834777832,-44.10755157470703,-38.67696380615234,-31.70508575439453,6.757225036621094,-7.7138671875,-0.904911994934082,44.66226577758789,29.501882553100582,92.70500946044922,-11.340312957763672,2.798678398132324,15.24803352355957,-171.1051788330078,-78.21625518798828,88.54537200927734,-0.1875523924827575,2.509905338287353,8.048236846923828
2383.9456782341003,154.4302978515625,-3.887593507766724,-70.59504699707031,0.5510773658752441,-9.327590942382812,-4.426393508911133,-135.5629119873047,-76.5020980834961,-134.313232421875,-6.316712379455566,-0.1794080436229705,7.60491943359375,-49.6561279296875,-35.03162384033203,-38.8009033203125,1.1858673095703125,-9.655725479125977,5.00667667388916,29.24535369873047,46.23284912109375,77.57418060302734,-15.777484893798828,4.0484724044799805,3.652459144592285,-176.41062927246094,-77.3099594116211,92.8901596069336,9.279205322265623,1.399289608001709,10.441604614257812
2383.9752180576324,154.51893615722656,-0.7917500138282776,-72.92737579345703,-3.90751314163208,-2.5745553970336914,-13.559455871582031,-114.07015228271484,-79.78147888183594,-154.4844207763672,-4.7068071365356445,-3.559864997863769,5.013358116149902,-50.8460807800293,-34.45365905761719,-46.73222732543945,2.363533973693848,-3.940008640289306,6.149256706237793,6.711336135864258,57.10811996459961,54.504425048828125,-5.431983947753906,-3.65239143371582,-6.9434661865234375,175.90744018554688,-77.05729675292969,98.91082000732422,7.910665512084961,2.5243921279907227,9.410619735717772
2384.0052185058594,157.0090789794922,-3.913889169692993,-74.7816390991211,-8.182470321655273,-2.4751944541931152,-16.568679809570312,-78.32583618164062,-80.16297149658203,170.17185974121094,-0.2841318249702453,1.070713996887207,-7.6837263107299805,-52.82022857666016,-36.99078369140625,-54.8686637878418,-2.284263134002685,-1.9502599239349363,6.196596145629883,-10.236092567443848,61.34135437011719,29.125736236572266,-4.690682411193848,-5.514674186706543,-6.46254825592041,165.6192626953125,-76.57819366455078,106.3923797607422,0.5706745386123657,0.3978925943374634,5.374349594116211
2384.035297870636,157.40330505371094,-13.15243911743164,-75.38398742675781,-6.299077987670898,-3.714990139007568,-19.94934463500977,-57.50757598876953,-78.82576751708984,151.5106964111328,-2.9954214096069336,1.693645715713501,-8.816810607910156,-52.36654281616211,-40.89454650878906,-62.687381744384766,-3.7544608116149902,0.7731344699859619,1.464569091796875,-13.480628967285156,61.545989990234375,16.232675552368164,-1.971750020980835,-7.068138122558594,-7.775053024291992,155.562744140625,-75.76190948486328,114.29996490478516,-0.4946922659873962,0.4437918663024902,1.7741765975952148
2384.065851926804,157.3160858154297,-27.09298515319824,-74.29222869873047,-2.0985732078552246,-12.309022903442385,-16.83182144165039,-42.490909576416016,-76.79474639892578,134.0831756591797,-6.54622745513916,5.111432075500488,-9.546680450439451,-50.13749694824219,-44.56721878051758,-70.01897430419922,-3.1036291122436523,4.258203506469727,-1.1178712844848633,-5.782511234283447,61.57097244262695,18.96469497680664,-0.4107623100280761,-3.155479431152344,-10.928390502929688,147.1136932373047,-74.4632339477539,121.508056640625,1.889030933380127,0.7827142477035522,-4.943183898925781
2384.095851659775,157.10269165039062,-44.09187316894531,-71.54399108886719,-1.017190933227539,-15.232229232788086,-7.2876129150390625,-32.20118713378906,-75.84357452392578,124.08951568603516,-1.3196449279785156,14.541309356689451,-16.319171905517578,-44.69817733764648,-46.95803451538086,-77.31378936767578,-2.9180455207824707,4.32558536529541,-6.130512237548828,6.240427494049072,61.6181640625,31.214624404907227,1.048522710800171,-3.722232818603516,-11.627735137939451,142.99537658691406,-72.466552734375,124.76519775390624,-1.3976953029632568,2.872997760772705,-11.265213012695312
2384.1548657417297,153.55743408203125,-64.14549255371094,-65.78282928466797,4.214198112487793,-7.26760196685791,8.676366806030273,-29.65896224975586,-75.74070739746094,123.26072692871094,1.485034704208374,6.46440315246582,-5.358808517456055,-39.643516540527344,-47.38222885131836,-83.1624984741211,-1.6767780780792236,1.6168546676635742,-9.46364402770996,24.363370895385746,59.54537963867188,50.75722122192383,1.149681568145752,-2.941817283630371,-13.658016204833984,139.3112335205078,-70.69597625732422,126.4677963256836,-2.670290946960449,0.1206225007772445,-10.258611679077148
2384.18548989296,112.58406829833984,-84.37712860107422,-21.10655975341797,4.4181718826293945,11.529150009155272,22.860790252685547,-30.667625427246094,-76.37647247314453,125.32100677490234,2.3407344818115234,-4.272515296936035,1.2241621017456057,-36.619171142578125,-46.52608108520508,-87.47228240966797,-0.2213842868804931,0.4366726875305176,-9.632373809814451,42.91119384765625,52.52707290649414,73.10804748535156,-3.388936996459961,5.913797378540039,-18.297531127929688,135.04901123046875,-70.82597351074219,127.6123046875,1.054046869277954,-0.6447561979293823,-6.801704406738281
2384.2154948711395,9.92145538330078,-74.66352081298828,87.44625854492188,-0.5859999656677246,24.234699249267575,8.984781265258789,-49.24330139160156,-78.13790893554688,139.46995544433594,-4.229166030883789,-0.2714055180549621,2.244251251220703,-36.448280334472656,-44.69137573242188,-90.67779541015624,-0.7293205261230469,1.5039145946502686,-8.08419418334961,48.05426025390625,40.09253692626953,90.4477081298828,-8.369857788085938,24.278797149658203,-21.415451049804688,132.4560546875,-72.31360626220703,128.99258422851562,1.6428492069244385,-0.2598229050636291,-11.542539596557615
2384.245629787445,-1.8877992630004885,-66.8332290649414,91.85061645507812,-8.635879516601562,25.101348876953125,-36.502723693847656,-77.52188873291016,-78.41397857666016,162.3649444580078,-11.41948699951172,0.1216317266225814,3.411834716796875,-35.37940216064453,-42.81114196777344,-93.8153305053711,-0.7800326347351074,1.888019561767578,-6.620294570922852,41.18007278442383,32.685726165771484,100.08190155029295,-1.5580017566680908,10.650907516479492,-9.561342239379885,129.6742401123047,-73.45198059082031,129.91921997070312,4.549016952514648,-0.4409704804420471,-7.920403480529785
2384.2751791477203,-4.585686206817627,-68.949951171875,85.10220336914062,6.258888244628906,11.281492233276367,-6.693103790283203,-93.58370971679688,-77.04559326171875,175.71990966796875,-1.729238510131836,4.380349159240723,3.086153030395508,-31.908950805664062,-42.16986846923828,-97.3274917602539,-0.5184899568557739,2.0864620208740234,-5.143642425537109,38.9674186706543,33.0273323059082,94.52722930908205,7.064647674560547,-2.7575759887695312,-2.8779354095458984,127.08606719970705,-73.39495086669922,127.37920379638672,4.3310651779174805,-4.855544090270996,2.3962831497192383
2384.3051800727844,5.534504413604736,-73.49215698242188,74.60420989990234,5.597550392150879,6.71962833404541,-2.261969566345215,-95.2447509765625,-75.55725860595703,177.13995361328125,-2.2835044860839844,3.8914623260498047,6.792362213134766,-25.70013999938965,-43.313270568847656,-101.97329711914062,0.503537654876709,-0.2106258869171142,-4.352934837341309,42.360599517822266,36.97848510742188,79.24246215820312,-5.053981781005859,13.731721878051758,-6.44821834564209,123.46621704101562,-74.2002944946289,128.62867736816406,-5.315295219421387,4.581156730651856,5.912801742553711
2384.335179805756,30.824466705322266,-78.3626708984375,55.50141143798828,6.119791030883789,9.157018661499023,2.995408058166504,-90.33285522460938,-74.09207153320312,172.80865478515625,-4.749218940734863,2.1531219482421875,4.165513038635254,-20.134634017944336,-46.364402770996094,-107.79867553710938,0.7244460582733154,-4.346948623657227,-2.606639862060547,38.76664352416992,42.05380630493164,56.57941436767578,-2.69266414642334,21.333221435546875,-9.861515045166016,128.49932861328125,-76.13253784179688,125.08589935302734,1.7593066692352295,2.376523494720459,2.763979911804199
2384.365722179413,70.95962524414062,-81.92994689941406,22.19849967956543,1.4755361080169678,12.327692031860352,5.2093505859375,-86.0138931274414,-72.1369400024414,169.1983642578125,-5.366473197937012,0.6637281179428101,2.084850311279297,-18.193065643310547,-52.43452835083008,-113.49224853515624,-0.0944211483001709,-6.052603721618652,0.4190301895141601,31.54018783569336,43.37327194213867,32.55518341064453,-2.4822564125061035,8.182193756103516,-5.434880256652832,137.92433166503906,-77.72126770019531,117.24748229980467,10.679698944091797,0.6810554265975952,8.875480651855469
2384.395106315613,93.7183609008789,-84.41226959228516,-4.843757629394531,2.747389793395996,-11.602689743041992,9.947500228881836,-81.5475845336914,-69.62883758544922,166.49417114257812,-10.10715675354004,-3.4030208587646484,0.1000471115112304,-19.450801849365234,-61.618934631347656,-118.89009857177734,-1.8729488849639893,-4.747058868408203,7.013681411743164,25.22603988647461,40.22053909301758,14.175193786621094,-3.891054153442383,-3.2254772186279297,-3.0798959732055664,141.48336791992188,-79.16110229492188,114.50524139404295,3.5635766983032227,-1.518198013305664,2.437286376953125
2384.455766439438,106.94347381591795,-87.51557159423828,-22.332618713378903,11.959678649902344,-15.902042388916016,6.575855255126953,-79.35397338867188,-67.63572692871094,167.35354614257812,-12.47114372253418,5.591867446899414,-2.3779826164245605,-16.58287239074707,-72.11222076416016,-127.63932800292967,-4.617548942565918,-2.5322413444519043,15.874216079711914,32.09916687011719,36.84172821044922,5.045806884765625,-11.439998626708984,-30.71881484985352,-0.3455934524536133,148.73646545410156,-79.02243041992188,107.8632354736328,-3.699923515319824,-1.3893418312072754,1.0318565368652344
2384.485282421112,145.97714233398438,-86.65589904785156,-53.503814697265625,-7.308501243591309,-1.5343239307403564,3.640605926513672,-80.47722625732422,-66.90512084960938,178.41705322265625,-8.752120971679688,30.33824157714844,2.846323013305664,5.721075057983398,-79.74339294433594,-147.25698852539062,-3.4004030227661133,4.530057907104492,8.93794059753418,47.227447509765625,34.8759651184082,2.8189585208892822,-10.248008728027344,-14.577980041503906,1.8726682662963867,157.9844970703125,-77.97196960449219,101.15957641601562,-1.4797844886779783,-4.125664710998535,-1.5997610092163086
2384.5152859687805,170.75010681152344,-84.74431610107422,-74.4385757446289,-8.1988525390625,-2.084012508392334,-0.1184701919555664,-86.80311584472656,-65.982666015625,-161.69017028808594,-16.343334197998047,22.88360595703125,-6.935117721557617,41.96783828735352,-83.7322769165039,-169.61349487304688,-0.9760265350341796,-1.1511211395263672,-0.9847755432128906,59.14127731323242,32.2857666015625,3.907745599746704,-6.896930694580078,-11.284536361694336,-0.978053092956543,167.50181579589844,-75.37515258789062,97.1948471069336,-4.643977165222168,-0.6431379318237305,-7.117129325866699
2384.545282363892,-172.32106018066406,-82.73683166503906,-92.22608184814452,1.7286953926086426,0.9838764667510986,1.146925926208496,-104.19601440429688,-63.90499877929688,-136.1685333251953,-11.60262680053711,7.324728012084961,-15.364618301391602,66.01268768310547,-87.46232604980469,178.4824676513672,11.93351936340332,-6.28333854675293,-4.349606513977051,66.59489440917969,27.435510635375977,3.4133620262146,-5.889249801635742,-8.867660522460938,0.237396240234375,171.96780395507812,-72.06123352050781,99.53844451904295,-6.106293678283691,3.044132232666016,-9.031768798828123
2384.575822353363,-162.92965698242188,-80.6145248413086,-102.03489685058594,-1.5916380882263184,1.4348526000976562,0.515925407409668,-123.26800537109376,-59.887508392333984,-113.57356262207033,-3.686816692352295,1.1623897552490234,-17.640621185302734,30.504478454589844,-89.09778594970703,-142.68084716796875,1.8604581356048584,0.288694679737091,-2.400899887084961,73.78389739990234,18.91921043395996,1.3619046211242676,-4.2852983474731445,-4.053365707397461,-4.79720401763916,171.92527770996094,-69.26072692871094,102.8534698486328,4.344535827636719,-1.512232542037964,5.196721076965332
2384.605111122132,-158.7494354248047,-78.92854309082031,-107.6944580078125,-0.0467597991228103,1.7514615058898926,1.3921022415161133,-140.27301025390625,-54.90765380859375,-96.85601043701172,1.3788137435913086,-1.5348222255706787,-15.534748077392578,28.14585876464844,-87.29007720947266,-139.7083740234375,-5.065851211547852,-4.750665664672852,2.690720558166504,81.19966888427734,7.090921401977539,-1.344143271446228,3.5374255180358887,3.3861985206604004,0.09185791015625,169.67459106445312,-67.09902954101562,105.23920440673828,1.950448989868164,2.005322933197021,7.935628890991211
2384.635437965393,-155.60562133789062,-78.07319641113281,-112.15853118896484,-0.7438528537750244,1.4976184368133545,1.217458724975586,-153.53846740722656,-50.97365951538086,-85.36590576171875,3.130298137664795,-0.9285824298858644,-13.147743225097656,30.2728271484375,-84.78526306152344,-148.66015625,-8.574050903320312,-6.175843238830566,5.998208045959473,85.55780029296875,-7.452727794647217,-4.770363807678223,5.838262557983398,0.8741593360900879,-2.2443904876708984,166.72207641601562,-66.0978012084961,108.44646453857422,-6.464987754821777,3.8700203895568848,5.013006210327148
2384.665078163147,-150.73719787597656,-77.99594116210938,-118.23700714111328,-3.48404312133789,0.1886100471019745,0.3544607162475586,-164.4053192138672,-49.76087951660156,-76.734375,0.0356710627675056,0.1466949880123138,-7.339249610900879,8.663228034973145,-83.07845306396484,-137.12869262695312,-8.686504364013672,0.6550107002258301,2.729961395263672,89.89769744873047,-25.34664535522461,-7.993936538696289,14.439413070678713,-0.8601864576339722,2.398036003112793,165.4295196533203,-66.04135131835938,110.4275360107422,-3.058272361755371,2.854384422302246,0.5893535614013672
2384.695078372956,-147.79737854003906,-77.63494873046875,-123.33073425292967,0.7078309059143066,-1.964418172836304,-0.4875240325927734,-172.0665740966797,-52.861026763916016,-69.68914794921875,4.189107894897461,-8.300569534301758,-2.461743831634521,-14.16687297821045,-80.35612487792969,-120.17041778564452,-6.046900749206543,0.9186804294586182,-0.3666610717773437,90.0130386352539,-44.97895050048828,-9.006787300109863,14.546564102172852,-1.290203332901001,20.12246322631836,164.53480529785156,-66.63372039794922,112.35547637939452,-0.3090113401412964,2.91255521774292,-1.6115236282348633
2384.7551577091217,-150.97193908691406,-76.77086639404297,-122.10417938232422,4.6676130294799805,-3.2685980796813965,-1.470890998840332,-177.1476287841797,-59.95563888549805,-65.09112548828125,11.191099166870115,-9.675113677978516,2.778048515319824,-32.443363189697266,-76.02993774414062,-108.1888427734375,-3.453410148620605,0.7413134574890137,-3.9177966117858887,79.8016586303711,-59.74849319458008,-7.074814319610596,4.961986541748047,-2.0620150566101074,15.121885299682615,161.78585815429688,-67.7006607055664,114.47362518310548,0.7778126001358032,1.2329792976379397,-3.5311403274536133
2384.785690546036,-158.90293884277344,-75.10775756835938,-114.4423370361328,5.635612487792969,-2.92073917388916,-0.817112922668457,-170.80442810058594,-65.81083679199219,-70.51461029052734,-9.283180236816406,34.04627990722656,41.262603759765625,-43.53300476074219,-70.7056884765625,-103.86174774169922,-1.2528479099273682,2.599842071533203,-6.1712799072265625,80.74976348876953,-60.10365676879883,-16.608795166015625,9.738563537597656,-14.796998977661133,-4.70654296875,157.8267059326172,-68.66130065917969,116.56779479980467,-0.0065254606306552,-0.3191320300102234,-4.50492000579834
2384.815682888031,-169.00869750976562,-72.94978332519531,-103.21637725830078,0.8392369747161865,-1.7256124019622805,0.4769144058227539,-176.27899169921875,-64.19780731201172,-76.03710174560547,-3.4472289085388184,-7.040948867797852,-2.904782295227051,-49.28791427612305,-64.72509002685547,-104.35577392578124,0.6691827774047852,2.154205322265625,-8.046489715576172,96.36457061767578,-55.84800720214844,-21.75106811523437,1.4716248512268066,-5.546716690063477,0.4291629791259765,151.73196411132812,-69.99327087402344,120.5504913330078,-0.9340711832046508,-1.886479616165161,-4.318730354309082
2384.845790863037,179.82130432128906,-69.86797332763672,-87.8470458984375,0.0307573936879634,-0.9907999038696288,-1.894399642944336,175.6634063720703,-62.560340881347656,-78.39571380615234,2.8707728385925293,-8.778800964355469,7.10894775390625,-54.92924118041992,-58.04337310791016,-105.69052124023438,-0.0763604044914245,2.2254366874694824,-7.742443084716797,100.751953125,-53.84839630126953,-20.548545837402344,3.8964390754699703,-0.3180198073387146,1.9783306121826167,144.37034606933594,-71.41956329345703,126.28990173339844,-3.318025588989258,0.3499614000320434,-3.747617244720459
2384.8753361701965,174.4929656982422,-65.91353607177734,-74.75083923339844,-3.6821060180664062,3.994118213653565,-1.4708805084228516,179.1511688232422,-62.76517868041992,-77.42674255371094,-10.567136764526367,-7.26252269744873,8.05001449584961,-60.5406608581543,-51.2421875,-105.9755859375,-0.3414416313171386,6.986295700073242,-2.734353542327881,98.42739868164062,-53.25236892700195,-19.65366554260254,10.887895584106444,0.5819698572158813,2.93765926361084,139.38510131835938,-72.2047348022461,131.3701629638672,-5.980077743530273,1.858649015426636,-3.0437936782836914
2384.9054889678955,171.99252319335938,-61.110877990722656,-67.18121337890625,2.709784507751465,1.3854544162750244,0.4779853820800781,-176.17849731445312,-61.33294677734375,-74.98513793945312,-3.153870105743408,-7.719244003295898,16.689746856689453,-66.11976623535156,-43.94623565673828,-102.52922821044922,1.6301164627075195,16.156890869140625,2.8831005096435547,97.02713012695312,-49.476444244384766,-20.91668510437012,19.42203140258789,-4.87106990814209,6.922887802124023,135.151611328125,-72.84927368164062,137.32064819335938,1.6478660106658936,-0.1861590147018432,-1.6141834259033203
2384.9354889392853,171.09190368652344,-57.21189880371094,-64.34088897705078,-1.9292964935302732,0.928468942642212,1.0375776290893557,-167.28269958496094,-58.85764694213867,-73.28315734863281,-4.484781265258789,-13.61493682861328,18.594314575195312,-69.2093505859375,-34.376338958740234,-96.22417449951172,7.5574846267700195,22.199630737304688,29.258377075195312,100.38245391845705,-44.36156845092773,-21.06520271301269,16.645259857177734,-2.153286933898926,13.763320922851562,134.1604766845703,-72.69244384765625,140.35610961914062,2.535956382751465,-0.7151747941970825,6.287261962890625
2384.965042829513,171.93243408203125,-54.95124435424805,-62.6308479309082,-0.8944665193557739,1.451131820678711,2.7861223220825195,-163.98080444335938,-53.48763656616211,-71.32542419433594,-2.9268836975097656,-6.297738075256348,20.334400177001957,-65.05684661865234,-17.958383560180664,-89.53131866455078,2.20358943939209,9.80133819580078,32.04063415527344,101.72013854980467,-44.68769836425781,-17.92232894897461,10.992265701293944,3.9914393424987793,11.722009658813477,137.48794555664062,-72.64747619628906,138.14727783203125,-3.045335292816162,-0.3661115169525146,9.333023071289062
2384.995043039322,173.8091583251953,-54.74470520019531,-61.59634017944336,-0.4612159729003906,0.887976884841919,2.5086984634399414,-164.7478485107422,-50.02631378173828,-69.2042236328125,1.6596357822418213,5.784599304199219,14.22136688232422,-54.393653869628906,3.3526875972747803,-81.90716552734375,1.161224365234375,-11.61490249633789,29.137985229492188,106.7421646118164,-49.84668731689453,-13.876341819763184,0.3145108819007873,0.3832084536552429,13.041725158691406,144.5318603515625,-72.20115661621094,132.79495239257812,0.1468605101108551,-0.7953987121582031,8.741605758666992
2385.0550549030304,176.05967712402344,-56.01850128173828,-61.14629364013672,-3.5090346336364746,-0.5217485427856445,1.9523248672485352,-166.54840087890625,-49.22475814819336,-69.02515411376953,5.112587928771973,13.972026824951172,1.077035903930664,-32.05338668823242,24.43787956237793,-72.94963836669922,-0.1776342391967773,-24.497802734375,14.457304000854492,114.50244903564452,-57.32624435424805,-11.187731742858888,-9.7823486328125,2.7573399543762207,8.570474624633789,151.64602661132812,-70.29332733154297,127.17829132080078,-0.6884555816650391,0.4347923398017883,6.722162246704102
2385.0855832099915,179.23094177246094,-58.50152587890625,-62.41871643066406,-2.4915695190429688,0.0598192140460014,2.439281463623047,-164.3715362548828,-51.93558883666992,-73.39437866210938,7.525768280029297,9.002277374267578,-11.88606071472168,-4.189641952514648,41.47732925415039,-62.7431640625,3.3348779678344727,-22.648738861083984,-4.679437637329102,130.79295349121094,-66.69569396972656,-14.05505657196045,-20.35247039794922,2.6865968704223637,-3.9735050201416016,157.67144775390625,-68.8564224243164,124.0717544555664,-6.119241714477539,1.5362777709960938,8.717164993286133
2385.1155853271484,-176.67108154296875,-63.11421203613281,-63.83000183105469,-2.833798408508301,0.4194403886795044,3.256430625915528,-156.7723388671875,-58.1943588256836,-82.5827865600586,8.991033554077148,-2.1941399574279785,-20.894603729248047,20.562198638916016,52.276668548583984,-53.59721374511719,-1.2901837825775146,-9.089733123779297,-4.331379890441895,164.36251831054688,-75.55768585205078,-31.62133407592773,-18.117694854736328,-7.088981628417969,-5.717243194580078,162.64794921875,-68.69732666015625,123.10089874267578,-5.193486213684082,2.418180465698242,7.640399932861328
2385.145582675934,-172.27662658691406,-70.42963409423828,-63.1659049987793,-7.653359413146973,-4.298187255859375,6.837211608886719,-142.14642333984375,-67.09233093261719,-98.7739028930664,8.058347702026367,-10.229015350341797,-19.318748474121094,40.918907165527344,57.1789665222168,-47.3159065246582,-10.016828536987305,-5.195000648498535,-3.506178855895996,-142.17965698242188,-78.20814514160156,-75.0938720703125,-13.702075958251951,-8.829822540283203,-9.201574325561523,169.800537109375,-67.6201171875,122.3924560546875,-4.124970436096191,1.285844326019287,3.972259521484375
2385.1751284599304,-163.6044921875,-79.49910736083984,-68.8084716796875,4.105770111083984,-8.75967788696289,10.341079711914062,-101.9483642578125,-76.3900146484375,-138.7680206298828,2.8572726249694824,-6.03087043762207,-10.78976821899414,57.56609725952149,59.01327133178711,-44.78809356689453,-10.673738479614258,-0.9928221702575684,-5.425246238708496,-107.54524230957033,-73.585205078125,-103.47225952148438,-5.130056381225586,-7.137219429016113,-8.756166458129883,178.09083557128906,-66.18895721435547,120.36553192138672,-4.933258056640625,-2.3522682189941406,-4.199831962585449
