Timestamp,D4:22:CD:00:05:5D_EulerX,D4:22:CD:00:05:5D_EulerY,D4:22:CD:00:05:5D_EulerZ,D4:22:CD:00:05:5D_FreeAccX,D4:22:CD:00:05:5D_FreeAccY,D4:22:CD:00:05:5D_FreeAccZ,D4:22:CD:00:05:5E_EulerX,D4:22:CD:00:05:5E_EulerY,D4:22:CD:00:05:5E_EulerZ,D4:22:CD:00:05:5E_FreeAccX,D4:22:CD:00:05:5E_FreeAccY,D4:22:CD:00:05:5E_FreeAccZ,D4:22:CD:00:05:6B_EulerX,D4:22:CD:00:05:6B_EulerY,D4:22:CD:00:05:6B_EulerZ,D4:22:CD:00:05:6B_FreeAccX,D4:22:CD:00:05:6B_FreeAccY,D4:22:CD:00:05:6B_FreeAccZ,D4:22:CD:00:05:6E_EulerX,D4:22:CD:00:05:6E_EulerY,D4:22:CD:00:05:6E_EulerZ,D4:22:CD:00:05:6E_FreeAccX,D4:22:CD:00:05:6E_FreeAccY,D4:22:CD:00:05:6E_FreeAccZ,D4:22:CD:00:49:AA_EulerX,D4:22:CD:00:49:AA_EulerY,D4:22:CD:00:49:AA_EulerZ,D4:22:CD:00:49:AA_FreeAccX,D4:22:CD:00:49:AA_FreeAccY,D4:22:CD:00:49:AA_FreeAccZ
2374.2600977420807,177.88414001464844,-64.39752960205078,-119.9889907836914,5.372847557067871,-5.0181989669799805,2.01570987701416,-149.1582794189453,-31.724124908447266,-15.78870964050293,12.974332809448242,-12.716720581054688,3.6485185623168954,-52.49750900268555,-44.44541931152344,38.81077575683594,-9.333999633789062,-1.7710096836090088,1.7649908065795898,83.95143127441406,-35.710693359375,31.5737419128418,15.47834587097168,8.086950302124023,6.335176467895508,144.0429229736328,-71.72062683105469,133.7177276611328,-3.308413028717041,0.3591064214706421,1.4448213577270508
2374.2640976905823,178.1325225830078,-62.3240966796875,-119.71920013427734,2.865918636322021,0.6952204704284668,-0.2945938110351562,-142.05404663085938,-28.59889411926269,-15.905912399291992,12.610607147216797,-4.3069915771484375,5.5081892013549805,-56.66633605957031,-38.783111572265625,42.78232192993164,-13.848617553710938,-0.5137410163879395,7.765539169311523,81.74991607666016,-28.254697799682617,37.20026016235352,8.388811111450195,7.597116470336914,1.030055046081543,147.68975830078125,-70.51713562011719,134.2332763671875,-3.239468097686768,-3.468082904815674,3.433648109436035
2374.345112800598,-94.23956298828124,-71.90767669677734,165.8947296142578,1.500288486480713,1.9257497787475584,-0.8389320373535156,-31.3758544921875,-80.03093719482422,-131.70095825195312,-10.03587532043457,4.481249809265137,16.144779205322266,-85.8342056274414,-8.0607271194458,-58.414817810058594,-2.28397274017334,2.599640369415283,-3.276458263397217,-92.71116638183594,-83.12185668945312,-150.7923583984375,4.052618980407715,-3.191483497619629,7.891702651977539,114.78328704833984,-73.81159973144531,174.93556213378906,0.2062627673149109,-1.8429741859436035,-2.594393730163574
2374.375649690628,-109.18256378173828,-70.00508880615234,-174.1819610595703,-5.176607131958008,8.059513092041016,-1.2265119552612305,-101.07452392578124,-78.79157257080078,-61.4752082824707,-6.128255844116211,-1.6784381866455078,14.729736328125,-89.68879699707031,5.158658027648926,-60.47835540771485,4.715335845947266,1.1772799491882324,17.720935821533203,-17.24932861328125,-80.66710662841797,136.0409698486328,-7.168229103088379,-3.4335646629333496,8.163227081298828,118.60585021972656,-71.8724594116211,169.81687927246094,-2.050358295440674,-0.1307277977466583,-0.5678005218505859
2374.405652046204,-130.77865600585938,-69.54346466064453,-149.69895935058594,-5.026779174804688,4.2716875076293945,-1.1333122253417969,-145.94168090820312,-67.23199462890625,-15.127890586853027,4.701365470886231,-5.706400871276856,14.518199920654297,-78.23428344726562,16.12666130065918,-63.240272521972656,9.33366584777832,-2.244988918304444,15.150096893310549,39.31485366821289,-73.47891998291016,84.2883529663086,-3.663839817047119,4.09334659576416,8.20327377319336,119.49768829345705,-72.13206481933594,169.02293395996094,-0.2644520401954651,-1.6602685451507568,5.201899528503418
2374.435663700104,-147.19915771484375,-67.55550384521484,-132.15396118164062,-4.822296142578125,4.485466957092285,-0.12890625,-160.57337951660156,-62.03394317626953,0.3985385000705719,8.312917709350586,-4.927051544189453,10.646003723144531,-71.70097351074219,29.765674591064453,-58.07597351074219,8.640535354614258,-1.784501552581787,13.058866500854492,59.814754486083984,-66.20523071289062,73.67852020263672,-4.418607711791992,5.148633003234863,9.778358459472656,122.01432037353516,-71.80451965332031,165.83941650390625,1.390343427658081,-0.8889662027359009,7.999509811401367
2374.465184688568,-156.5668182373047,-65.12250518798828,-122.90642547607422,-1.2625997066497805,3.8710451126098633,1.3029756546020508,-167.54295349121094,-61.387577056884766,7.732008934020996,5.631572723388672,-0.6472573280334473,8.239303588867188,-54.11006546020508,41.252323150634766,-44.66886520385742,17.051952362060547,-17.546550750732422,13.960363388061523,70.76287078857422,-60.44302368164063,73.68118286132812,-5.565597534179688,-0.2145214676856994,8.527524948120117,127.80636596679688,-70.2796630859375,159.75564575195312,-1.7137064933776855,-1.833259105682373,9.211416244506836
2374.4951922893524,-161.07118225097656,-63.63126754760742,-118.7951202392578,-1.2238681316375732,2.909099102020264,1.028761863708496,-170.33401489257812,-63.536468505859375,10.33518409729004,1.7910778522491455,2.6174845695495605,2.9092111587524414,-24.583240509033203,44.37241363525391,-27.40060234069824,8.514226913452148,-18.952098846435547,10.703670501708984,73.7111587524414,-55.90719604492188,78.10921478271484,-3.06879997253418,-0.8513916730880737,3.5153160095214844,131.88014221191406,-70.42501068115234,155.9713592529297,-2.893764019012451,-0.9950121641159058,6.473384857177734
2374.525191783905,-162.2566375732422,-63.34368896484375,-117.7178726196289,-1.7850215435028076,2.797482490539551,1.425999641418457,-169.7881317138672,-69.0683822631836,8.895208358764648,-0.584802508354187,1.4322786331176758,-2.3157825469970703,0.9308132529258728,43.55426788330078,-12.132817268371582,6.554414749145508,-18.399120330810547,8.524951934814453,73.53560638427734,-54.17070388793945,86.44815826416016,-0.8447089195251465,-2.3468785285949707,-4.213878631591797,138.24053955078125,-71.7390365600586,151.22647094726562,-5.607004165649414,0.059756189584732,9.288152694702148
2374.5856885910034,-160.7018280029297,-64.53770446777344,-119.07362365722656,-1.965282917022705,3.935253143310547,3.207672119140625,-165.95962524414062,-77.6651611328125,1.7872930765151978,-1.8568384647369385,1.9114394187927248,-3.872698783874512,20.35009384155273,42.22579574584961,-2.309368371963501,3.607330799102783,-11.78498649597168,1.7951793670654297,73.3544692993164,-55.710052490234375,97.73562622070312,-2.001349925994873,-8.442070007324219,-6.7650146484375,148.42434692382812,-74.35030364990234,144.22647094726562,-2.554507255554199,-0.4181641340255737,8.027030944824219
2374.6156957149506,-158.15345764160156,-68.51351165771484,-121.25553131103516,-6.13127326965332,3.976286888122559,4.8839263916015625,-106.75972747802734,-86.60177612304688,-61.61149597167969,-3.519737720489502,1.652770757675171,-4.478458404541016,27.79298973083496,40.12046813964844,3.117825508117676,1.4004292488098145,-5.557785987854004,-0.7811203002929688,71.60245513916016,-59.185394287109375,109.32228088378906,0.5929920673370361,-13.130760192871094,-6.814925193786621,164.58421325683594,-76.72615051269531,132.53675842285156,-2.005858421325684,0.0894789397716522,2.952840805053711
2374.6457028388977,-156.12326049804688,-74.48751068115234,-120.71647644042967,-3.099806308746338,-5.15696907043457,9.047073364257812,-21.88405418395996,-78.33358764648438,-150.1110076904297,-2.6764607429504395,2.423496723175049,-5.877102851867676,22.470855712890625,36.79827117919922,2.753288984298706,0.589659571647644,-3.495450019836426,-1.6921663284301758,66.65325927734375,-62.09583282470703,119.73548889160156,3.105782985687256,-9.174636840820312,-7.344948768615723,-172.60794067382812,-76.75782775878906,116.01028442382812,-5.838024139404297,-1.9914500713348389,-3.142889499664306
2374.675222873688,-153.2335205078125,-81.36542510986328,-126.52794647216795,-1.4606127738952637,-1.661463975906372,-0.4796438217163086,-14.317172050476074,-67.27405548095703,-161.12135314941406,-3.6663460731506343,-1.4432713985443115,-11.817449569702148,19.200578689575195,37.62194442749024,-7.841176986694336,-1.2122066020965576,-4.603128433227539,-5.782739639282227,62.57044982910156,-63.24191665649414,129.0082550048828,4.974522590637207,-1.369462490081787,-6.778034210205078,-153.63876342773438,-73.97888946533203,104.00871276855467,-1.5055811405181885,0.6333596706390381,-6.974457740783691
2374.7052233219147,-174.06289672851562,-83.79129791259766,-103.6181640625,4.982940673828125,1.8649826049804688,-8.101892471313477,-11.732419967651367,-56.96922302246094,-168.79795837402344,-7.093455314636231,-1.8960261344909668,-6.205028533935547,17.35863494873047,42.74190521240234,-26.14672088623047,-2.28768253326416,1.4265072345733645,-12.242660522460938,61.92194366455078,-61.57069396972656,138.0095977783203,5.330164909362793,-0.3402644395828247,-5.729135513305664,-144.63490295410156,-71.809326171875,99.61238098144533,4.043591499328613,2.157714366912842,-9.05826187133789
2374.736236810684,160.0780487060547,-82.8634262084961,-71.6229476928711,4.928300857543945,-2.968536376953125,-3.420687675476074,-12.104766845703123,-47.22129821777344,-174.93972778320312,-17.947509765625,-4.446945190429688,-3.5704731941223145,6.575057029724121,46.84730911254883,-48.79290771484375,-1.7000200748443604,3.635519981384277,-18.10034942626953,62.32957458496094,-57.44829940795898,144.8727569580078,3.489969253540039,-2.957068920135498,-5.542244911193848,-138.96066284179688,-71.94872283935547,97.17292785644533,5.040250778198242,0.7385742664337158,-11.037679672241213
2374.765761613846,151.8595428466797,-83.93550872802734,-58.11497116088867,8.32736587524414,2.77337646484375,-9.15202522277832,-13.828789710998535,-41.37670135498047,-177.73390197753906,-17.611820220947266,-2.75683069229126,-24.88973999023437,-6.722729206085205,48.72923278808594,-76.34049224853516,-1.9079742431640625,-10.595285415649414,-19.060096740722656,61.6751594543457,-52.16417694091797,149.0516815185547,3.182229995727539,-1.047168493270874,-5.4114274978637695,-136.66561889648438,-73.4692153930664,97.25048065185548,3.051846981048584,2.0719475746154785,-9.416536331176758
2374.795756816864,155.67620849609375,-84.28141784667969,-62.52845001220703,-9.179794311523438,15.327678680419922,-7.408700942993164,-11.44750690460205,-41.979618072509766,-176.22634887695312,-13.96839714050293,1.8368229866027832,-22.766929626464844,-19.308195114135746,47.49051284790039,-107.5073471069336,-15.035022735595703,-11.849187850952148,-29.227977752685547,61.24473571777344,-47.16361999511719,152.734619140625,1.5612163543701172,0.5018144845962524,-5.725754737854004,-138.9625244140625,-75.39525604248047,98.9883041381836,2.1080751419067383,1.7598755359649658,-5.732662200927734
2374.825751781464,156.52548217773438,-82.1541519165039,-66.12326049804688,-1.4079022407531738,-0.0534409433603286,-5.844809532165527,-14.282496452331545,-48.64948272705078,-171.2715301513672,-15.614065170288086,-8.979410171508789,-16.38028335571289,-26.3631534576416,44.664737701416016,-124.3974151611328,-8.730241775512695,12.98285675048828,-18.42596435546875,61.319580078125,-43.49090576171875,156.510986328125,2.151461601257324,-2.1407456398010254,-3.212729454040528,-139.29226684570312,-77.3947525024414,97.51447296142578,-0.0064318086951971,-0.6270688772201538,-4.45435905456543
2374.8857691287994,157.3107147216797,-79.50694274902344,-64.4014892578125,-3.974518775939941,-2.7495598793029785,1.1086530685424805,-27.74705696105957,-58.376461029052734,-162.2132568359375,-11.00436019897461,-17.378395080566406,11.195663452148438,-36.22235107421875,46.96149063110352,-117.08409118652344,-12.18174934387207,3.552804470062256,-0.0488672256469726,60.48707580566406,-42.12981414794922,159.19931030273438,3.974978923797608,-4.235889434814453,-1.4956703186035156,-141.6861114501953,-77.81449890136719,99.2654037475586,-4.479608535766602,-2.030209541320801,-2.72077751159668
2374.9159078598022,154.02859497070312,-77.36235809326172,-59.42529678344727,0.6163362264633179,-2.6344237327575684,1.6617412567138672,-28.255115509033203,-63.71141815185547,-157.02516174316406,11.59848976135254,-13.132137298583984,11.606000900268556,-27.41987609863281,47.96092987060547,-104.7477569580078,-17.263561248779297,4.303606033325195,-5.861035346984863,58.56003952026367,-43.18050765991211,159.19473266601562,4.312047958374023,-5.191158294677734,-0.2784433364868164,-146.97238159179688,-77.78675079345703,102.4674072265625,-0.5015751123428345,0.2371628880500793,5.720067024230957
2374.945918083191,149.53524780273438,-76.20162963867188,-51.747257232666016,0.7641369104385376,1.2327218055725098,6.88372802734375,-30.8330135345459,-67.35760498046875,-154.03884887695312,-11.439275741577148,-2.096808910369873,17.164291381835938,-5.6995930671691895,42.36635971069336,-89.7331314086914,-0.7736374139785767,-1.291095495223999,-14.048133850097656,54.651634216308594,-46.00342178344727,154.739501953125,3.700425624847412,-8.05246353149414,4.647449493408203,-148.1513671875,-79.82424926757812,100.78919219970705,-2.128213405609131,0.3317689895629883,4.603421211242676
2374.975445985794,139.1392364501953,-75.83364868164062,-41.36869812011719,0.6772267818450928,-0.6494215726852417,3.880131721496582,-40.53171920776367,-70.19298553466797,-149.5629425048828,-8.57476806640625,5.302002906799316,-4.132434844970703,2.246232509613037,29.911577224731445,-73.62385559082031,-6.927857398986816,-5.215723037719727,-17.70412826538086,50.60578155517578,-49.39269256591797,146.36305236816406,0.4296934008598327,0.2762438654899597,3.400106430053711,-153.2864532470703,-81.03998565673828,103.40901947021484,-0.3524097204208374,-1.8286783695220947,2.7911624908447266
2375.005444765091,127.94044494628906,-74.16473388671875,-34.04721450805664,0.8992612361907959,-2.8378243446350098,0.3510017395019531,-39.4472541809082,-71.93495178222656,-151.5841522216797,-6.198132514953613,1.4276769161224363,7.680204391479492,6.4552388191223145,12.786263465881348,-62.31447982788086,-7.250058174133301,-8.819623947143555,-8.505420684814453,50.68048095703125,-53.17859649658203,136.9940948486328,0.06682650744915,-2.339057445526123,4.8522796630859375,-161.12997436523438,-80.956298828125,107.33245849609376,5.164742469787598,-2.359903335571289,3.569809913635254
2375.0354454517365,117.65513610839844,-71.61595153808594,-30.33397674560547,3.5545616149902344,-2.554828643798828,5.192543983459473,-33.9210205078125,-73.92680358886719,-157.404296875,-5.787812232971191,4.004549980163574,0.0464887619018554,6.96991491317749,-5.17775297164917,-53.01807022094727,-2.39143705368042,2.7306575775146484,-7.822785377502441,52.100547790527344,-56.04557418823242,127.9220962524414,4.517395973205566,-5.2918548583984375,6.281833648681641,-165.11375427246094,-80.66622161865234,106.7287826538086,3.148977756500244,0.4193476438522339,6.223556518554688
2375.065997362137,106.25296020507812,-70.28406524658203,-27.202993392944336,4.390045166015625,1.1439216136932373,3.455325126647949,-20.21278381347656,-74.81101989746094,-170.6927490234375,-6.867087364196777,-0.5016156435012817,-0.9715194702148438,-3.3600451946258545,-23.96132469177246,-40.55349349975586,-2.293132305145264,-4.365444183349609,-4.405120849609375,54.21068572998047,-56.59627151489258,123.64944458007812,-1.9873313903808596,-3.898237705230713,0.5358552932739258,-164.40431213378906,-81.68025207519531,102.43889617919922,0.9165537357330322,0.4272952675819397,1.4108572006225586
2375.0951030254364,89.81494140625,-71.61660766601562,-24.04882049560547,5.425867080688477,8.800588607788086,-1.8992042541503904,-8.072003364562988,-73.6845474243164,178.0862274169922,-6.878275871276856,-3.6072611808776855,-1.5356330871582031,-16.356082916259766,-39.22370147705078,-21.94198226928711,0.2259089946746826,-6.952584266662598,7.624027252197266,56.47919845581055,-56.16427230834961,123.76512908935548,-8.431114196777344,-3.613434791564941,-0.5034198760986328,-160.3585968017578,-81.00474548339844,95.37785339355467,7.509106636047363,3.3396782875061035,1.5006475448608398
2375.125102519989,94.27542114257812,-71.81553649902344,-37.64479446411133,14.65789794921875,16.91787338256836,2.120290756225586,-3.699930906295776,-72.563232421875,172.89108276367188,-5.771520614624023,-2.699007034301758,-1.479994773864746,-20.80131149291992,-44.49578857421875,-0.2564809918403625,2.8692407608032227,-2.4043684005737305,20.69723892211914,57.697601318359375,-55.421016693115234,125.96038055419922,-7.060894012451172,-3.8112425804138175,-0.9650716781616212,-159.23019409179688,-80.73770904541016,90.6943817138672,8.224573135375977,0.715125322341919,2.4189977645874023
2375.185651779175,115.69810485839844,-67.82405090332031,-65.39954376220703,17.229141235351562,13.451263427734377,8.97566032409668,-2.685957193374634,-72.014404296875,170.01698303222656,-3.060716152191162,-0.3071060180664062,1.6148796081542969,-16.480392456054688,-39.34104919433594,11.427650451660156,-0.7432374954223633,26.57138061523437,0.9799528121948242,58.4229736328125,-53.98153305053711,129.87649536132812,-3.6731791496276855,-4.916362762451172,1.6093225479125977,-159.1805877685547,-80.79850006103516,87.34480285644531,0.8685793876647949,-0.035800963640213,0.6781702041625977
2375.215655565262,131.2442169189453,-58.64482498168945,-87.59580993652344,8.516275405883789,2.2738966941833496,6.36341667175293,4.99350118637085,-69.7489013671875,164.8470001220703,-1.6982688903808594,-0.6588706970214844,0.0727443695068359,-22.23573875427246,-32.31882095336914,11.748492240905762,-5.045863151550293,5.699372291564941,-2.398005485534668,57.67846298217773,-51.39695739746094,134.67507934570312,-2.693568229675293,-3.4712629318237305,-2.1410632133483887,-158.5967254638672,-80.84650421142578,84.47115325927734,-0.7415910959243774,1.225294589996338,-1.771484375
2375.245667695999,139.53384399414062,-47.456764221191406,-100.59088134765624,-0.0347678884863853,-3.481959342956543,-1.7476921081542969,9.167475700378418,-69.6882553100586,164.58836364746094,-3.173065185546875,-3.779606819152832,-3.179250240325928,-28.598424911499023,-29.250537872314453,9.237847328186035,-3.3650197982788086,-3.157639503479004,-2.7691478729248047,57.53794479370117,-48.597267150878906,138.6690216064453,-0.920507311820984,-2.270787715911865,-5.183649063110352,-160.91024780273438,-80.77024841308594,85.86289978027344,1.9186763763427732,1.784440994262695,-2.644834518432617
2375.275205373764,147.86688232421875,-36.7716064453125,-108.49049377441406,-3.991400718688965,-4.338743209838867,-11.41526222229004,4.212034225463867,-72.90438079833984,169.74635314941406,-3.4438586235046387,-2.289682388305664,-3.099092960357666,-35.304443359375,-32.66085433959961,7.813495635986328,0.0791456699371337,1.981841325759888,-9.072525024414062,57.79206085205078,-45.9361457824707,142.9139862060547,0.3016996383666992,-0.3841745853424072,-5.635274887084961,-163.94332885742188,-80.66331481933594,88.50621032714844,1.0798602104187012,0.4525995254516601,-3.306802272796631
2375.305279493332,156.65672302246094,-28.779436111450195,-113.5316390991211,-1.843836069107056,-1.471771001815796,-13.017627716064451,-7.690403938293457,-76.84742736816406,179.94305419921875,-4.690159797668457,0.0502189025282859,-7.892999649047852,-49.67497253417969,-43.85739135742188,8.154232025146484,8.032516479492188,-1.7770090103149414,-4.757590293884277,58.19464492797852,-43.37900161743164,147.7663116455078,-0.3632825016975403,-0.2335285246372223,-5.9942474365234375,-163.49301147460938,-80.50131225585938,88.82404327392578,-1.628225326538086,-1.220574140548706,-6.090592384338379
2375.335349559784,162.6727752685547,-25.414854049682617,-118.04212951660156,-10.647335052490234,-1.9687297344207764,-11.829566955566406,-30.808074951171875,-80.73303985595703,-161.51455688476562,-7.598891258239746,-1.6955864429473877,-9.578304290771484,-65.88800048828125,-59.73979187011719,11.732186317443848,3.481675148010254,-2.9645352363586426,17.79639434814453,59.987884521484375,-40.47994613647461,153.18470764160156,-2.344186782836914,2.5821404457092285,-7.69502067565918,-162.07699584960938,-80.13402557373047,89.36251831054688,0.6668063402175903,-0.2579710483551025,-7.384031295776367
2375.3649673461914,162.37258911132812,-26.49345588684082,-119.75548553466795,-13.497692108154297,-8.380695343017578,-17.69304656982422,-70.05660247802734,-82.8036117553711,-124.13287353515624,-2.97479248046875,-11.214618682861328,5.144060134887695,-52.02606201171875,-76.14252471923828,1.574974775314331,-5.642756462097168,9.148885726928713,25.658565521240234,70.74494171142578,-36.966285705566406,157.54779052734375,-1.934224367141724,-2.3776211738586426,-8.526107788085938,-161.70013427734375,-79.59669494628906,89.54539489746094,5.3325910568237305,3.173577308654785,-5.757890701293945
2375.3959760665894,167.59542846679688,-30.661954879760746,-118.0841064453125,-8.72988510131836,-6.679605484008789,-3.0066843032836914,-105.70980834960938,-81.52354431152344,-89.79236602783203,-6.412574768066406,0.5344350337982178,-0.443603515625,3.0019893646240234,-81.34413146972656,-45.70651626586914,8.741165161132812,3.404948234558105,4.601077079772949,86.17048645019531,-32.643043518066406,159.72744750976562,5.7233171463012695,-13.13447380065918,6.42864990234375,-161.75689697265625,-80.71697998046875,87.52196502685547,3.157017230987549,3.274296283721924,-3.243816375732422
2375.4259679317474,168.68521118164062,-28.869081497192383,-114.47830200195312,-16.383914947509766,-16.06832504272461,13.949472427368164,-121.65155792236328,-80.46717071533203,-74.78446960449219,-6.370661735534668,0.0429422035813331,1.188617706298828,-8.849037170410156,-78.91958618164062,-35.4588737487793,-4.664015769958496,-0.8534026145935059,10.244985580444336,95.20720672607422,-25.945470809936523,160.819091796875,18.138504028320312,-9.522319793701172,18.228538513183597,-160.19561767578125,-80.89114379882812,84.24308013916016,-4.360001564025879,-3.508516311645508,0.1590070724487304
2375.4850676059723,176.48416137695312,-25.79654693603516,-110.48638153076172,-22.007369995117188,-7.075676918029785,17.346240997314453,-126.416748046875,-80.29637145996094,-70.66905975341797,-7.322165489196777,-1.321608304977417,0.1161470413208007,-27.318479537963867,-70.67401885986328,-17.845849990844727,6.997620582580566,0.0556693077087402,10.288002014160156,99.5505142211914,-15.388344764709473,162.06491088867188,18.78615951538086,3.514784336090088,25.53543472290039,-159.05645751953125,-80.10623931884766,82.2571029663086,2.202235698699951,-1.1898858547210691,11.957717895507812
2375.5150661468506,172.85824584960938,-20.547807693481445,-108.37715911865234,-3.4455299377441406,-18.391658782958984,9.38412094116211,-120.01206970214844,-81.19207763671875,-77.99537658691406,-7.925057411193848,-0.4096594452857971,0.1215763092041015,-37.69633865356445,-60.35608673095703,-11.538556098937988,10.196897506713867,-3.869483947753906,9.92251205444336,95.56537628173828,0.5819729566574097,162.75567626953125,8.753738403320312,10.18056869506836,30.908218383789062,-160.20260620117188,-79.31629180908203,82.32221984863281,6.71627140045166,2.633927822113037,6.497806549072266
2375.5451650619507,167.16497802734375,-15.418523788452148,-108.66297912597656,-8.744913101196289,-13.323833465576172,8.547248840332031,-97.10093688964844,-82.63175201416016,-102.52336120605467,-7.738802909851074,-0.0104050859808921,0.9690399169921876,-42.91346740722656,-51.22148132324219,-10.747406005859377,6.718323707580566,-6.08867073059082,4.9254560470581055,81.62004089355469,17.9232177734375,162.06712341308594,-6.682191848754883,4.669327735900879,15.561752319335938,-162.60394287109375,-78.89260864257812,83.12973022460938,2.1765332221984863,1.9591970443725584,9.948915481567385
2375.575704574585,164.63739013671875,-12.371665000915527,-110.45207977294922,-6.197004318237305,-6.517115592956543,0.5584535598754883,-48.92070388793945,-81.2771987915039,-153.0167236328125,-8.272361755371094,-1.2058062553405762,5.45621395111084,-45.24980545043945,-45.37768173217773,-12.694018363952637,3.4561753273010254,-5.653697967529297,1.8449745178222656,68.93616485595703,31.13920783996582,159.65786743164062,-5.9576568603515625,-2.654549121856689,4.619626045227051,-170.5295867919922,-78.07583618164062,89.09850311279297,3.048177719116211,3.375504970550537,10.292997360229492
2375.605706214905,165.334716796875,-13.228328704833984,-112.89887237548828,-5.818705558776856,-1.1927170753479004,-4.890227317810059,-18.09996032714844,-72.46788787841797,175.87759399414062,-8.432327270507812,5.268509864807129,2.863866806030273,-47.3868293762207,-43.5127067565918,-16.85649871826172,1.007354497909546,-4.80716609954834,0.2866239547729492,63.80492401123047,38.28566360473633,156.78875732421875,3.439627170562744,-6.192811965942383,-3.93381929397583,-177.19146728515625,-77.061767578125,94.51449584960938,3.50295352935791,3.496610641479492,7.224742889404297
2375.6357057094574,166.8362579345703,-18.46831321716309,-114.89215850830078,-8.211626052856445,0.7653955221176147,-11.449129104614258,-13.00832748413086,-69.19459533691406,170.8659210205078,-9.295412063598633,1.3677146434783936,-7.158907890319824,-51.09347152709961,-45.250736236572266,-21.96053123474121,-3.7916202545166016,-3.1977691650390625,0.5619993209838867,69.3251724243164,41.07758712768555,156.42823791503906,-0.103420004248619,-1.5753426551818848,-5.724671363830566,176.52743530273438,-76.08346557617188,99.90583038330078,1.7081403732299805,1.495302677154541,3.238968849182129
2375.665241718292,166.00494384765625,-28.570362091064453,-115.89401245117188,-8.708612442016602,-1.837587594985962,-17.106403350830078,-15.931720733642578,-70.3594741821289,173.54371643066406,-10.1080322265625,1.489553451538086,-12.60569190979004,-54.76285171508789,-49.54658126831055,-27.38241577148437,-5.369789123535156,0.3019700050354004,-1.593130111694336,74.33052825927734,42.434608459472656,160.98512268066406,-6.093059539794922,-2.348984241485596,-5.757602691650391,171.40631103515625,-75.22484588623047,104.27989196777344,0.6691684722900391,0.5899546146392822,-4.977210998535156
2375.695336341858,163.19456481933594,-42.96769332885742,-115.9933853149414,-8.055070877075195,-3.637026309967041,-12.297574996948242,-22.098567962646484,-72.43275451660156,-179.1686248779297,0.5116488933563232,-1.5318670272827148,-8.25418472290039,-58.81842803955078,-53.93856048583984,-32.446292877197266,-7.640773773193359,2.8501791954040527,-4.788016319274902,71.06555938720703,41.38068771362305,170.38775634765625,-5.290822982788086,-9.807085037231444,-8.669307708740234,168.64605712890625,-73.78264617919922,106.53463745117188,-0.1923801600933075,0.626373291015625,-11.312948226928713
2375.7253935337067,160.49917602539062,-60.67671203613281,-115.91527557373048,-3.846419334411621,-5.817144393920898,-1.1003990173339844,-26.640804290771484,-72.88011932373047,-176.47396850585938,10.345220565795898,-8.920022964477539,-3.037437915802002,-61.328609466552734,-57.14357376098633,-35.4737434387207,-8.020458221435547,3.7105650901794434,-8.316368103027344,65.65352630615234,37.4073371887207,-176.28785705566406,-8.920040130615234,-4.454277038574219,-13.621051788330078,170.4950408935547,-72.87980651855469,105.17276763916016,-3.34231185913086,-1.3242220878601074,-8.996017456054688
2375.7849979400635,165.4944305419922,-80.8316650390625,-121.4189224243164,-0.7641487121582031,-2.296724319458008,19.494319915771484,-31.07279586791992,-73.82208251953125,-174.46131896972656,-2.485898494720459,-4.490961074829102,0.1752080917358398,-64.89794158935547,-59.013702392578125,-34.60138702392578,-5.066519737243652,5.599857330322266,-9.014690399169922,63.61256408691406,33.13450241088867,-160.6900634765625,-28.48687744140625,-21.000900268554688,-9.849735260009766,173.55789184570312,-74.11180114746094,102.77359771728516,0.4558289051055908,1.450169801712036,-8.977838516235352
2375.815990924835,-25.32359313964844,-79.75420379638672,69.87548065185547,8.35246467590332,16.829307556152344,16.544822692871094,-46.760963439941406,-76.19944763183594,-162.42127990722656,-2.456630229949951,-3.724863529205322,-2.582283973693848,-68.27494049072266,-59.778846740722656,-31.309410095214844,-4.117257118225098,4.630809783935547,-9.320751190185549,69.29609680175781,34.999855041503906,-150.36497497558594,6.330018043518066,-2.7061357498168945,-30.83029556274414,174.1596221923828,-75.93314361572266,101.55319213867188,2.703420639038086,1.1625654697418213,-12.26314926147461
2375.846005678177,-15.676076889038086,-70.74790954589844,59.32175827026367,5.998656272888184,24.10281753540039,-35.20191192626953,-62.05734252929688,-76.83322143554688,-149.90945434570312,-8.502330780029297,-3.595473289489746,1.798295974731445,-71.09968566894531,-59.94242477416992,-28.878231048583984,4.239899635314941,6.554835319519043,-11.190610885620115,87.34720611572266,43.04441452026367,-151.22894287109375,6.159729957580566,-2.198518753051758,-9.131668090820312,173.7839813232422,-75.16130065917969,100.69074249267578,2.0564818382263184,-6.090083122253418,-7.743926048278809
2375.87553191185,-13.225995063781738,-71.31867218017578,52.96445846557617,15.382802963256836,-1.2378511428833008,-2.105717182159424,-60.87023162841797,-76.17074584960938,-150.16627502441406,-5.503809928894043,-2.352358341217041,6.035402297973633,-66.68153381347656,-60.43326187133789,-31.65241432189941,-1.678077220916748,5.563290596008301,-5.849905014038086,102.5522689819336,54.46144104003906,-159.12872314453125,-3.6140947341918954,-9.740001678466797,-3.1063990592956543,177.37486267089844,-72.25856018066406,96.7781753540039,1.932649850845337,-1.2129106521606443,6.718477249145508
2375.905616521836,6.569284915924072,-75.95178985595703,39.06829452514648,8.500740051269531,14.92156982421875,-1.954143047332764,-57.893436431884766,-74.60040283203125,-152.32899475097656,-6.150620460510254,-2.244448661804199,2.915469169616699,-62.106876373291016,-62.03097152709961,-35.034061431884766,1.770052433013916,2.3188624382019043,-5.909679412841797,107.64002227783205,63.873477935791016,-177.9277801513672,2.09302282333374,-2.7346811294555664,-15.341009140014648,-178.1512908935547,-72.88874053955078,93.37361145019533,2.303205966949463,3.3196558952331543,6.384195327758789
2375.9356145858765,48.320430755615234,-80.90681457519531,5.177140712738037,14.831342697143556,2.668785095214844,1.3416948318481443,-55.25757598876953,-72.17797088623047,-152.8770751953125,-5.257171630859375,-3.2708311080932617,2.9355287551879883,-62.02659606933594,-65.3148422241211,-36.864349365234375,-4.095099449157715,3.100293636322021,4.054873466491699,88.35875701904297,66.4925765991211,151.72804260253906,-7.0455427169799805,-8.362447738647461,-10.603134155273438,-171.98622131347656,-71.84056854248047,88.93014526367188,5.452526092529297,2.48671817779541,4.17451286315918
2375.9652769565582,97.25205993652344,-80.31414031982422,-36.38871383666992,0.3721758723258972,-2.5251269340515137,3.764168739318848,-50.75536346435547,-69.2738037109375,-153.1492156982422,-1.900041103363037,-5.815864562988281,2.342171669006348,-55.68921661376953,-71.25770568847656,-39.47016143798828,-0.5322827100753784,0.6417039632797241,8.975929260253906,68.6432113647461,59.96646118164063,125.50292205810548,-2.195814609527588,-7.63698673248291,-9.51544189453125,-167.51889038085938,-71.13219451904297,86.11558532714844,4.889225006103516,-0.0326310992240905,6.090240478515625
2375.9952721595764,115.36629486083984,-79.97312927246094,-55.812644958496094,9.704259872436523,-13.331989288330078,-0.67767333984375,-47.97343063354492,-66.68074798583984,-148.73387145996094,-7.270845413208008,-4.747754096984863,0.9636030197143556,-53.160640716552734,-77.60547637939453,-38.40374374389648,-0.9449131488800048,0.5167094469070435,12.80430030822754,60.7756233215332,48.36875534057617,110.9394302368164,-0.1843843758106231,-6.393892288208008,-10.062677383422852,-166.1071014404297,-70.98981475830078,86.9920883178711,1.503929853439331,-0.7490084171295166,1.707601547241211
2376.025272846222,133.26602172851562,-80.56291198730469,-71.92684936523438,-1.5936901569366455,-0.6871603727340698,2.039071083068848,-46.916290283203125,-66.5279769897461,-139.00131225585938,-31.78285217285156,-9.075674057006836,-11.440877914428713,-62.01472473144531,-80.73015594482422,-24.871543884277344,-3.992009162902832,1.9402310848236084,11.592805862426758,61.62508773803711,33.92320251464844,102.28951263427734,2.326913356781006,-0.7010986804962158,-12.656320571899414,-165.44357299804688,-70.30542755126953,88.830322265625,-0.8225867748260498,-0.6220974922180176,-1.8459868431091309
2376.0858237743378,145.20388793945312,-78.44203186035156,-77.66370391845703,-1.4409594535827637,-5.792667388916016,0.5805349349975586,-61.30928039550781,-69.50717163085938,-118.85740661621094,-20.704307556152344,-10.426309585571287,-7.095418930053711,-70.16679382324219,-79.43464660644531,-10.985130310058594,1.9485504627227783,-1.0956971645355225,2.8194713592529297,63.42650985717773,19.851158142089844,94.36925506591795,-1.1478033065795898,11.451641082763672,4.191826820373535,-165.00746154785156,-68.87942504882812,92.29332733154295,-3.1660938262939453,-2.5329575538635254,-2.090927600860596
2376.11482167244,158.4738311767578,-76.89025115966797,-85.55997467041016,-5.520071983337402,3.08664608001709,1.7562713623046875,-82.94572448730469,-71.96221923828125,-91.60802459716795,-8.822872161865234,-7.72650146484375,-9.470470428466797,-76.33951568603516,-76.22492980957031,-3.5633225440979004,-0.1739723086357116,-1.9806389808654783,-0.4937200546264648,66.53852081298828,9.003684043884277,88.90811920166016,22.98025894165039,4.01207447052002,-5.983353614807129,-166.52426147460938,-68.13310241699219,97.94538879394533,-4.038396835327148,4.61449146270752,-1.9335665702819824
2376.14484167099,168.2048797607422,-76.2780532836914,-97.3611831665039,-2.9798784255981445,2.356574535369873,1.3741655349731443,-107.94745635986328,-71.85462951660156,-62.43465042114258,-2.823822498321533,-3.6095471382141113,-10.131202697753906,-78.49024200439453,-73.47090148925781,-1.607014536857605,-2.683659076690674,-2.6648011207580566,-1.222559928894043,83.30305480957031,-0.2703535556793213,88.1431655883789,-5.414538383483887,1.2050044536590576,3.712709426879883,-168.99185180664062,-67.57626342773438,101.44713592529295,1.7306206226348877,2.1286401748657227,2.268396377563477
2376.1753780841827,175.43389892578125,-75.56539916992188,-106.55333709716795,3.453169822692871,-0.3157152533531189,0.5566854476928711,-129.7216339111328,-70.08816528320312,-38.91683578491211,0.7020803689956665,-2.027651309967041,-11.163612365722656,-79.17167663574219,-72.84484100341797,-2.4956154823303223,-3.248037338256836,-3.133919715881348,-2.543628215789795,93.43964385986328,-7.833771228790283,87.10875701904297,-11.411693572998049,-3.316725254058838,16.609603881835938,-170.44512939453125,-67.00997161865234,102.46125030517578,-0.3353279829025268,1.5280601978302002,4.654375076293945
2376.2053780555725,-179.11895751953125,-75.46544647216797,-111.6817398071289,2.1518940925598145,1.8175342082977293,1.072667121887207,-148.87591552734375,-68.30917358398438,-21.92881393432617,-0.8134739398956299,-0.6609035730361938,-10.033796310424805,-78.7011947631836,-74.5267562866211,-6.243771553039551,-6.7686262130737305,-2.2230372428894043,0.0749044418334961,98.49124908447266,-14.079719543457031,85.1570816040039,0.7620304822921753,-0.5173834562301636,4.919450759887695,-174.64846801757812,-66.76605987548828,105.69931030273438,-4.349783897399902,2.822112560272217,3.2978992462158203
2376.2353785037994,-174.75949096679688,-76.293701171875,-115.79781341552734,-0.7970154285430908,1.4086995124816897,0.8034486770629883,-164.55348205566406,-68.14747619628906,-7.732488632202148,2.0969700813293457,2.4585442543029785,-6.342441558837891,-71.13211059570312,-77.2220458984375,-16.520021438598633,-6.49122428894043,-0.6876266002655029,1.406015396118164,104.96403503417967,-20.51148796081543,83.86398315429688,-1.2411816120147705,0.5609904527664185,3.965547561645508,-178.74449157714844,-67.26490020751953,108.53565216064452,-3.748147010803223,1.0143640041351318,-0.23486328125
2376.2659153938293,-169.561767578125,-77.36369323730469,-121.76690673828124,-0.6810868978500366,-0.5961718559265137,-0.1318216323852539,-177.3606414794922,-70.40982818603516,6.265941143035889,6.881547927856445,4.044599533081055,-3.70103931427002,-59.90681076049805,-78.21021270751953,-33.10446548461914,-4.839358329772949,0.0793724060058593,0.762232780456543,109.34528350830078,-28.941146850585938,82.0813980102539,-0.0120681338012218,1.736323356628418,3.748026847839356,177.27330017089844,-68.05692291259766,111.58251190185548,-1.3403468132019043,1.0580203533172607,-3.0452842712402344
2376.2959201335907,-164.56199645996094,-77.7180404663086,-126.46195220947266,0.490810751914978,-1.9836506843566892,-0.8063859939575195,166.2606658935547,-74.9073486328125,24.214744567871094,1.7109663486480713,5.531098365783691,0.9997568130493164,-53.177371978759766,-76.50819396972656,-48.45669174194336,-5.409473419189453,0.4847009181976318,-2.370711326599121,109.25534057617188,-39.8530387878418,80.23466491699219,1.6970078945159912,2.554762363433838,6.538734436035156,172.07118225097656,-68.56287384033203,115.54110717773438,-0.0048073166981339,1.0686542987823486,-4.228316307067871
2376.324922800064,-163.9300537109375,-77.10191345214844,-127.64508819580078,0.636070728302002,-2.991618633270264,-1.223109245300293,162.24720764160156,-76.56204986572266,36.62403869628906,-12.97340202331543,6.701955795288086,12.559675216674805,-50.76275253295898,-73.22779083251953,-59.35094451904297,-6.021970748901367,1.6345744132995603,-4.611189842224121,101.24340057373048,-52.60224914550781,79.37267303466797,0.5193885564804077,2.794329166412353,10.386760711669922,165.61167907714844,-68.96475982666016,120.10125732421876,0.1738979816436767,-0.1258823871612548,-4.07430362701416
2376.385361671448,-168.6643829345703,-74.84073638916016,-123.68858337402344,1.154214859008789,-4.934364318847656,-1.541243553161621,160.34512329101562,-76.80351257324219,34.79349899291992,-0.4088897109031677,-1.94609808921814,1.7864933013916016,-48.75590515136719,-68.9986801147461,-66.98786926269531,-5.064918518066406,2.6694130897521973,-6.360517501831055,81.80669403076172,-62.35337066650391,81.17622375488281,0.9495466947555542,-0.2180230319499969,13.622907638549805,157.51458740234375,-69.31755065917969,126.00589752197266,-1.102759599685669,-0.5695947408676147,-4.825717926025391
2376.415364265442,-175.078125,-71.07412719726562,-116.57134246826172,-0.4054359197616577,-1.3821306228637695,-0.9396018981933594,158.6963348388672,-78.21971893310547,31.286043167114254,5.669303894042969,-1.1068511009216309,11.766422271728516,-45.97447967529297,-63.85924911499024,-72.56462097167969,-2.616744041442871,3.2328834533691406,-7.336269378662109,60.63967514038086,-63.28759765625,79.7989273071289,1.3218889236450195,8.183528900146484,4.864890098571777,149.39451599121094,-69.700439453125,133.28912353515625,-3.006055355072021,-0.4851831197738647,-4.814296722412109
2376.445379018784,178.3516387939453,-66.5669937133789,-108.06246948242188,-0.9158591032028198,-2.3575124740600586,-2.734292507171631,171.19981384277344,-76.17890167236328,15.57309913635254,4.356993675231934,10.127405166625977,13.48196029663086,-44.988380432128906,-57.82582473754883,-75.75249481201172,-3.664360523223877,4.268656730651856,-4.679487228393555,54.68151092529297,-57.38245391845703,75.39569854736328,16.81725311279297,15.227594375610352,4.870143890380859,142.16384887695312,-70.39300537109375,141.67222595214844,-2.8706612586975098,0.0470418781042099,-1.603266716003418
2376.4759051799774,174.07901000976562,-62.22734069824219,-99.2265167236328,7.16402530670166,2.12197208404541,-1.4309120178222656,-173.7261199951172,-70.56788635253906,3.673805952072144,8.04420280456543,-5.706165313720703,16.380199432373047,-46.52802276611328,-50.77975082397461,-76.13894653320312,-4.738493919372559,4.930283546447754,-2.711711883544922,66.86595916748047,-46.449100494384766,74.08008575439453,3.878760814666748,15.930585861206056,5.574938774108887,137.3634796142578,-71.0247573852539,147.79248046875,1.0629453659057615,0.8946927785873413,0.7513294219970703
2376.504907846451,172.4839324951172,-58.36571502685547,-94.49333953857422,1.5499160289764404,1.1811001300811768,3.257098197937012,-167.56170654296875,-64.3735122680664,0.5045552849769592,9.493999481201172,-5.62335205078125,13.049600601196287,-50.38037109375,-42.50066757202149,-72.0508041381836,-6.013313293457031,14.043720245361328,8.628049850463867,76.3468017578125,-34.269222259521484,74.69695281982422,-7.493125915527344,15.638227462768556,14.25578498840332,136.1479034423828,-71.18545532226562,151.1847686767578,-1.419518232345581,-3.025866985321045,7.8051910400390625
2376.53591299057,171.34463500976562,-55.484153747558594,-91.9991455078125,-1.6881473064422607,1.3167061805725098,0.9145746231079102,-162.44969177246094,-61.92465591430664,0.4202150404453277,4.085156440734863,2.392366886138916,8.255989074707031,-55.15364074707031,-33.63676452636719,-64.60977172851562,-8.265012741088867,18.395801544189453,15.487751007080078,77.72493743896484,-24.24830436706543,77.55218505859375,-4.691206932067871,13.984081268310549,6.04111385345459,135.9703369140625,-71.9089584350586,153.34767150878906,-3.93526029586792,-1.6215431690216064,7.0118560791015625
