Timestamp,D4:22:CD:00:05:5D_EulerX,D4:22:CD:00:05:5D_EulerY,D4:22:CD:00:05:5D_EulerZ,D4:22:CD:00:05:5D_FreeAccX,D4:22:CD:00:05:5D_FreeAccY,D4:22:CD:00:05:5D_FreeAccZ,D4:22:CD:00:05:5E_EulerX,D4:22:CD:00:05:5E_EulerY,D4:22:CD:00:05:5E_EulerZ,D4:22:CD:00:05:5E_FreeAccX,D4:22:CD:00:05:5E_FreeAccY,D4:22:CD:00:05:5E_FreeAccZ,D4:22:CD:00:05:6B_EulerX,D4:22:CD:00:05:6B_EulerY,D4:22:CD:00:05:6B_EulerZ,D4:22:CD:00:05:6B_FreeAccX,D4:22:CD:00:05:6B_FreeAccY,D4:22:CD:00:05:6B_FreeAccZ,D4:22:CD:00:05:6E_EulerX,D4:22:CD:00:05:6E_EulerY,D4:22:CD:00:05:6E_EulerZ,D4:22:CD:00:05:6E_FreeAccX,D4:22:CD:00:05:6E_FreeAccY,D4:22:CD:00:05:6E_FreeAccZ,D4:22:CD:00:49:AA_EulerX,D4:22:CD:00:49:AA_EulerY,D4:22:CD:00:49:AA_EulerZ,D4:22:CD:00:49:AA_FreeAccX,D4:22:CD:00:49:AA_FreeAccY,D4:22:CD:00:49:AA_FreeAccZ
2403.5698833465576,174.01611328125,-53.821815490722656,-123.86441802978516,-1.201878547668457,1.7201619148254397,-0.1005573272705078,-141.6261749267578,-63.76020050048828,-27.798511505126957,-21.65513229370117,-8.248279571533203,25.80765914916992,-67.49541473388672,-57.11031723022461,-43.17379760742188,-6.15814208984375,6.64488697052002,-0.7054691314697266,55.30027389526367,-52.06622695922852,60.13320541381836,-3.571809768676758,12.841848373413086,1.1621379852294922,146.84800720214844,-73.04845428466797,121.68144989013672,-0.6509019136428833,3.6066627502441406,1.2576541900634766
2403.572883844376,173.37640380859375,-50.03376770019531,-119.3567886352539,0.7114763259887695,2.05366849899292,-1.084162712097168,-135.66151428222656,-66.59515380859375,-33.164249420166016,10.346202850341797,-9.772428512573242,6.655477523803711,-59.22887420654297,-47.48440933227539,-46.8750228881836,18.95505142211914,4.123740196228027,-0.9160184860229492,51.30260467529297,-48.87353515625,59.86814498901367,15.10671615600586,17.49808120727539,-3.616514205932617,139.3507537841797,-73.59192657470703,128.95057678222656,-4.799698829650879,-2.657167911529541,-1.8817362785339355
2403.6554176807404,-174.85989379882812,-60.31547546386719,-24.357521057128903,-1.727261304855347,1.8976545333862305,0.2774543762207031,145.64846801757812,-58.70846939086914,-36.22446060180664,3.156223773956299,-4.332430839538574,25.518707275390625,-23.918790817260746,10.970009803771973,-50.69546890258789,-14.300968170166016,-14.264667510986328,32.278167724609375,-112.68101501464844,-58.564720153808594,-107.45586395263672,-13.96507453918457,-11.64191436767578,9.619775772094728,165.3828125,-70.05921936035156,109.58837890625,1.438904047012329,0.733342170715332,5.996384620666504
2403.6850633621216,-176.33706665039062,-55.01959228515625,-21.73689079284668,-3.4241390228271484,-3.674100399017334,1.940851211547852,163.9292755126953,-63.36549758911133,-52.808353424072266,7.438054084777832,6.487506866455078,20.74040985107422,-34.35060119628906,14.59561252593994,-50.53582763671875,8.910877227783203,-15.300384521484377,25.292495727539062,-128.11483764648438,-64.86250305175781,-87.22753143310547,-8.052282333374023,-7.054205894470215,13.566770553588867,155.1638946533203,-69.2669677734375,119.64397430419922,-2.6720991134643555,-0.8048173189163208,10.116348266601562
2403.7400629520416,-179.01943969726562,-52.577056884765625,-18.76554107666016,-1.9759151935577397,-0.5520035028457642,2.336763381958008,-166.77796936035156,-57.426456451416016,-77.89256286621094,8.64875602722168,12.71759796142578,10.056949615478516,-37.47737503051758,18.37895393371582,-44.332069396972656,14.304750442504885,-12.471014022827148,26.57352066040039,-130.8134002685547,-64.26031494140625,-73.35431671142578,-8.352275848388672,-14.43875503540039,10.65377426147461,160.3022003173828,-69.73746490478516,114.64264678955078,-0.1209562718868255,0.5609151124954224,9.235418319702148
2403.7750680446625,179.90402221679688,-52.22044372558594,-17.224327087402344,-1.4585425853729248,-2.103265285491944,1.5789518356323242,-149.02716064453125,-45.31626510620117,-91.45082092285156,4.9333906173706055,15.020305633544922,1.9722814559936523,-28.98031234741211,25.54356384277344,-36.33411407470703,12.930723190307615,-10.676668167114258,12.745920181274414,-126.39837646484376,-62.39669418334961,-61.95698165893555,-7.871480941772461,-18.42605972290039,2.2776241302490234,159.92544555664062,-71.03056335449219,115.18797302246094,1.878434181213379,0.757035493850708,4.969088554382324
2403.805600166321,179.8656768798828,-53.31972122192383,-17.00287437438965,-1.1115388870239258,-3.041205406188965,2.018130302429199,-138.6697540283203,-33.6401252746582,-99.21990203857422,9.843084335327148,9.092016220092772,-6.525946617126465,-15.050498008728027,32.721099853515625,-29.721120834350582,11.40652084350586,-6.435543060302734,5.042119979858398,-125.3437957763672,-62.58072280883789,-46.31979370117188,-2.4576783180236816,-16.066394805908203,-4.224250793457031,159.62997436523438,-72.58665466308594,117.97981262207033,-5.597718238830566,0.6787770986557007,6.760501861572266
2403.8355991840363,179.8101348876953,-56.010231018066406,-16.959054946899414,-1.1208868026733398,-2.010481834411621,2.4808874130249023,-127.94224548339844,-26.04497718811035,-108.3847198486328,14.955059051513672,4.314984321594238,-20.236968994140625,-1.2553393840789795,40.617225646972656,-28.352426528930664,6.649622917175293,0.6173384189605713,-3.69757890701294,-129.35240173339844,-62.81016159057617,-29.32562255859375,-0.4516955018043518,-13.74151611328125,-8.43138313293457,168.86062622070312,-75.23173522949219,112.46615600585938,-3.35501766204834,2.967949867248535,5.229449272155762
2403.8656029701237,178.7628631591797,-59.92885971069336,-15.927152633666992,0.5078201293945312,-4.7109479904174805,4.944744110107422,-115.42050170898438,-21.113264083862305,-120.92272186279295,16.547977447509766,-0.2447399795055389,-23.905101776123047,4.319077014923096,47.09992218017578,-26.744009017944336,0.4219465255737304,-5.4036865234375,-2.1919431686401367,-133.958984375,-62.0820426940918,-15.648388862609863,2.288486957550049,-10.4615478515625,-10.89219093322754,179.6009979248047,-78.10985565185547,105.49736785888672,2.4210901260375977,2.791900634765625,2.176149368286133
2403.895142555237,172.12261962890625,-66.2957763671875,-13.560840606689451,8.820955276489258,-3.514586925506592,4.28647518157959,-104.26905822753906,-17.298669815063477,-135.34178161621094,10.269746780395508,-3.134791374206543,-22.58848571777344,10.214567184448242,51.44833755493164,-26.77989387512207,-5.343890190124512,-3.784926891326904,-2.773426055908203,-138.53199768066406,-60.82348251342773,-6.1923699378967285,4.020488739013672,-6.951846122741699,-12.469758987426758,-166.90243530273438,-81.07205963134766,94.77880859375,2.2540531158447266,1.5735194683074951,-4.112936973571777
2403.925142288208,162.3119659423828,-66.89913940429688,-6.689560890197754,4.017070770263672,9.371896743774414,-3.1188411712646484,-95.15020751953124,-15.497284889221191,-150.14271545410156,0.8233587741851807,-2.1407599449157715,-14.806076049804688,13.812164306640623,52.344520568847656,-30.100187301635746,-7.926342010498047,2.4718289375305176,-3.890866756439209,-142.44863891601562,-59.87248229980469,0.4334034621715545,6.091124534606934,-4.5623321533203125,-11.280969619750977,-153.5318603515625,-81.91177368164062,83.26814270019531,1.1489918231964111,-0.8330162763595581,-7.858292579650879
2403.9551343917847,164.08189392089844,-65.03759002685547,-1.2959015369415283,12.944461822509766,10.95140266418457,-16.142650604248047,-90.14495086669922,-16.4758243560791,-164.9127960205078,-8.068599700927734,2.2782187461853027,-17.327136993408203,9.067989349365234,48.760719299316406,-38.30073165893555,-3.338715076446533,12.05307960510254,-7.453271865844727,-146.30499267578125,-59.91761016845703,6.251529216766357,7.578802108764648,-3.603115558624268,-7.289212226867676,-144.86900329589844,-82.037109375,75.38157653808594,1.4718632698059082,0.3203407526016235,-6.225181579589844
2403.984674692154,169.68450927734375,-68.96977996826172,-0.5933950543403625,-7.244324684143066,-0.3030306696891784,-0.8868246078491211,-94.11003875732422,-19.58343505859375,-177.42420959472656,-22.019824981689453,15.772594451904297,-11.463363647460938,-0.4326428771018982,39.55063629150391,-51.73503112792969,3.4988818168640137,3.685288429260254,-12.612550735473633,-150.92323303222656,-60.56471633911133,11.61020565032959,9.36298942565918,-3.5511908531188965,-1.2801437377929688,-124.7390594482422,-83.48609161376953,56.2435188293457,0.0515729337930679,2.195779800415039,-6.7426862716674805
2404.039691925049,169.99876403808594,-70.64874267578125,-2.4461772441864014,-16.264019012451172,-6.354826927185059,2.55963134765625,-100.03730010986328,-24.482749938964844,173.7963409423828,-22.58401870727539,30.62725830078125,0.6630964279174805,-8.269876480102539,25.622648239135746,-66.681640625,6.199409484863281,-11.381549835205078,-19.419906616210938,-155.78916931152344,-60.98042678833008,16.293642044067383,8.573814392089844,-2.505052089691162,-1.7475852966308594,-99.13953399658205,-83.72527313232422,33.04071044921875,-1.4189636707305908,0.3425504565238952,-7.374359130859375
2404.0757060050964,168.03404235839844,-71.1171646118164,-0.3650314509868622,1.486502170562744,-8.983102798461914,0.2386302947998047,-102.46847534179688,-29.376876831054688,171.7200927734375,-8.979898452758789,27.391773223876957,-5.525808334350586,-3.258837938308716,13.521747589111328,-84.1456069946289,0.1402053833007812,-40.585052490234375,-20.8165283203125,-163.3612518310547,-59.82962417602539,21.443506240844727,13.77680206298828,-3.5829100608825684,-2.329363346099853,-90.27303314208984,-82.90998077392578,26.813671112060547,-1.7557425498962402,-0.9054828882217408,0.4440679550170898
2404.10533618927,167.32058715820312,-71.77738952636719,4.985831260681152,2.8641724586486816,0.2792845368385315,3.615366935729981,-114.6544418334961,-31.19367218017578,178.6272430419922,-9.330162048339844,15.101337432861328,-10.561559677124023,-10.421996116638184,10.572505950927734,-86.66433715820312,3.822166919708252,10.167610168457031,-11.86912727355957,-178.53900146484375,-57.318580627441406,27.95534896850586,13.80034637451172,-2.4532032012939453,-2.52457332611084,-73.4659423828125,-82.42171478271484,10.692523956298828,-0.0544218271970748,2.079214096069336,2.304415702819824
2404.135340452194,163.54261779785156,-72.52050018310547,10.751261711120604,1.3289391994476318,-0.4743755459785461,3.66084098815918,-136.27099609375,-28.504898071289062,-171.02232360839844,-16.84307861328125,-7.410407066345215,5.46488094329834,-23.05931663513184,17.071439743041992,-74.56886291503906,-13.137794494628906,-16.043109893798828,0.1044492721557617,163.58596801757812,-54.45706558227539,33.25336837768555,10.814926147460938,13.45079231262207,-7.357510566711426,-64.07925415039062,-82.21016693115234,-1.3916186094284058,0.6346583366394043,-0.9166156053543092,-1.3902950286865234
2404.165420293808,155.5279998779297,-73.02867126464844,17.761302947998047,3.422354221343994,1.4339752197265625,1.593402862548828,-136.13551330566406,-28.86393928527832,-167.6521759033203,-4.615090370178223,-10.613452911376951,0.1771860122680664,-17.04065704345703,26.953413009643555,-58.470314025878906,6.706052780151367,-21.96395492553711,-20.08910751342773,145.9429168701172,-53.6633415222168,33.18728256225586,2.347519397735596,13.747520446777344,-7.135935783386231,-59.651458740234375,-82.77197265625,-10.413166046142578,-0.6521741151809692,-1.885660171508789,-0.9030961990356444
2404.194967985153,145.3366241455078,-72.51207733154297,26.71921730041504,2.6337313652038574,-0.9190407991409302,0.4452400207519531,-139.70758056640625,-28.531574249267575,-164.06240844726562,-13.477659225463867,-4.588898658752441,-3.621247291564941,-12.476532936096191,33.59080123901367,-38.91656875610352,4.377912521362305,-9.70068359375,-13.770771026611328,136.64651489257812,-54.54520797729492,32.98472595214844,3.19787073135376,6.003629684448242,-5.588009834289551,-70.67281341552734,-83.89009857177734,-2.9702107906341557,-3.532505512237549,-2.8577356338500977,-1.8044004440307615
2404.2249677181244,134.59359741210938,-70.50691223144531,33.72077941894531,3.027803421020508,4.5990190505981445,-0.3914213180541992,-145.62457275390625,-25.87484741210937,-161.13427734375,-16.06036376953125,-1.5610723495483398,-5.879769325256348,-5.45353889465332,34.800724029541016,-22.537315368652344,-1.2760720252990725,-1.1854374408721924,-5.67070198059082,131.97911071777344,-56.447261810302734,34.040283203125,-2.107175827026367,5.809494018554688,-0.0816545486450195,-97.15637969970705,-84.51131439208984,19.98587989807129,-0.2128880321979522,-1.8133351802825928,-5.057229042053223
2404.254967451096,128.67665100097656,-67.40331268310547,32.73850631713867,-7.532029151916504,10.74212646484375,0.1799945831298828,-146.174072265625,-22.702621459960938,-158.43063354492188,-8.931224822998047,0.2410459816455841,-1.843134880065918,-0.601025402545929,32.15396499633789,-10.521442413330078,-7.639410972595215,7.496784210205078,-3.606114387512207,128.77685546875,-58.90153884887695,36.16722106933594,-3.924809455871582,4.018653869628906,4.629369735717773,-122.9315185546875,-84.26598358154297,41.3484001159668,6.7768659591674805,-0.4490535855293274,-6.012364387512207
2404.3105120658875,130.4999237060547,-61.3021354675293,23.69136047363281,-15.583446502685549,13.214906692504885,9.54995346069336,-146.84750366210938,-21.12940216064453,-156.3712615966797,-7.109118461608887,0.0183373354375362,-0.9542522430419922,-4.136769771575928,27.463520050048828,-1.2730767726898191,-14.483736038208008,15.061309814453123,0.1441755294799804,127.2859344482422,-60.166446685791016,40.454776763916016,0.1420616805553436,4.771018028259277,3.453561782836914,-141.79896545410156,-83.63533020019531,57.89564895629883,1.1234180927276611,-1.1756823062896729,-1.6058616638183594
2404.340511083603,133.9451446533203,-52.01042938232422,12.204788208007812,-6.79119873046875,12.333473205566406,6.950141906738281,-146.41400146484375,-21.16493225097656,-154.7397003173828,-8.971014022827148,-0.86067795753479,-1.882739543914795,-24.834665298461918,20.630046844482425,4.749817371368408,-29.811279296875,42.88324737548828,-24.561199188232425,128.33338928222656,-59.785587310791016,46.542572021484375,1.4432458877563477,5.366524696350098,4.643325805664063,-142.5445098876953,-81.45716857910156,60.75986099243164,-4.489158630371094,-0.8410613536834717,3.86967658996582
2404.375524997711,138.3980712890625,-41.50131607055664,1.7746589183807373,-0.2227965295314788,9.572477340698242,-2.750770568847656,-144.98086547851562,-21.260347366333008,-153.30230712890625,-10.53461456298828,-1.3831207752227783,-5.668139457702637,-56.58940505981445,9.63327980041504,7.650671482086182,4.161374092102051,-18.22081756591797,-1.6834936141967771,131.55502319335938,-58.09233856201172,53.25389099121094,1.412015676498413,1.341446876525879,2.4429426193237305,-137.91209411621094,-79.47901916503906,59.45512390136719,6.738771438598633,1.7151451110839844,4.365290641784668
2404.4061460494995,144.8798828125,-31.584909439086918,-7.517483234405518,1.5127379894256592,4.463128089904785,-8.964309692382812,-143.0401153564453,-20.802778244018555,-151.8975830078125,-8.488779067993164,-0.4784899353981018,-3.9633288383483887,-60.62297821044922,-3.609992265701294,11.280946731567385,-6.588549613952637,3.664517879486084,5.70567798614502,132.99403381347656,-55.43938827514648,59.191184997558594,2.908375740051269,-1.41786527633667,0.41851806640625,-140.0568389892578,-78.53621673583984,63.14152145385742,15.792987823486328,5.246716499328613,2.336249351501465
2404.43514585495,152.76905822753906,-23.2886905670166,-14.86999797821045,-0.7455885410308838,1.1917660236358645,-11.293548583984377,-141.65383911132812,-18.99732780456543,-150.6680145263672,-10.854875564575195,-2.5647573471069336,-5.7563018798828125,-65.96864318847656,-17.11758041381836,18.245166778564453,-3.3884778022766118,6.783522605895996,-12.598064422607422,130.8428192138672,-52.34040451049805,64.17973327636719,5.681977272033691,1.002938747406006,-2.1564784049987797,-143.39552307128906,-78.02269744873047,64.4559326171875,5.322068214416504,-0.8741378784179688,3.818267822265625
2404.465146780014,161.268798828125,-17.565929412841797,-20.83658790588379,-1.574341058731079,-1.0719802379608154,-10.437467575073242,-141.6619415283203,-16.185104370117188,-149.2515411376953,-1.260469913482666,6.281685829162598,-6.212533950805664,-84.31269836425781,-30.17957305908203,32.50119400024414,5.596109390258789,-1.5339093208312988,0.4074344635009765,126.75009155273438,-49.453216552734375,70.61422729492188,6.468242645263672,2.1738643646240234,-2.6648507118225098,-147.45997619628906,-78.16289520263672,67.51275634765625,-1.7790486812591553,-0.2773147225379944,0.5872573852539062
2404.4956760406494,169.04742431640625,-15.24651050567627,-26.806381225585938,0.4733604192733764,-1.080648422241211,-6.984631538391113,-141.5056610107422,-14.450274467468262,-147.7606964111328,-7.068170547485352,2.1707167625427246,-4.565812110900879,-98.00438690185548,-45.75133895874024,53.625770568847656,2.7360801696777344,19.681304931640625,18.80492401123047,120.6039810180664,-45.547698974609375,80.06671905517578,4.91048526763916,3.577834129333496,-0.8227071762084961,-150.23446655273438,-78.35762786865234,70.9581527709961,1.43914532661438,1.9254271984100344,-3.860429763793945
2404.52468252182,172.35206604003906,-17.232643127441406,-33.69471740722656,3.0136260986328125,-10.523153305053713,-10.125099182128906,-142.23568725585938,-12.39800262451172,-146.80813598632812,-9.75831413269043,0.3021394610404968,-4.343355178833008,-113.97344970703124,-63.17677688598633,84.3049545288086,0.1857919692993164,34.40538787841797,39.78578186035156,113.78282165527344,-39.206092834472656,90.6867446899414,6.279497146606445,6.293757438659668,3.28384780883789,-151.71121215820312,-78.65123748779297,72.53034973144531,2.0405192375183105,0.8804830312728882,-5.300474166870117
2404.5547370910645,166.12322998046875,-22.174076080322266,-40.22281646728516,0.7968636751174927,-8.693048477172852,12.02154541015625,-143.65919494628906,-10.647802352905272,-146.2394561767578,-6.924898147583008,1.8468842506408687,-3.889866828918457,-112.13829803466795,-68.76155090332031,97.2999267578125,-3.511938095092773,-4.974422454833984,-2.632877826690674,107.64168548583984,-31.692724227905277,100.5977554321289,15.985933303833008,8.742437362670898,9.331872940063477,-154.50091552734375,-79.43982696533203,75.60968017578125,-0.9682900905609132,0.5579046010971069,-0.937185287475586
2404.6103117465973,161.16705322265625,-23.841243743896484,-42.364295959472656,14.637895584106444,-23.642276763916016,5.473649978637695,-144.63304138183594,-10.13596248626709,-145.78147888183594,-7.158591270446777,1.0873661041259766,-3.773396015167236,-93.81903839111328,-61.77804565429688,84.85037231445312,0.3757047653198242,13.129037857055664,-0.0274467468261718,103.35708618164062,-24.119993209838867,110.46373748779295,24.12353515625,8.004175186157227,9.436849594116213,-149.4391326904297,-81.75531005859375,70.53189086914062,7.402226448059082,3.2250795364379883,1.924288749694824
2404.645311117172,164.00485229492188,-23.98632431030273,-39.028621673583984,12.39942741394043,-19.13642120361328,7.167348861694336,-145.09030151367188,-10.891124725341797,-145.5270538330078,-11.114517211914062,-0.4663884043693542,-2.6664910316467285,-89.01264953613281,-51.72879409790039,72.54293823242188,0.4494447708129883,15.396989822387695,11.961223602294922,96.8550033569336,-12.152729034423828,120.27790069580078,24.662887573242188,9.809499740600586,11.587398529052734,-152.8175811767578,-80.21226501464844,72.86093139648438,1.9997341632843015,-2.0231051445007324,-1.9846014976501465
2404.675327539444,168.71815490722656,-21.250675201416016,-32.995689392089844,9.126850128173828,-17.405086517333984,9.869270324707031,-145.5618133544922,-12.553885459899902,-146.0443572998047,-9.895498275756836,0.1441443860530853,-1.8419413566589355,-84.38035583496094,-43.72996520996094,60.626766204833984,9.088436126708984,13.699254989624023,5.309981346130371,83.96208190917969,2.4512007236480717,128.7978515625,12.482500076293944,14.570999145507812,5.541574478149414,-159.31532287597656,-77.75460052490234,77.21720123291016,0.3389424085617065,-5.099883079528809,7.036472320556641
2404.7048559188843,166.74273681640625,-16.307111740112305,-28.415807723999023,15.459592819213867,-3.626920223236084,10.32539176940918,-146.4680633544922,-15.281145095825195,-147.61534118652344,-11.064523696899414,0.9305742979049684,-2.266563892364502,-82.80705261230469,-37.98859024047852,48.83938217163086,13.388664245605469,6.08528995513916,-1.5665950775146484,72.13658905029297,15.494977951049805,136.03579711914062,6.1979570388793945,12.94081687927246,4.49445915222168,-159.41671752929688,-77.8082504272461,76.21321105957031,-0.6810519695281982,0.5836405754089355,7.70118522644043
2404.735855102539,163.14491271972656,-11.131213188171388,-27.527816772460938,9.050050735473633,-6.351104736328125,8.861812591552734,-147.93356323242188,-18.845552444458008,-150.3889617919922,-13.959146499633787,-0.1545473635196685,-2.086172103881836,-84.75262451171875,-34.241153717041016,38.9049186706543,6.802960395812988,1.976304292678833,-0.9691324234008788,66.8514633178711,25.267757415771484,142.14144897460938,-1.1595275402069092,7.438387870788574,5.284239768981934,-160.02731323242188,-78.69505310058594,76.27278137207031,2.367121696472168,1.4319467544555664,4.882380485534668
2404.764847517013,160.46014404296875,-7.448709011077881,-28.935396194458008,3.5731663703918457,-3.621805667877197,0.5232200622558594,-146.28158569335938,-26.40045166015625,-155.24798583984375,-22.89023971557617,-10.139911651611328,-8.268701553344727,-87.45619201660156,-34.15172576904297,31.868112564086918,0.0662802457809448,4.06959342956543,0.6740884780883789,68.4000015258789,32.89082336425781,147.40472412109375,-6.838522911071777,-0.0424607098102569,2.0060901641845703,-166.29013061523438,-78.59697723388672,81.71772003173828,6.822455406188965,2.3218588829040527,7.519144058227539
2404.795405626297,160.97842407226562,-6.973075866699219,-31.01633644104004,-0.9427461624145508,-2.982461452484131,-5.700776100158691,-138.29562377929688,-31.24152183532715,-158.85128784179688,-2.251939296722412,12.046245574951172,-11.913810729980469,-90.11692810058594,-39.1811408996582,27.199668884277344,-2.417449474334717,1.846235752105713,-0.6339950561523438,73.20228576660156,38.63370132446289,153.2266082763672,-3.7643322944641113,-3.447551727294922,-6.127162933349609,-174.4683380126953,-78.57023620605469,88.28448486328125,3.958250045776367,0.6016000509262085,8.140432357788086
2404.825406074524,161.34841918945312,-10.692641258239746,-32.73614883422852,-3.521873950958252,-3.2531847953796387,-9.683877944946287,-134.57431030273438,-34.1240348815918,-159.24594116210938,-5.542437553405762,9.908056259155272,-10.448274612426758,-96.94114685058594,-47.93288803100586,26.89131164550781,-4.395634651184082,-1.5120458602905271,-4.127102851867676,79.59870910644531,42.55581665039063,159.71267700195312,-2.636318683624268,-4.195151329040527,-7.219472885131836,175.68104553222656,-78.95913696289062,96.45248413085938,1.6936428546905518,0.0228086039423942,4.776432991027832
2404.8554060459137,159.6676025390625,-18.39008903503418,-33.361610412597656,-1.9566075801849363,-5.728122711181641,-15.48003387451172,-136.75204467773438,-36.39370727539063,-158.15443420410156,0.6301406621932983,-4.711915016174316,-8.79505729675293,-107.28820037841795,-57.66869354248047,31.85344886779785,-8.759784698486328,2.497547149658203,-1.3644227981567385,85.04652404785156,43.49305725097656,166.26409912109375,-0.9686450958251952,-2.812272548675537,-9.19667625427246,165.203369140625,-78.8314208984375,105.61102294921876,1.148165941238403,0.5770574808120728,-2.381402969360352
2404.8849325180054,156.814697265625,-29.144088745117188,-32.67225646972656,1.5711591243743896,-7.003745079040527,-18.271461486816406,-135.11573791503906,-38.952674865722656,-159.14718627929688,4.053022384643555,-3.244178771972656,6.629650115966797,-117.6854476928711,-66.96125030517578,41.71038055419922,-7.201703071594238,3.731734275817871,-4.995415687561035,87.53684997558594,39.73799896240234,172.88523864746094,-2.4642815589904785,-2.568727970123291,-10.195568084716797,159.37518310546875,-77.7122802734375,109.98848724365234,-0.6885887384414673,0.5857762098312378,-8.131555557250977
2404.9399473667145,154.2789306640625,-42.715370178222656,-30.931922912597656,4.507241249084473,-5.983550071716309,-14.40188980102539,-135.51336669921875,-39.15676498413086,-159.4489288330078,-1.1521673202514648,-3.703779220581055,-1.1801214218139648,-134.4406280517578,-72.85865020751953,57.02467346191406,-4.209385871887207,1.5884051322937012,-7.883781433105469,87.6697006225586,31.07188606262207,178.41778564453125,-10.792108535766602,-2.9798569679260254,-11.709943771362305,157.69215393066406,-77.0207748413086,110.7782745361328,-1.030022382736206,1.5156264305114746,-10.671432495117188
2404.9749619960785,149.75296020507812,-59.81636047363281,-27.174638748168945,3.2725424766540527,-4.596692085266113,-0.5005521774291992,-140.67001342773438,-37.141727447509766,-158.79469299316406,-10.230697631835938,-0.2086401581764221,-8.455612182617188,-154.1210479736328,-75.25218200683594,73.4907455444336,-6.937619209289551,2.8298635482788086,-6.877915382385254,86.05430603027344,21.400020599365234,-178.64639282226562,-24.083988189697266,-3.180149555206299,-10.428489685058594,154.69483947753906,-77.25064086914062,113.0326690673828,-0.3380035758018493,1.1527483463287354,-8.136070251464844
2405.005496025085,131.0418701171875,-79.12902069091797,-10.023162841796877,5.15731143951416,0.6450101137161255,15.66167449951172,-146.43557739257812,-34.242366790771484,-157.87158203125,-11.222406387329102,2.1507368087768555,-8.103954315185547,-167.32293701171875,-76.5907974243164,86.60076904296875,-4.887931823730469,3.977755069732666,-7.878775596618652,78.95487213134766,20.63354110717773,-178.15426635742188,-0.6587152481079102,-8.443567276000977,-3.431942939758301,148.6400146484375,-78.16885375976562,118.03858947753906,1.591604232788086,0.1598358154296875,-9.978754043579102
2405.035493373871,5.661759376525879,-78.43991088867188,118.10816192626952,-10.044784545898438,17.074230194091797,26.36693572998047,-147.9881134033203,-33.01438903808594,-157.7726593017578,-9.617074966430664,0.420404851436615,-4.877388000488281,-177.5439910888672,-77.40763854980469,96.51644897460938,-4.075226783752441,4.14359188079834,-7.446516990661621,72.35824584960938,27.32696533203125,176.61158752441406,2.2314906120300293,3.4668526649475098,-15.357540130615234,143.4304656982422,-78.23918151855469,121.95353698730467,2.8013834953308105,-0.6493074893951416,-6.552188873291016
2405.0654952526093,2.4341073036193848,-69.75848388671875,122.31121826171876,-23.78499984741211,13.62515640258789,-39.54399108886719,-147.4512176513672,-33.096946716308594,-158.71536254882812,-12.683141708374023,-2.0555896759033203,-2.1689696311950684,171.71229553222656,-77.49689483642578,106.96498107910156,-5.723860740661621,5.576598167419434,-6.539715766906738,79.51193237304688,38.441993713378906,169.76344299316406,-0.077144905924797,4.505804061889648,-16.778362274169922,145.1878204345703,-78.62628936767578,121.3861083984375,-1.6344540119171145,-3.1634202003479004,-2.470918655395508
2405.095037460327,3.677059650421143,-70.8432388305664,117.5225830078125,3.589437961578369,13.574609756469728,-1.1404132843017578,-146.7901153564453,-33.33445358276367,-160.46717834472656,-11.726287841796877,-2.166102886199951,-1.0402812957763672,161.95614624023438,-77.09220123291016,118.06552124023438,-4.968822479248047,6.229441642761231,-6.033600807189941,91.89704895019533,53.06404876708984,160.02151489257812,-1.3959629535675049,3.323089599609375,-10.621265411376951,159.76797485351562,-78.35539245605469,109.42950439453124,3.0032901763916016,-2.6964502334594727,2.543577194213867
2405.125036716461,19.52014541625977,-75.69476318359375,102.14822387695312,-11.00218391418457,14.98746109008789,1.4629573822021484,-143.49362182617188,-34.79120635986328,-163.2774200439453,-13.879022598266602,-2.301474094390869,-2.8889236450195312,154.92979431152344,-76.1065444946289,125.630126953125,-4.0808210372924805,5.887310981750488,-2.235872268676758,97.6393585205078,66.298095703125,143.72059631347656,-8.37684440612793,1.848517179489136,-4.054238319396973,169.0940704345703,-79.11532592773438,100.84435272216795,6.762160301208496,0.519249439239502,7.233083724975586
2405.155139684677,61.05788803100586,-81.1230697631836,63.86909103393555,3.765864849090576,12.404905319213867,2.0910701751708984,-134.1400146484375,-37.24147033691406,-167.82601928710938,-7.67811107635498,-1.2273504734039309,-5.498320579528809,153.15211486816406,-73.87165832519531,126.27178192138672,-5.675228118896484,7.309438705444336,1.730508804321289,75.54784393310547,74.70384216308594,108.79566192626952,-7.826191902160644,6.536368370056152,-4.77036190032959,174.10963439941406,-80.0734634399414,95.8441390991211,2.931558132171631,0.3792198896408081,2.82802963256836
2405.185672044754,124.91910552978516,-78.20789337158203,10.3237886428833,-1.5147650241851809,-3.4696803092956543,7.018281936645508,-126.10403442382812,-35.711605072021484,-171.13514709472656,-12.525823593139648,0.215055227279663,-9.061027526855469,156.94317626953125,-70.3769302368164,123.16883087158205,-6.984460830688477,9.864526748657228,4.097716331481934,33.36884689331055,73.81502532958984,60.9586067199707,0.3152379393577575,4.083654403686523,-7.621707916259766,-178.57534790039062,-80.34386444091797,89.01673889160156,1.5617992877960205,-0.1899363994598388,5.551502227783203
2405.240687847137,138.7935791015625,-75.37086486816406,-3.807424068450928,16.716312408447266,-11.85578727722168,-0.3923406600952148,-116.76087951660156,-32.59495544433594,-172.2169647216797,-8.803964614868164,17.42961883544922,6.554920196533203,164.52532958984375,-66.89563751220703,121.11312103271484,-5.609475135803223,8.823917388916016,5.018733978271484,10.280935287475586,67.97991180419922,33.5279426574707,13.066486358642578,1.21067476272583,-4.693366050720215,-173.46701049804688,-80.40695190429688,86.06873321533203,1.8948755264282229,-1.0043697357177734,2.881702423095703
2405.2757017612457,148.0690460205078,-76.72152709960938,-12.747885704040527,-1.9148411750793457,-1.1875202655792236,7.891950607299805,-110.85299682617188,-27.41139793395996,-167.65704345703125,-13.73147201538086,22.191486358642575,1.566267013549805,173.75576782226562,-64.29108428955078,118.14297485351562,-2.519763946533203,6.141293525695801,3.10601806640625,9.952591896057127,65.82857513427734,21.004981994628903,31.569503784179688,-1.9700310230255127,2.345248222351074,-169.4812469482422,-80.1819839477539,85.26727294921875,-2.439115047454834,-1.0517065525054932,-1.5698060989379885
2405.305235385895,157.62744140625,-75.83258819580078,-16.82046127319336,0.7584207057952881,-5.233278274536133,0.78021240234375,-108.03062438964844,-21.59234619140625,-159.5467071533203,-8.20478630065918,10.630414962768556,-5.455978393554688,-176.77745056152344,-62.08639907836914,112.38923645019533,-1.3816766738891602,3.671419143676758,-0.0478734970092773,28.25449562072754,72.45436096191406,18.74811363220215,15.141111373901367,0.5473529100418091,3.643219947814941,-168.07351684570312,-78.97566986083984,87.66949462890625,-2.565974235534668,-0.4942125082015991,-5.774077415466309
2405.335232257843,168.67633056640625,-74.6852035522461,-22.884801864624023,-0.5652797222137451,-1.365459680557251,2.4503793716430664,-106.30591583251952,-16.34514808654785,-150.50721740722656,-2.953950881958008,6.371548652648926,-9.83100128173828,-167.19541931152344,-59.97705841064453,105.16585540771484,-0.9389200210571288,1.5250041484832764,-2.4245524406433105,66.12698364257812,80.55450439453125,39.3564338684082,0.2132394015789032,3.2995405197143555,9.181480407714844,-170.948486328125,-76.57931518554688,95.07471466064452,-4.143233299255371,4.090063095092773,-4.58797550201416
2405.36523270607,175.60887145996094,-73.44092559814453,-31.279111862182617,-0.1932397484779358,-0.2829931974411011,0.1878805160522461,-107.78199005126952,-11.942411422729492,-141.69546508789062,0.5940812826156616,1.5723910331726074,-11.526668548583984,-160.7058563232422,-58.50898742675781,100.1944808959961,-0.9923651218414308,1.195319652557373,-3.527793884277344,123.5999526977539,81.03325653076172,83.43096923828125,-1.798701286315918,5.061905860900879,9.290861129760742,-176.2623291015625,-74.58769989013672,102.88165283203124,-0.900753617286682,3.442650318145752,-0.3279733657836914
2405.394770383835,-179.23101806640625,-72.17326354980469,-36.57730102539063,0.1007833629846572,2.888965129852295,0.7933816909790039,-111.95751190185548,-8.826802253723145,-133.93154907226562,2.0254969596862797,0.4555238485336303,-12.438074111938477,-159.96893310546875,-59.26475143432617,98.82295989990234,-2.7544164657592773,0.7084020376205444,-1.1591567993164062,145.61180114746094,76.60054779052734,94.60006713867188,-0.4273509383201599,1.3097245693206787,3.628663063049317,179.64328002929688,-71.8906478881836,106.70490264892578,1.89153265953064,1.3189444541931152,2.4770097732543945
2405.42488694191,-175.36248779296875,-71.81084442138672,-39.93791198730469,-1.0943186283111572,0.4267637729644775,1.107773780822754,-117.78595733642578,-7.287915229797363,-128.10655212402344,0.8119621276855469,-0.5395359992980957,-10.835012435913086,-163.121826171875,-62.3264045715332,100.0218505859375,-4.995736122131348,-0.3492381572723388,3.063145637512207,147.9561004638672,70.13433837890625,86.5308609008789,0.865001916885376,2.673760414123535,-2.0506649017333984,176.115234375,-69.57716369628906,109.57695770263672,-1.6203176975250244,2.0042781829833984,3.030341148376465
2405.4560945034027,-172.60775756835938,-72.31700897216797,-43.89106750488281,-1.105888605117798,-0.7908085584640503,0.7656745910644531,-123.58616638183594,-8.096294403076172,-124.66175842285156,-3.7506356239318848,-0.7787895202636719,-8.422931671142578,-168.4088134765625,-65.72885131835938,101.4060287475586,-3.911440372467041,0.4233202934265136,0.9144506454467772,139.04855346679688,61.7770881652832,70.76319885253906,2.333890438079834,3.527416706085205,-5.721196174621582,171.86172485351562,-68.277587890625,113.52403259277344,-5.3476409912109375,1.325392246246338,2.141855239868164
2405.5105924606323,-170.57373046875,-72.7173843383789,-47.45981216430664,0.3551136255264282,-0.0789542645215988,-0.1093597412109375,-126.18286895751952,-12.20201587677002,-124.27338409423828,-3.005650520324707,-6.709946632385254,-6.716259002685547,-174.5525665283203,-68.29864501953125,100.10089874267578,-4.998502731323242,2.507673740386963,-2.4300975799560547,125.01862335205078,49.83732223510742,53.85090637207031,0.4224398136138916,2.589755058288574,-10.601634979248049,168.05685424804688,-67.75704956054688,117.10094451904295,-3.7094082832336426,0.8505591154098511,0.0659685134887695
2405.540607690811,-170.22735595703125,-72.52948760986328,-48.575984954833984,2.6392974853515625,1.052170753479004,-0.883570671081543,-122.2154312133789,-18.055723190307617,-126.3291473388672,-26.624256134033203,12.467113494873049,21.747314453125,-177.52381896972656,-70.60601043701172,94.8233642578125,-7.9532470703125,1.2624626159667969,-5.012072563171387,110.43161010742188,32.464073181152344,38.67719268798828,4.413432121276856,3.8868813514709473,-13.902259826660156,164.04263305664062,-67.8271255493164,120.0163803100586,-0.0464531406760215,1.2134668827056885,-1.587468147277832
2405.575624227524,-173.01329040527344,-71.32408905029297,-45.9073600769043,3.2719125747680664,0.3621676564216614,-1.186174392700195,-116.65802001953124,-19.44376945495605,-127.00634765625,-1.0864293575286863,-18.79958724975586,-17.318870544433594,-173.32847595214844,-72.90055084228516,86.0082015991211,-5.867339134216309,0.6050853729248047,-7.296927452087402,89.4034652709961,8.50318717956543,29.851829528808597,17.11168670654297,6.626537322998047,-9.932083129882812,159.38990783691406,-67.89122772216797,122.79497528076172,0.3482813239097595,0.1029379963874816,-3.019543170928955
2405.635146856308,-177.84767150878906,-68.37447357177734,-39.840965270996094,5.942514419555664,1.4356060028076172,-1.9750289916992188,-118.50670623779295,-20.225446701049805,-128.1266632080078,-7.663400650024414,-13.920703887939451,-4.93170166015625,-162.74412536621094,-74.89886474609375,73.05789184570312,-6.524384498596191,2.3322854042053223,-8.77595329284668,59.914981842041016,-14.987762451171877,32.44837188720703,28.183223724365234,18.40132522583008,2.1309070587158203,154.75942993164062,-68.22200012207031,125.51174926757812,-0.7003593444824219,-0.2159036695957183,-5.046502113342285
2405.639146089554,178.05564880371094,-64.114990234375,-32.75613021850586,-0.3375617265701294,-0.400436520576477,0.1994552612304687,-124.20189666748048,-19.52212905883789,-128.7163848876953,-8.781652450561523,-18.748336791992188,7.832115173339844,-142.99404907226562,-77.27688598632812,57.21315383911133,-10.060434341430664,4.579462051391602,-6.986651420593262,38.02219009399414,-24.22272109985352,43.34111022949219,27.31998062133789,19.17226791381836,-10.811880111694336,150.97323608398438,-68.82392120361328,127.7473373413086,-1.943838596343994,-0.1421989202499389,-4.106303215026856
2405.6651487350464,173.91070556640625,-58.88252258300781,-26.800764083862305,-0.603672981262207,-1.423860788345337,-1.443648338317871,-125.73165130615234,-15.984637260437012,-127.73677825927734,-21.969974517822266,-15.092767715454102,-7.267417907714844,-104.4822998046875,-80.24817657470703,24.52131080627441,2.604604721069336,13.546192169189451,-6.183810234069824,40.7701301574707,-24.188100814819336,42.88471603393555,28.211315155029297,2.12287712097168,0.6388769149780273,146.4988250732422,-69.95792388916016,131.80722045898438,-4.194144248962402,-0.4552379846572876,-2.550044536590576
