Timestamp,D4:22:CD:00:05:5D_EulerX,D4:22:CD:00:05:5D_EulerY,D4:22:CD:00:05:5D_EulerZ,D4:22:CD:00:05:5D_FreeAccX,D4:22:CD:00:05:5D_FreeAccY,D4:22:CD:00:05:5D_FreeAccZ,D4:22:CD:00:05:5E_EulerX,D4:22:CD:00:05:5E_EulerY,D4:22:CD:00:05:5E_EulerZ,D4:22:CD:00:05:5E_FreeAccX,D4:22:CD:00:05:5E_FreeAccY,D4:22:CD:00:05:5E_FreeAccZ,D4:22:CD:00:05:6B_EulerX,D4:22:CD:00:05:6B_EulerY,D4:22:CD:00:05:6B_EulerZ,D4:22:CD:00:05:6B_FreeAccX,D4:22:CD:00:05:6B_FreeAccY,D4:22:CD:00:05:6B_FreeAccZ,D4:22:CD:00:05:6E_EulerX,D4:22:CD:00:05:6E_EulerY,D4:22:CD:00:05:6E_EulerZ,D4:22:CD:00:05:6E_FreeAccX,D4:22:CD:00:05:6E_FreeAccY,D4:22:CD:00:05:6E_FreeAccZ,D4:22:CD:00:49:AA_EulerX,D4:22:CD:00:49:AA_EulerY,D4:22:CD:00:49:AA_EulerZ,D4:22:CD:00:49:AA_FreeAccX,D4:22:CD:00:49:AA_FreeAccY,D4:22:CD:00:49:AA_FreeAccZ
1556.486508846283,-179.74766540527344,-57.88051223754883,-80.19977569580078,-1.9612746238708496,1.5195114612579346,1.631086349487305,-176.76675415039062,-69.2287368774414,-20.26639747619629,0.9529012441635132,-10.878360748291016,22.50052261352539,-66.48658752441406,-14.47255802154541,-75.24414825439453,6.121912956237793,3.4613289833068848,20.75372695922852,-55.96979522705078,-63.18567657470703,-156.3650665283203,-5.290975570678711,1.9770748615264893,12.144481658935549,130.6278533935547,-71.46096801757812,149.0635223388672,-2.489650249481201,-6.524198532104492,10.13588523864746
1556.516187429428,179.4498748779297,-55.73231887817383,-78.99369049072266,-1.4520890712738037,1.854633331298828,2.29178237915039,152.1636505126953,-65.25714111328125,7.75703239440918,0.452796995639801,1.5630464553833008,20.11376190185547,-55.65342330932617,1.6410269737243652,-74.73774719238281,15.69890022277832,-3.583359241485596,29.389881134033203,-56.8349609375,-66.3244400024414,-150.2512969970703,-7.4938154220581055,2.06989860534668,10.936574935913086,145.8195037841797,-70.03488159179688,134.18136596679688,1.5081822872161863,-3.837616443634033,8.611083984375
1556.546187400818,179.59686279296875,-55.16050720214844,-78.28498840332031,-0.8370460271835327,0.7856423854827881,1.1812658309936523,159.36473083496094,-59.91355895996094,0.212058275938034,-3.2258687019348145,3.844146251678467,5.413534164428711,-27.272809982299805,17.686416625976562,-70.71621704101562,14.124378204345703,-14.446382522583008,12.966068267822266,-74.33489990234375,-71.86995697021484,-124.31211853027344,-13.41885757446289,-3.721000194549561,9.707063674926758,151.80859375,-68.90254974365234,127.90084075927734,-0.8259223699569702,-0.4134269952774048,8.398895263671875
1556.6061453819275,-179.5574951171875,-55.71280670166016,-78.0746841430664,-1.5386812686920166,0.7201752662658691,1.5478239059448242,167.58316040039062,-55.13116836547852,-7.705018520355225,-2.9452524185180664,4.828425407409668,-6.632648468017578,1.3183112144470217,28.423259735107425,-58.98800659179688,14.744632720947266,-11.231195449829102,5.068143844604492,-107.70661926269533,-75.07280731201172,-89.0818862915039,-8.723268508911133,-11.160774230957031,7.924318313598633,154.53933715820312,-69.93645477294922,125.576171875,-6.114948272705078,1.1194462776184082,7.179758071899414
1556.6374127864838,-178.4657745361328,-57.55921936035156,-78.00833129882812,-0.5531284809112549,1.3297998905181885,2.4140701293945312,173.6419677734375,-54.208927154541016,-12.71890640258789,-2.165524959564209,5.266419410705566,-15.712690353393556,24.81312561035156,30.647869110107425,-46.80409240722656,-2.179854393005371,-16.81653594970703,11.644205093383787,-129.4207000732422,-77.19868469238281,-65.49102020263672,-3.3394150733947754,-11.591154098510742,5.96480655670166,158.1296844482422,-72.24429321289062,123.32344818115234,-3.980173587799072,2.9292635917663574,2.759047508239746
1556.6664111614227,-177.60169982910156,-61.06250762939453,-77.15845489501953,-2.855185508728028,0.621833086013794,3.0132617950439453,-179.45225524902344,-56.683837890625,-16.975923538208008,-1.2914466857910156,5.219551086425781,-19.40650177001953,47.41936492919922,30.73565673828125,-40.6719970703125,-14.731012344360352,-16.105236053466797,-2.136956214904785,-132.36721801757812,-80.33726501464844,-55.07688522338867,-4.764305114746094,-10.529449462890623,2.794600486755371,165.50296020507812,-74.44196319580078,118.43220520019533,-0.8323445320129395,1.6675937175750732,0.7489585876464844
1556.6965916156769,-177.5782470703125,-65.6540756225586,-73.66189575195312,-1.673604965209961,-4.283705711364746,8.606201171875,-168.71836853027344,-62.27356719970703,-21.82894325256348,0.000153274013428,5.469731330871582,-18.2443962097168,65.52580261230469,31.756175994873047,-37.01733016967773,-12.22417449951172,-8.334867477416992,-11.24793815612793,-131.4195098876953,-83.5621566772461,-46.73870849609375,-5.669929504394531,-10.504644393920898,-0.010782241821289,175.48622131347656,-75.8596420288086,112.22325897216795,1.0033953189849854,0.0909565836191177,-2.867523670196533
1556.725945711136,-178.37705993652344,-71.0635986328125,-71.7537612915039,4.91948127746582,-9.331058502197266,2.752131462097168,-154.6975860595703,-69.53201293945312,-31.80939674377441,3.543280124664306,1.9181044101715088,-13.644657135009766,73.41845703125,33.00918197631836,-34.84040069580078,-4.810588836669922,-0.6359928846359253,-12.603872299194336,-140.05409240722656,-85.89754486083984,-28.347705841064453,-4.088561058044434,-8.650920867919922,-4.323402404785156,-178.78250122070312,-76.32831573486328,108.2141571044922,4.444820404052734,1.0908844470977783,-4.677892684936523
1556.756022691727,175.56336975097656,-73.05603790283203,-72.3398666381836,4.775286674499512,1.2823820114135742,-6.409571647644043,-131.38943481445312,-76.78104400634766,-53.85707092285156,2.561041831970215,-0.3377501368522644,-10.413436889648438,75.04206085205078,35.35325241088867,-35.5055046081543,0.0839209258556366,-0.1885386705398559,-11.017311096191406,-157.87313842773438,-86.86575317382812,-0.1798872500658035,-1.3722813129425049,-8.297920227050781,-7.467955589294434,-179.33132934570312,-77.87043762207031,107.41221618652344,2.424734592437744,-0.0993112474679946,-8.505756378173828
1556.7859613895416,172.30499267578125,-72.25226593017578,-69.0360336303711,5.488436698913574,0.515468955039978,-7.855949401855469,-77.86001586914062,-79.890869140625,-108.01581573486328,0.5508493185043335,-1.513131856918335,-6.981533050537109,74.47021484375,39.92427062988281,-38.79317855834961,1.2947819232940674,1.6664032936096191,-10.897605895996094,-173.3717803955078,-86.50520324707031,24.56564712524414,1.3970389366149902,-7.273442268371582,-9.684595108032228,-179.55787658691406,-80.63508605957031,106.65138244628906,-2.449615955352783,-0.5343246459960938,-10.706892013549805
1556.81654381752,176.22479248046875,-73.16356658935547,-67.93943786621094,5.758125305175781,-4.81223201751709,-10.102312088012695,-34.892181396484375,-73.66682434082031,-154.37120056152344,-4.131692886352539,-4.24317741394043,-2.560248851776123,74.41838836669922,47.21227645874024,-46.11867141723633,4.428431510925293,4.0808210372924805,-7.285477638244629,177.834228515625,-85.19376373291016,39.29560852050781,4.290508270263672,-6.033072471618652,-11.535560607910156,-178.884521484375,-83.7043685913086,107.03103637695312,-2.7959275245666504,-0.0448549166321754,-8.871484756469727
1556.8465557098389,178.16725158691406,-73.40764617919922,-68.16719818115234,-20.652915954589844,14.120645523071287,3.4686403274536133,-25.103099822998047,-64.66719818115234,-174.9185791015625,-15.663030624389648,-8.130998611450195,1.2399930953979492,66.70970153808594,55.18537139892578,-61.49161148071289,3.40967321395874,1.3057522773742676,-10.205684661865234,169.0318603515625,-83.64488983154297,50.12114334106445,4.539568901062012,-4.851040840148926,-11.521894454956056,-174.62301635742188,-86.11234283447266,103.80442810058594,-0.571913480758667,0.3948751091957092,-5.684470176696777
1556.9064853191376,174.2761688232422,-69.76739501953125,-62.79171752929688,0.4598101377487182,-2.469698905944824,-5.983712196350098,-31.28186798095703,-59.58111953735352,175.58853149414062,-33.50672149658203,-2.5260119438171387,-4.484356880187988,42.38212966918945,59.17102813720703,-90.48052215576172,4.539892196655273,-0.1296033859252929,-18.210922241210938,158.46759033203125,-82.06172180175781,60.08956527709961,4.125086784362793,-3.323005199432373,-9.859874725341797,-173.27760314941406,-88.15528106689453,103.0944366455078,-0.3722659349441528,0.0248074792325496,-1.6504640579223633
1556.9369022846222,172.92417907714844,-66.59261322021484,-56.83646774291992,-2.7105369567871094,-0.1164451092481613,0.959064483642578,-38.16197967529297,-62.49477767944336,173.4141387939453,-36.28038024902344,23.923702239990234,-24.953269958496094,14.810884475708008,55.976844787597656,-122.12889099121094,-4.453061103820801,-10.46450424194336,-32.45982360839844,149.48651123046875,-80.67512512207031,68.04438018798828,3.302995204925537,-2.8638243675231934,-6.4177961349487305,161.42628479003906,-88.70502471923828,127.51177978515624,-1.280235767364502,-1.38801908493042,1.850547790527344
1556.965977191925,171.93576049804688,-64.36380767822266,-53.84788513183594,2.885422706604004,2.797551155090332,-0.516204833984375,-44.03452682495117,-68.24864959716797,-177.9727325439453,-9.786336898803713,-8.38577651977539,2.483295440673828,-0.8179736733436584,51.86819076538086,-130.29722595214844,6.597038269042969,6.133606910705566,-9.961368560791016,146.52268981933594,-79.94908905029297,70.11715698242188,3.869232177734375,-3.102345466613769,-0.6206159591674805,104.24362182617188,-88.26449584960938,-178.01022338867188,-2.1642608642578125,-1.391411304473877,1.3029823303222656
1556.9964826107023,169.55824279785156,-63.427642822265625,-52.77012252807617,1.117185354232788,0.7717269659042358,2.8354310989379883,-50.95182800292969,-71.8521957397461,-169.47210693359375,-1.0968725681304932,-0.4017466306686401,8.228382110595703,-13.86002254486084,51.42747116088867,-119.98152160644533,-12.79518699645996,1.8913240432739256,-0.4721288681030273,151.32276916503906,-80.6715087890625,64.56649780273438,5.515598297119141,-3.09922456741333,4.948659896850586,94.3514175415039,-87.45270538330078,-170.37078857421875,-6.079697608947754,-2.945063591003418,5.717574119567871
1557.0265362262726,165.23419189453125,-63.6126823425293,-49.000118255615234,0.4304229021072387,-2.493377208709717,7.487672805786133,-65.85225677490234,-74.12718200683594,-156.44273376464844,-0.0472641587257385,11.211711883544922,-1.5428619384765625,-6.198851108551025,51.91867446899414,-105.02188110351562,-6.395934104919434,-1.6203064918518066,-2.8452634811401367,159.9262237548828,-80.6058578491211,56.30795669555664,5.104226112365723,-2.302675247192383,4.507646560668945,100.72283935546876,-87.26619720458984,-175.9840850830078,-2.013491153717041,-2.088531970977783,8.209476470947266
1557.0559878349304,159.83627319335938,-63.44232940673828,-44.3204231262207,0.0986615270376205,-1.6981635093688965,2.889406204223633,-69.94744873046875,-77.0306167602539,-153.7651824951172,-6.909897804260254,1.4823861122131348,0.2399444580078125,2.36635971069336,45.6989631652832,-84.9053955078125,-8.287630081176758,-0.3239052295684814,-6.739156723022461,161.42808532714844,-78.06385803222656,54.38846206665039,10.32002067565918,-2.693273067474365,8.982337951660156,106.66064453125,-87.23445129394531,176.10818481445312,7.048605918884277,1.3425137996673584,-0.0661554336547851
1557.087152004242,154.52720642089844,-63.34144592285156,-40.58524703979492,2.333865165710449,-0.8002016544342041,7.63878059387207,-63.6046142578125,-79.39910125732422,-160.96990966796875,-7.757732391357422,-2.821702480316162,-0.2950925827026367,4.13387393951416,32.037803649902344,-72.4202880859375,-15.433088302612305,1.9730658531188965,-5.04398250579834,150.89476013183594,-73.3392105102539,58.95023727416992,9.034770965576172,-3.100944995880127,9.701305389404297,130.00015258789062,-86.9374008178711,148.74412536621094,8.77995491027832,0.2798798084259033,1.6495399475097656
1557.1163790225985,147.05255126953125,-64.44573211669922,-39.43645858764648,5.328908920288086,-2.1621341705322266,3.4029760360717773,-55.05901718139648,-80.64451599121094,-170.2853546142578,-6.00514030456543,1.0879511833190918,-2.6916756629943848,2.603416204452514,14.2667818069458,-65.99634552001953,-1.8108000755310056,6.046356201171875,-8.130155563354492,131.0936279296875,-67.95160675048828,63.10008239746094,4.144200325012207,2.0812244415283203,6.58489990234375,152.1702423095703,-86.07953643798828,125.083984375,2.984259605407715,-2.752558708190918,-0.5357093811035156
1557.1466932296753,140.30267333984375,-64.00042724609375,-42.00838851928711,7.1246337890625,2.5502142906188965,3.3700618743896484,-46.70282745361328,-81.37055969238281,179.2814483642578,-3.614816188812256,1.8581297397613523,0.9435586929321288,-4.705255031585693,-6.302060127258301,-59.282264709472656,3.0208778381347656,-0.8892899751663208,-11.965330123901367,110.45350646972656,-65.61119079589844,64.760498046875,4.424764633178711,13.09421157836914,-4.672756195068359,175.3047332763672,-84.37002563476562,100.62055206298828,0.7970200777053833,-3.654561996459961,-0.5152444839477539
1557.2062757015228,138.22767639160156,-60.99102783203125,-50.22729110717773,7.044779777526856,16.339580535888672,6.493379592895508,-32.57583236694336,-81.69144439697266,164.97225952148438,-4.742561340332031,-0.3903713822364807,-0.4007530212402344,-19.57196044921875,-25.78489112854004,-48.55586624145508,12.873258590698242,-5.709765434265137,-4.149284362792969,105.13184356689452,-63.08375930786133,63.94034576416016,-0.1088835597038269,3.167146682739258,-3.660023212432861,-171.96185302734375,-83.24240112304688,88.21250915527344,2.7841992378234863,2.858936309814453,-1.2210140228271484
1557.2361047267914,141.22650146484375,-54.38663101196289,-60.96698760986328,9.519245147705078,15.741132736206056,-0.0776090621948242,-10.033102989196776,-80.55451965332031,145.27171325683594,-4.41645622253418,-1.9954514503479004,-1.5436553955078125,-44.892974853515625,-35.23270797729492,-36.04378128051758,12.686920166015623,7.686176300048828,4.38890266418457,104.38288879394533,-61.54271697998047,62.99885940551758,-6.201655387878418,-2.009918689727783,-0.0947532653808593,-166.47718811035156,-83.40926361083984,83.75920104980469,0.7182611227035522,-0.7741543054580688,1.881741523742676
1557.2664787769318,147.43038940429688,-46.52752304077149,-71.14366912841797,4.7998247146606445,9.496500015258787,-7.515618324279785,12.07004451751709,-78.4555435180664,130.38636779785156,-2.017542839050293,1.420027256011963,-2.9625344276428223,-67.8543701171875,-34.33066177368164,-31.633338928222656,-5.759939193725586,-0.7354187965393066,-4.638477325439453,100.58357238769533,-61.3602294921875,62.62194061279297,-6.996479034423828,2.8393874168396,-4.8284759521484375,-162.32952880859375,-83.61024475097656,80.40449523925781,-1.9015898704528809,0.2889975309371948,-3.2347774505615234
1557.2966675758362,153.85107421875,-38.81747055053711,-79.03754425048828,-1.2885100841522217,4.715895652770996,-10.294349670410156,26.129154205322266,-77.17211151123047,122.55679321289062,-0.7950478792190552,8.303606033325195,-6.256612777709961,-83.3270492553711,-31.23680877685547,-30.481983184814453,-21.02678680419922,-0.4238672256469726,3.175602912902832,99.19181060791016,-61.90600204467773,62.05177688598633,-3.1652331352233887,3.482128143310547,-4.849998474121094,-155.73294067382812,-82.81498718261719,77.06786346435547,-0.6854649782180786,2.5615663528442383,-7.650816917419434
1557.3261914253235,159.932373046875,-31.952301025390625,-84.882568359375,-3.825744152069092,2.8355274200439453,-10.731487274169922,32.39414596557617,-79.2269287109375,116.98413848876952,-4.168972015380859,-4.176356315612793,7.318719863891602,-88.15032196044922,-29.28019905090332,-29.078632354736328,-9.72685432434082,9.038780212402344,0.585230827331543,101.41050720214844,-62.72454452514648,62.62169647216797,-1.8377163410186768,2.611801624298096,-0.3738775253295898,-148.32945251464844,-81.85208892822266,73.95386505126953,2.347529888153076,1.2178914546966553,-5.754359245300293
1557.3562533855438,165.633056640625,-25.975175857543945,-89.84203338623047,-3.811814785003662,1.813474178314209,-7.1512556076049805,48.50323486328125,-82.66641998291016,101.11478424072266,-3.796030044555664,2.6828503608703613,-3.72842025756836,-86.42146301269531,-30.878223419189453,-27.27759552001953,-10.54746437072754,1.423285961151123,-2.6437478065490723,105.0986328125,-62.15958023071289,65.19351959228516,0.5038260221481323,1.3559865951538086,-0.0721168518066406,-143.22080993652344,-81.2789077758789,72.29857635498047,4.920259475708008,0.5406074523925781,-6.448533058166504
1557.3861906528473,169.24281311035156,-22.417295455932617,-93.7574691772461,-6.634029388427734,-4.503547668457031,-8.295806884765625,87.11573791503906,-84.9926528930664,63.884986877441406,-6.456117630004883,-1.7869398593902588,-0.7548360824584961,-79.72811126708984,-36.82247161865234,-23.20081329345703,-7.851831436157227,0.7942204475402832,-6.2253828048706055,107.35041046142578,-59.77803421020508,70.837890625,7.079628944396973,3.958609104156494,-2.894876480102539,-143.42721557617188,-80.18608856201172,74.76432037353516,6.029561996459961,-0.8100486993789673,-2.632899284362793
1557.4162619113922,169.82489013671875,-22.845319747924805,-95.3567123413086,-11.186025619506836,-11.281232833862305,-7.817581176757812,127.3821258544922,-84.55155181884766,24.035593032836918,-6.254152297973633,-0.643909215927124,-1.3314838409423828,-73.56583404541016,-48.4807014465332,-15.413531303405762,0.3784081935882568,-2.358518600463867,-5.97304630279541,106.01451110839844,-57.07099914550781,79.57492065429688,6.022473335266113,2.5769357681274414,-2.9023475646972656,-142.4560089111328,-80.01800537109375,74.00856018066406,10.474349975585938,3.2199816703796387,4.366030693054199
1557.4466280937197,167.37564086914062,-23.712202072143555,-93.333740234375,-17.393512725830078,-7.739181518554687,22.648902893066406,144.40310668945312,-83.24097442626953,6.734045505523682,-5.998472213745117,3.0564541816711426,0.3679332733154297,-76.19440460205078,-65.74774169921875,-1.889637112617493,16.836944580078125,4.511079788208008,26.090229034423828,106.31262969970705,-53.0870475769043,87.56188201904297,2.8657140731811523,0.9089510440826416,-1.5174331665039062,-139.28077697753906,-80.71626281738281,67.80804443359375,1.907425880432129,2.1604442596435547,2.71028995513916
1557.5064795017242,168.3684539794922,-23.26679992675781,-88.83733367919922,-0.3347696661949157,-20.824687957763672,3.628218650817871,144.7258758544922,-82.61180114746094,5.977820873260498,-4.736798286437988,3.3149619102478027,0.7210865020751953,-56.287353515625,-81.50650787353516,-10.875420570373535,10.671274185180664,-2.327719211578369,46.87569427490234,108.05287170410156,-48.38795471191406,93.66495513916016,1.2883338928222656,-7.780119895935059,7.0936279296875,-141.6819305419922,-80.70288848876953,67.95137023925781,-10.180551528930664,-2.4980950355529785,6.276525497436523
1557.5359485149384,176.4989471435547,-21.30799102783203,-83.77459716796875,-3.1229772567749023,-18.46079635620117,10.642145156860352,133.55209350585938,-82.4394302368164,16.74639892578125,-5.376774787902832,2.800075054168701,0.0885286331176757,-16.28445816040039,-79.7263412475586,-37.31074142456055,27.088455200195312,-0.5270748138427734,7.049867630004883,106.16868591308594,-42.93446731567383,96.52144622802734,7.63047981262207,-7.008450508117676,12.347742080688477,-143.14117431640625,-80.2537841796875,69.83077239990234,-0.2923951745033264,1.612257957458496,11.51755142211914
1557.5667889118197,176.33212280273438,-17.908273696899414,-82.97999572753906,-5.1551513671875,-16.81206512451172,14.904836654663086,113.92955780029295,-82.51709747314453,35.90426254272461,-5.7818708419799805,1.4687960147857666,-0.2591609954833984,-45.16828918457031,-67.0576171875,-14.430543899536133,19.1021728515625,-3.2967529296875,16.004901885986328,104.73839569091795,-35.88213348388672,97.8759536743164,8.811309814453125,-6.990406036376953,15.121747970581056,-144.7880096435547,-79.80804443359375,71.63275909423828,6.2002458572387695,-1.1466641426086426,6.49177360534668
1557.596400976181,164.20860290527344,-12.947342872619627,-84.63965606689453,3.050220489501953,-15.355735778808594,13.183570861816406,86.4102783203125,-82.04969024658203,62.80006408691406,-6.042736053466797,1.4306533336639404,0.2106876373291015,-54.59417343139648,-53.19613265991211,-12.605267524719238,1.569416046142578,-7.992551803588867,17.046566009521484,102.8838882446289,-25.46326446533203,94.93455505371094,10.241710662841797,-11.961837768554688,15.627758026123049,-146.5624237060547,-80.63615417480469,73.0350570678711,3.708297252655029,3.288875102996826,4.689216613769531
1557.6262345314026,159.62884521484375,-7.318897724151611,-86.55035400390625,1.347649335861206,-7.278617858886719,10.211153030395508,57.3231086730957,-79.54170989990234,91.12248992919922,-6.0786848068237305,2.0522208213806152,2.3744335174560547,-47.38435745239258,-45.28682708740234,-17.971471786499023,4.839804649353027,-4.9207611083984375,-1.0791072845458984,87.46807098388672,-13.363222122192385,86.38597106933594,14.085668563842772,-3.8803939819335938,22.75752258300781,-150.54739379882812,-81.11661529541016,76.17141723632812,3.911726951599121,2.285214900970459,5.9698486328125
1557.6564898490906,159.5199432373047,-2.389345407485962,-88.26891326904297,0.6875221729278564,-0.212565392255783,4.794156074523926,40.17843246459961,-74.853515625,108.80410766601562,-2.275286674499512,3.348118305206299,8.086708068847656,-43.23384094238281,-41.91934585571289,-23.96009826660156,-1.1063427925109863,-2.257129192352295,-9.100139617919922,68.11565399169922,-0.6412793397903442,75.86083221435547,7.611471176147461,11.057191848754885,19.36530303955078,-153.38795471191406,-82.40425872802734,77.4827880859375,4.738208770751953,3.098771095275879,1.7441034317016602
1557.6871032714844,158.2398681640625,0.6777969002723694,-90.30866241455078,-0.5103214979171753,4.153409004211426,-5.304957389831543,34.404075622558594,-68.78368377685547,118.3821792602539,2.6926169395446777,1.053917407989502,6.870485305786133,-41.91997528076172,-42.30440902709961,-30.96336936950684,-2.599356174468994,-1.5016179084777832,-5.015292167663574,50.19255447387695,8.160715103149414,66.34550476074219,7.669432640075684,8.850221633911133,2.5733861923217773,-165.18118286132812,-83.25160217285156,87.22113800048828,3.608703136444092,2.999345302581787,-1.1659116744995115
1557.7162957191467,156.4493408203125,0.8602067828178406,-92.39254760742188,-3.2811007499694824,5.133367538452148,-17.114036560058594,34.9726448059082,-64.42378234863281,125.76468658447266,-5.262024879455566,4.057554244995117,-8.92441177368164,-39.00307846069336,-44.73775863647461,-39.69655227661133,-1.9887361526489256,-0.4037097692489624,-3.99281644821167,39.71154022216797,13.127891540527344,61.18151473999024,2.708493232727051,5.272574424743652,3.04035758972168,-179.09852600097656,-82.86581420898438,98.41616821289062,0.9238226413726808,0.0315868481993675,-2.138420581817627
1557.7464818954468,155.13681030273438,-2.7041614055633545,-94.09255981445312,-6.535894393920898,2.1458630561828613,-22.88496398925781,30.302499771118164,-65.3917007446289,131.60838317871094,-9.600873947143556,4.2311601638793945,-11.82587432861328,-34.0915412902832,-48.43608093261719,-50.64636993408203,-0.8517234325408936,-0.4915086030960083,-5.891732215881348,30.41855239868164,17.001131057739258,61.30678939819336,-6.839627265930176,8.734968185424805,0.0832843780517578,174.5254669189453,-82.41486358642578,103.08631134033205,-2.7751855850219727,-0.0006077317520976,-5.004970550537109
1557.8061165809631,152.98330688476562,-9.985544204711914,-95.34944152832033,-7.497224807739258,-0.8029191493988037,-20.93360137939453,18.42405891418457,-70.84613800048828,137.58721923828125,-2.314886569976806,-7.447510719299316,-6.826010704040527,-28.78926467895508,-52.69447326660156,-64.01431274414062,-0.7562669515609741,-1.618605375289917,-7.38672924041748,17.25224494934082,22.299983978271484,64.64573669433594,-11.664609909057615,6.871068954467773,-8.206371307373047,169.91592407226562,-82.283935546875,106.99056243896484,-0.3964452743530273,1.2655327320098877,-9.807552337646484
1557.8364799022677,150.52999877929688,-19.921899795532227,-95.52696990966795,-6.874199867248535,-5.17652702331543,-18.80362701416016,-4.07974100112915,-76.02997589111328,145.43138122558594,-5.107385635375977,-0.7885677814483643,-12.181066513061523,-23.808143615722656,-56.47232437133789,-79.29518127441406,-1.5464575290679932,-1.4423813819885254,-7.0406599044799805,5.471517562866211,28.93340492248535,69.14269256591797,-3.5608835220336914,-0.9861491918563844,-12.148309707641602,163.21485900878906,-82.10688018798828,112.1029815673828,1.2286972999572754,1.0578794479370115,-10.922271728515623
1557.8667595386505,150.0094451904297,-31.47234344482422,-93.91795349121094,-5.184024810791016,-7.054964065551758,-14.389850616455078,-33.68778610229492,-79.8508071899414,164.5167236328125,-6.7673187255859375,4.511356353759766,-1.3028974533081057,-16.782901763916016,-58.56438446044922,-96.21292877197266,-2.8191843032836914,0.7369852066040039,-5.93850040435791,-3.291419982910156,35.856422424316406,75.58374786376953,-1.1501317024230957,-2.376126289367676,-10.50039291381836,157.4159393310547,-82.43273162841797,115.82176208496094,0.0279801897704601,0.4410341382026672,-7.802661895751953
1557.8961107730863,149.7348175048828,-44.5625228881836,-89.8010025024414,-1.820549726486206,-5.251778602600098,-6.752327919006348,-64.93665313720703,-81.56869506835938,-167.21981811523438,-4.7368669509887695,-4.657934188842773,-5.319894790649414,-8.121014595031738,-58.73862457275391,-112.80061340332033,-1.4241876602172852,2.434788703918457,-7.735512733459473,-8.733325958251953,43.51256561279297,86.3283462524414,4.409232139587402,0.1073029190301895,-8.40622329711914,153.04844665527344,-82.80996704101562,118.1583023071289,2.28200912475586,-0.3491770625114441,-5.797130584716797
1557.9266781806946,145.38037109375,-58.57474136352539,-81.56403350830078,4.9083251953125,2.1427502632141118,5.430263519287109,-93.5910186767578,-80.6417007446289,-140.18711853027344,-2.9485392570495605,0.8975691795349121,3.3560791015625,-1.3264480829238892,-58.35267639160156,-126.68620300292967,-0.6939774751663208,5.1703386306762695,-7.808586120605469,-5.321376800537109,51.18651580810547,105.8939437866211,-1.253245830535889,3.2179670333862305,-13.12680435180664,148.66725158691406,-83.13724517822266,121.07130432128906,3.142266273498535,-1.4525551795959473,-3.220503807067871
1557.956665277481,128.7192840576172,-71.2393569946289,-60.6674690246582,9.54229736328125,6.113631248474121,10.61296272277832,-106.6011962890625,-78.69373321533203,-129.17234802246094,-4.826904296875,4.1062517166137695,1.7922439575195312,8.254150390625,-58.011077880859375,-141.1025390625,-1.3412024974822998,5.160473823547363,-5.105880737304688,13.2327880859375,54.24637222290039,135.43785095214844,-11.62265396118164,8.106039047241211,-24.52176284790039,149.9258575439453,-83.4035873413086,119.31311798095705,1.780308485031128,-0.8992468118667603,0.5517606735229492
1557.9862837791443,92.41754150390624,-75.91242218017578,-24.49193000793457,7.530838012695312,26.255023956298828,12.56635284423828,-102.33130645751952,-77.40904998779297,-133.83554077148438,-5.974609375,1.2524793148040771,6.73430061340332,18.84859275817871,-56.88749694824219,-157.07113647460938,-3.116091728210449,1.5128545761108398,-2.081611633300781,38.965423583984375,51.77648162841797,159.71429443359375,-7.028399467468262,0.2210084795951843,-21.30866241455078,158.52593994140625,-83.90699768066406,110.63736724853516,4.702857971191406,0.5793849229812622,5.007375717163086
1558.0161483287811,91.63034057617188,-76.13162231445312,-22.995132446289062,15.534345626831056,39.18864440917969,-0.8071498870849609,-91.14358520507812,-76.18334197998047,-144.52658081054688,-6.780789375305176,-0.6760596036911011,9.842105865478516,23.296859741210938,-56.14077377319336,-172.9983673095703,-9.725004196166992,-2.570054531097412,2.0128002166748047,60.22283554077149,52.06167984008789,167.82138061523438,-0.332077145576477,-2.9744739532470703,-8.259265899658203,174.50595092773438,-84.57050323486328,95.8214340209961,5.037693023681641,1.068554162979126,9.964122772216797
1558.0463316440582,121.368896484375,-74.76112365722656,-51.79076385498047,2.633347511291504,-12.076801300048828,1.3657140731811523,-69.75639343261719,-74.52411651611328,-162.35736083984375,-2.5273895263671875,-4.086296081542969,9.499286651611328,16.920974731445312,-58.283329010009766,172.1148223876953,-17.379283905029297,2.060953140258789,8.617725372314453,75.56786346435547,57.83143615722656,164.69180297851562,7.459856033325195,-7.15804386138916,-6.950344085693359,-174.2422332763672,-84.54084777832031,85.89852142333984,3.5118136405944824,0.272327721118927,7.42808723449707
1558.1068904399872,132.83120727539062,-74.0460205078125,-64.79999542236328,8.917032241821289,-19.125640869140625,6.471450805664063,-50.01113510131836,-71.26527404785156,-171.87490844726562,-10.484272003173828,1.6910874843597412,-4.29189395904541,9.852843284606934,-62.09941101074219,159.7610321044922,-2.730853080749512,14.289361953735352,13.397289276123049,87.40357208251953,66.71153259277344,153.83941650390625,-3.338919162750244,-12.50090789794922,-1.6690034866333008,-164.52557373046875,-83.53831481933594,78.75570678710938,-0.7125412225723267,-2.344545364379883,3.0288381576538086
1558.135885477066,144.1747589111328,-72.89013671875,-70.36099243164062,-13.528337478637695,-1.230973482131958,10.790773391723633,-44.817195892333984,-71.11636352539062,-161.14761352539062,-36.19625854492188,4.7396240234375,-0.2306318283081054,17.7762393951416,-65.11116790771484,149.92184448242188,8.472854614257812,15.45096206665039,6.203424453735352,70.89767456054688,73.0016098022461,119.28064727783205,-10.817697525024414,-0.5171598196029663,-5.346807479858398,-158.1833038330078,-81.40582275390625,76.38369750976562,-4.572827339172363,-2.55230712890625,-1.4731740951538086
1558.166030168533,152.65670776367188,-71.58817291259766,-72.82839965820312,-1.3941235542297363,1.6655912399291992,-2.563009262084961,-64.88322448730469,-73.08123016357422,-127.79800415039062,-25.87293243408203,-2.611396312713623,3.0574960708618164,42.89901351928711,-67.83826446533203,144.99954223632812,-0.5608291625976562,14.7930908203125,-4.888191223144531,41.69987487792969,67.86468505859375,81.44786834716797,-10.971872329711914,-2.241231918334961,-1.4775924682617188,-158.55238342285156,-78.57019805908203,81.55015563964844,-6.628480911254883,0.994207501411438,-8.084108352661133
1558.196403503418,160.89219665527344,-71.4629898071289,-76.86994171142578,1.879178524017334,3.65104866027832,-0.84881591796875,-97.85929107666016,-70.74275970458984,-86.58851623535156,-11.291952133178713,-8.583274841308594,-3.6566696166992183,70.63277435302734,-72.30233764648438,149.18136596679688,-11.06301498413086,-1.2778282165527344,-2.306039333343506,25.179670333862305,54.86222457885742,64.50303649902344,-5.095366477966309,-9.367887496948242,-2.6967082023620605,-164.14329528808594,-75.7679214477539,89.4798355102539,0.9026578664779664,-0.4569002985954284,-6.173937797546387
1558.2263598442078,167.49261474609375,-71.34431457519531,-81.22247314453125,-0.9913653135299684,-2.3215794563293457,2.837631225585937,-122.16505432128906,-64.12553405761719,-58.4748420715332,-2.1053924560546875,-6.717970848083496,-16.57217788696289,85.92276763916016,-78.54509735107422,157.40771484375,4.590343475341797,-12.63947296142578,0.9378776550292968,11.88102912902832,38.85920333862305,54.373348236083984,-4.634971618652344,0.2010486721992492,-4.95517635345459,-170.84144592285156,-73.62937927246094,95.94583892822266,6.151116371154785,0.0875466167926788,-0.3647413253784179
1558.256367444992,172.63006591796875,-70.64896392822266,-84.69972229003906,-1.228822946548462,-0.4268650412559509,-0.8755989074707031,-141.53787231445312,-55.38483428955078,-42.197059631347656,0.8489559888839722,1.757978439331055,-21.79882431030273,65.90068817138672,-83.97806549072266,177.52859497070312,5.229909896850586,-9.55751609802246,-4.009950637817383,-3.328418016433716,22.967403411865234,43.639610290527344,15.50950050354004,5.03814697265625,-6.527833938598633,-176.70774841308594,-70.86864471435547,101.16448974609376,-3.8809547424316406,2.8494057655334477,2.5543527603149414
1558.2864713668823,177.263427734375,-69.6849136352539,-88.84272766113281,-1.0635111331939695,-0.1703763306140899,1.0433225631713867,-155.8136749267578,-47.89808654785156,-33.263572692871094,0.7855697870254517,5.253538131713867,-19.767597198486328,9.435977935791016,-85.60372161865234,-137.33412170410156,-10.518072128295898,-3.1565346717834477,-2.0143227577209477,-4.217372417449951,10.614675521850586,33.37088394165039,25.007736206054688,-14.416582107543944,6.6273040771484375,-178.7808837890625,-68.85938262939453,102.64636993408205,-7.006241798400879,1.9312708377838133,4.813608169555664
1558.3163619041443,-179.24053955078125,-69.01346588134766,-92.75749969482422,0.2096832990646362,0.6626689434051514,0.8126068115234375,-167.92584228515625,-43.73139953613281,-27.137426376342773,-1.745154619216919,2.398411273956299,-13.416162490844728,-23.63598251342773,-84.32062530517578,-108.6478271484375,-8.599695205688477,0.3251845836639404,-0.4979896545410156,17.74690818786621,4.322690486907959,25.857728958129883,0.5121645927429199,-10.751604080200195,-10.083696365356444,179.88632202148438,-67.61412811279297,104.41049194335938,-1.8801586627960205,2.475927829742432,0.0917339324951171
1558.346364736557,-176.26962280273438,-68.90092468261719,-96.42192840576172,-0.5257482528686523,0.2645952701568603,0.508453369140625,-177.87953186035156,-44.542701721191406,-21.01074981689453,4.651642799377441,3.7535934448242183,-7.606144905090332,-31.80557632446289,-82.97434997558594,-99.61783599853516,-3.496632575988769,-1.9078588485717771,-0.0704898834228515,34.57620620727539,-0.172577366232872,20.731220245361328,-12.37066650390625,17.81743621826172,-1.7095823287963867,177.01321411132812,-66.78007507324219,107.7260284423828,0.0469600707292556,3.9660701751708975,-0.6499309539794922
1558.4065911769867,-174.04556274414062,-68.81224060058594,-99.246826171875,0.2402268052101135,-0.9726628065109252,0.1290464401245117,175.1681365966797,-50.678199768066406,-13.272717475891112,6.1126251220703125,0.7663801908493042,1.371917724609375,-34.70130157470703,-81.82968139648438,-97.6269073486328,-1.8229424953460691,-1.6012980937957764,0.0656728744506836,34.87127685546875,-3.3487086296081543,15.415194511413574,-1.8336048126220703,-0.91958749294281,-2.0993475914001465,173.201416015625,-66.04466247558594,110.16168975830078,-1.020728588104248,2.177245140075684,-0.24029541015625
1558.436676979065,-173.4606475830078,-68.14910125732422,-100.17555236816406,0.3477848172187805,-1.2132179737091064,-0.2554216384887695,167.5489501953125,-60.10961151123047,-2.734534740447998,14.730648040771484,1.0082879066467283,7.928396224975586,-42.20499420166016,-80.17192840576172,-94.69696807861328,-1.6867735385894775,1.826302528381348,0.4856853485107422,47.865753173828125,-5.684302806854248,14.339247703552246,1.7099010944366455,-5.056110382080078,-8.01284408569336,168.62786865234375,-65.6563720703125,112.07825469970705,-0.4083151221275329,0.4400143027305603,-3.450624942779541
1558.4666776657104,-176.63943481445312,-66.34029388427734,-97.60555267333984,2.650308609008789,-3.85978364944458,-0.858220100402832,161.1387176513672,-67.28728485107422,8.347916603088379,-27.363136291503903,17.807449340820312,33.62206268310547,-49.14520263671875,-77.07258605957031,-92.51615142822266,-1.37562894821167,4.934198379516602,0.2525663375854492,70.76890563964844,-10.883541107177734,19.41427421569824,6.749558448791504,8.171890258789062,-5.999869346618652,165.26480102539062,-65.93083953857422,113.4510269165039,0.665024995803833,-0.834667444229126,-6.63807487487793
1558.496692419052,179.0059051513672,-62.85995101928711,-91.867919921875,1.769822120666504,-2.507981300354004,-1.7502450942993164,158.3820343017578,-67.31369018554688,8.053777694702148,12.706222534179688,4.415043830871582,3.314056396484375,-49.43228530883789,-72.91272735595703,-94.11578369140624,0.6577715873718262,6.042173385620117,-1.9182381629943848,89.25003814697266,-21.28263664245605,30.06995964050293,16.452598571777344,19.90801239013672,12.503650665283203,162.21493530273438,-66.5777587890625,116.74081420898438,-0.767532229423523,-0.8206542730331421,-3.367220401763916
1558.526309490204,175.7034149169922,-58.44618988037109,-86.0472412109375,-4.154872894287109,0.0612763017416,-1.3870124816894531,162.65509033203125,-65.7052993774414,-0.7317915558815002,10.197988510131836,-0.3794913291931152,13.829858779907228,-46.97332382202149,-68.20561981201172,-98.70556640625,8.451738357543945,4.864080429077148,-1.1153478622436523,98.2723388671875,-34.63571548461914,43.47446060180664,8.437286376953125,27.297592163085938,16.968833923339844,156.83407592773438,-68.15669250488281,122.40266418457033,-3.110181331634521,-0.2121906876564026,1.5496740341186523
