Timestamp,D4:22:CD:00:05:5D_EulerX,D4:22:CD:00:05:5D_EulerY,D4:22:CD:00:05:5D_EulerZ,D4:22:CD:00:05:5D_FreeAccX,D4:22:CD:00:05:5D_FreeAccY,D4:22:CD:00:05:5D_FreeAccZ,D4:22:CD:00:05:5E_EulerX,D4:22:CD:00:05:5E_EulerY,D4:22:CD:00:05:5E_EulerZ,D4:22:CD:00:05:5E_FreeAccX,D4:22:CD:00:05:5E_FreeAccY,D4:22:CD:00:05:5E_FreeAccZ,D4:22:CD:00:05:6B_EulerX,D4:22:CD:00:05:6B_EulerY,D4:22:CD:00:05:6B_EulerZ,D4:22:CD:00:05:6B_FreeAccX,D4:22:CD:00:05:6B_FreeAccY,D4:22:CD:00:05:6B_FreeAccZ,D4:22:CD:00:05:6E_EulerX,D4:22:CD:00:05:6E_EulerY,D4:22:CD:00:05:6E_EulerZ,D4:22:CD:00:05:6E_FreeAccX,D4:22:CD:00:05:6E_FreeAccY,D4:22:CD:00:05:6E_FreeAccZ,D4:22:CD:00:49:AA_EulerX,D4:22:CD:00:49:AA_EulerY,D4:22:CD:00:49:AA_EulerZ,D4:22:CD:00:49:AA_FreeAccX,D4:22:CD:00:49:AA_FreeAccY,D4:22:CD:00:49:AA_FreeAccZ
578.9844677448273,176.50628662109375,-52.55948638916016,-92.14730834960938,0.4112846255302429,1.2836368083953855,2.841050148010254,-171.9561767578125,-7.151553153991699,-36.61319732666016,14.375116348266602,-6.994401931762695,-5.837977409362793,-58.69696807861328,-6.756000995635986,-54.59054565429688,3.309633255004883,3.7560958862304688,25.76416015625,81.82605743408203,-33.03559494018555,18.55779838562012,7.923927307128906,6.564186096191406,8.00750732421875,130.4043426513672,-75.49555969238281,148.73709106445312,-2.13752555847168,3.4694738388061523,8.337696075439453
579.0537266731262,156.04730224609375,-61.33219146728516,-93.4383544921875,5.98732852935791,13.457761764526367,-12.314565658569336,110.7153549194336,-66.85639190673828,33.89126205444336,3.224797248840332,3.2140884399414062,19.0434684753418,-69.37676239013672,-22.293590545654297,-70.99345397949219,2.660730361938477,-3.707162857055664,15.073991775512695,40.34903335571289,-78.55345916748047,118.35005950927734,-4.163775444030762,2.260905265808105,10.50364112854004,148.5966796875,-73.76593017578125,136.72100830078125,-4.935093879699707,1.7008981704711914,4.555794715881348
579.083288192749,160.4254913330078,-57.57951354980469,-91.94210052490234,10.542400360107422,-2.549816608428955,-1.0502195358276367,129.33782958984375,-71.50929260253906,20.02395248413086,5.082694053649902,4.552488327026367,17.88068389892578,-62.78348922729492,-11.338873863220217,-69.66150665283203,6.885870933532715,-1.686567783355713,18.678550720214844,76.7812728881836,-80.2499008178711,90.38346099853516,-6.423435211181641,3.510450839996338,4.967455863952637,149.5059356689453,-78.12462615966797,135.3170166015625,1.5155725479125977,1.2940025329589844,0.3933525085449219
579.1137070655823,164.3550262451172,-56.74448394775391,-97.19996643066406,1.290435791015625,-4.066631317138672,4.665835380554199,-171.105712890625,-71.41831970214844,-36.71821212768555,-0.6248308420181274,-4.311703681945801,7.443929672241211,-51.23778533935547,2.4442176818847656,-66.66180419921875,9.07944107055664,-5.563882827758789,19.23504638671875,120.41338348388672,-83.46940612792969,57.58562088012695,-6.89823055267334,1.1381077766418457,3.447864532470703,155.34848022460938,-78.88252258300781,128.93389892578125,1.2288689613342283,-5.152508735656738,4.42299747467041
579.1437067985535,167.5699462890625,-57.1558837890625,-101.05374145507812,0.5948736667633057,0.1529215276241302,0.306192398071289,-153.74000549316406,-66.34429931640625,-52.29243469238281,6.386506080627441,6.008099555969238,4.442471504211426,-33.11875915527344,17.96184730529785,-60.68871688842773,6.944136619567871,-10.359718322753906,8.828079223632812,-174.50881958007812,-83.9693832397461,1.2665265798568726,-3.692648887634277,-5.15285587310791,4.637607574462891,159.6580352783203,-78.15090942382812,124.93107604980467,-1.9537806510925293,-2.412642478942871,3.649240493774414
579.1729764938354,171.1881103515625,-58.3414192199707,-103.83462524414062,-0.2017325162887573,-2.747941493988037,7.126092910766602,-131.31478881835938,-63.761714935302734,-70.35203552246094,1.4036004543304443,7.362828254699707,-1.8378071784973145,-12.275317192077637,30.948802947998047,-50.01521682739258,2.558505058288574,-11.777542114257812,2.4821462631225586,-133.83316040039062,-81.22595977783203,-32.79780960083008,-2.1209444999694824,-7.843779563903809,4.969550132751465,164.37074279785156,-78.89977264404297,121.1672134399414,-2.663292407989502,-1.5939834117889404,4.269905090332031
579.2037372589111,172.72610473632812,-60.25601196289063,-104.97183990478516,0.5889499187469482,1.3315496444702148,2.069766998291016,-111.41770935058594,-60.79530334472656,-88.265380859375,-0.0890197306871414,6.026590347290039,-6.935360908508301,11.20222282409668,39.04360580444336,-38.69124984741211,-1.7178936004638672,-12.697532653808594,-0.1395063400268554,-110.0672378540039,-77.2860336303711,-47.55563354492188,0.4957543015480041,-9.660263061523438,4.890591621398926,174.20181274414062,-79.83397674560547,114.51091003417967,-1.5229909420013428,0.2509974241256714,7.463348388671875
579.2338047027588,173.1986846923828,-63.13365936279297,-105.01304626464844,-0.282684862613678,-0.8268734216690063,5.362565994262695,-92.16062927246094,-58.04103469848633,-106.51293182373048,0.16945281624794,3.4135961532592773,-8.846269607543945,30.318035125732425,43.679176330566406,-30.12510681152344,-6.502494812011719,-10.50925064086914,-2.341765880584717,-93.11810302734376,-73.36209106445312,-53.123905181884766,4.50018310546875,-11.83543586730957,2.203248977661133,-178.38784790039062,-80.79359436035156,110.963134765625,-0.7383607625961304,0.7615745067596436,5.54534912109375
579.2935647964478,172.35826110839844,-66.96546173095703,-104.49439239501952,-4.786139488220215,-2.9126830101013184,7.547958374023437,-72.74435424804688,-54.635841369628906,-126.50454711914062,-2.868317127227783,2.1246471405029297,-7.812687873840332,41.62377548217773,46.14745330810547,-24.28308868408203,-6.088543891906738,-5.313593864440918,-4.574428558349609,-81.64649963378906,-70.3092041015625,-53.27207565307617,4.35633659362793,-9.727249145507812,-4.294325828552246,-168.5384521484375,-81.40003967285156,104.97063446044922,1.1113920211791992,0.2005380392074585,0.4333095550537109
579.3237597942352,164.5027313232422,-71.64131164550781,-101.75983428955078,-2.191768169403076,-1.8076345920562744,-0.8592710494995117,-58.28472900390625,-49.79915618896485,-144.1280059814453,-7.58392333984375,1.3893468379974363,-10.82561492919922,42.40752410888672,47.567604064941406,-21.98675346374512,-2.1799206733703613,4.12711238861084,-4.295441627502441,-74.78532409667969,-68.08654022216797,-50.179931640625,5.10566520690918,-6.192928314208984,-8.43964958190918,-160.35462951660156,-80.80367279052734,100.18907165527344,2.127225875854492,0.4356659054756164,-3.577207088470459
579.3537611961365,156.10418701171875,-73.24801635742188,-92.68295288085938,5.3656816482543945,-2.2893919944763184,-9.091058731079102,-53.49056625366211,-45.305171966552734,-157.09213256835938,-13.327280044555664,-0.185553640127182,-12.187318801879885,37.48501968383789,49.36906433105469,-25.14093971252441,0.2721997499465942,2.245745182037353,-5.668410301208496,-71.33050537109375,-66.73108673095703,-46.996368408203125,6.592983245849609,-4.034212112426758,-11.242731094360352,-154.5140380859375,-80.34648895263672,95.29979705810548,1.5945045948028564,1.1536412239074707,-7.388660430908203
579.3833627700806,145.9625244140625,-75.52823638916016,-78.42253112792969,3.91768741607666,1.379899978637695,-7.547507286071777,-57.12786102294922,-42.2398796081543,-165.52182006835938,-19.501575469970703,0.3011208772659302,-15.307540893554688,30.621252059936523,52.46050262451172,-35.007083892822266,2.4641876220703125,3.3728842735290527,-6.627796173095703,-71.70012664794922,-66.32357025146484,-44.91285705566406,6.80335807800293,-3.0399656295776367,-11.538949966430664,-146.89035034179688,-80.71376037597656,87.98703002929688,0.2396340072154998,0.7689422369003296,-9.129453659057615
579.4158961772919,137.71070861816406,-75.79998016357422,-64.07720184326172,10.413671493530272,5.968087196350098,-2.4102659225463867,-65.88275146484375,-41.85419845581055,-168.55848693847656,-18.23360824584961,7.613075256347656,-19.92774200439453,17.607555389404297,54.75780487060547,-54.36040115356445,2.490236759185791,3.0057835578918457,-9.750123977661133,-75.51898193359375,-66.64031982421875,-43.381866455078125,6.921753883361816,-3.4734621047973637,-8.855648040771484,-137.29429626464844,-81.77935028076172,79.7250747680664,-3.063656806945801,-2.0010223388671875,-8.966629028320312
579.4440491199493,134.0635986328125,-75.7643814086914,-57.86754989624024,-3.204303741455078,2.638112068176269,-0.4523038864135742,-71.36810302734375,-45.28999328613281,-167.7300262451172,-16.982574462890625,12.494100570678713,-18.26997756958008,-4.057997226715088,52.174259185791016,-78.7353515625,2.446577548980713,-4.791168212890625,-18.613243103027344,-80.88540649414062,-67.24457550048828,-42.363861083984375,7.759979248046875,-3.664371967315674,-5.107770919799805,-123.6227798461914,-81.96939849853516,67.92549133300781,-2.4911131858825684,-3.069253444671631,-2.46858024597168
579.4732716083527,128.11441040039062,-75.86558532714844,-53.49850845336914,-2.073662757873535,-3.130462169647217,2.3744211196899414,-76.85626220703125,-50.413177490234375,-162.02529907226562,-10.943716049194336,-5.88510799407959,-3.4503636360168457,-24.67870712280273,43.280574798583984,-99.31324005126952,-14.263921737670898,-19.967517852783203,-24.84743881225586,-85.14704895019531,-67.67625427246094,-42.185157775878906,6.977019309997559,-2.701148509979248,-3.146609306335449,-108.85455322265624,-81.6435317993164,53.18976593017578,0.1454304754734039,-0.8047436475753784,-0.074258804321289
579.5037252902985,122.01087951660156,-75.21253967285156,-46.03646087646485,1.3946053981781006,-1.4818181991577148,2.397064208984375,-81.0171127319336,-55.39939880371094,-156.85150146484375,-7.821066856384277,-9.281972885131836,-3.040127277374268,-28.12090301513672,36.63223648071289,-110.44758605957033,-16.46474838256836,-8.041732788085938,-13.729305267333984,-89.93879699707031,-67.37081146240234,-39.85763168334961,8.1744384765625,-2.5847883224487305,-3.5636348724365234,-103.91625213623048,-81.17323303222656,47.46192932128906,2.1226110458374023,-0.7858355045318604,-1.0345211029052734
579.5338499546051,114.38470458984376,-74.58300018310547,-38.47768020629883,0.7915545701980591,-0.9519517421722412,2.8902549743652344,-87.20758056640625,-58.512020111083984,-151.67001342773438,-5.793023109436035,-4.96572208404541,3.1202869415283203,-30.00446128845215,41.245025634765625,-100.39440155029295,2.6743040084838867,0.7540005445480347,-3.529078960418701,-101.96818542480467,-68.08401489257812,-33.317955017089844,14.80766487121582,-2.9468483924865723,-0.9861335754394532,-109.52909088134766,-81.41863250732422,50.404930114746094,2.0012669563293457,-1.03965425491333,1.1783151626586914
579.5641431808472,104.99505615234376,-73.90541076660156,-31.74381256103516,2.304771423339844,-2.7153139114379883,3.803150177001953,-94.7620620727539,-60.08079528808594,-147.02354431152344,-3.57155179977417,-3.4153833389282227,5.441562652587891,-24.976980209350582,46.736698150634766,-81.18364715576172,-11.588134765625,-13.711496353149414,-9.504627227783203,-119.84515380859376,-71.04463958740234,-25.28501319885254,7.64597225189209,-0.952039122581482,2.7396764755249023,-121.01128387451172,-81.477783203125,57.78431701660156,3.259334087371826,-1.544454574584961,1.3536138534545898
579.6233396530151,92.02208709716795,-73.47071075439453,-23.848485946655277,8.083871841430664,1.2050182819366455,-1.83339262008667,-105.90052795410156,-60.69995880126953,-140.60324096679688,-5.790311813354492,-0.6931954622268677,-0.7856597900390625,-11.35844612121582,46.70433044433594,-57.20611572265625,1.6124014854431152,0.7633154392242432,-16.776226043701172,-137.41551208496094,-74.00416564941406,-16.538028717041016,-1.6613337993621826,4.564830780029297,1.7439651489257812,-129.45346069335938,-80.70140075683594,61.94224166870117,3.974757671356201,-1.1776361465454102,1.3498992919921875
579.6536273956299,89.97411346435547,-74.51411437988281,-32.026458740234375,15.946264266967772,18.08541488647461,-4.268576622009277,-109.6237335205078,-61.05841445922852,-136.25735473632812,-5.112092018127441,-4.047462463378906,2.7149438858032227,-8.500253677368164,41.10268783569336,-36.09285736083984,-5.951643943786621,1.8414397239685056,-9.154241561889648,-147.86708068847656,-75.00602722167969,-15.66538906097412,-3.4002742767333984,8.441370010375977,0.7062110900878906,-135.5304412841797,-79.48150634765625,65.2757797241211,2.819305419921875,2.102350234985352,-0.8484420776367188
579.6839978694916,112.62232971191406,-72.91097259521484,-67.52835845947266,24.4624137878418,12.940231323242188,7.012065887451172,-111.49056243896484,-61.61018371582031,-132.45712280273438,-5.474041938781738,1.505056381225586,-3.5750856399536133,-14.51370620727539,33.286834716796875,-21.971435546875,-8.675085067749023,7.977752685546875,-7.525509834289551,-144.95372009277344,-75.68389892578125,-21.04191017150879,-6.007187843322754,7.307511329650879,3.854305267333984,-139.12033081054688,-78.72894287109375,67.32266235351562,3.543647766113281,2.1218419075012207,-2.412914276123047
579.7140638828278,136.1282958984375,-62.13942337036133,-96.64898681640624,11.039173126220703,4.619791030883789,7.824974060058594,-112.83139038085938,-62.291648864746094,-129.82237243652344,-6.627012252807617,-0.0560429692268371,-0.3095655441284179,-24.99657249450684,25.00655174255371,-10.479259490966797,-5.307674407958984,-3.2658796310424805,1.1961822509765625,-134.34112548828125,-76.57237243652344,-28.413599014282227,-7.601311683654785,-5.819310188293457,2.407855033874512,-143.45831298828125,-77.87782287597656,70.24005126953125,2.289393901824951,1.3987653255462646,-1.3820886611938477
579.7440774440765,147.44798278808594,-48.118770599365234,-111.38912200927734,0.7293437719345093,-2.148221015930176,0.8003463745117188,-114.28357696533205,-62.6228141784668,-128.15017700195312,-6.906686782836914,-0.7050391435623169,-1.1003913879394531,-34.85287857055664,18.32434463500977,-0.8691856265068054,-1.6530520915985107,1.3906900882720947,4.3938093185424805,-125.82720947265624,-77.3499984741211,-35.26066970825195,-4.019686698913574,-7.796561241149902,1.7070655822753906,-147.31045532226562,-77.33133697509766,72.69647979736328,4.211475372314453,3.8984999656677246,0.8854360580444336
579.7978117465973,154.4915313720703,-34.70677185058594,-120.23589324951172,-7.139628410339356,-3.401975631713867,-6.431411743164063,-115.31170654296876,-63.1292610168457,-127.58740234375,-6.50811767578125,-0.408199667930603,-0.7166166305541992,-43.27561569213867,12.987764358520508,6.552002429962158,0.1773067712783813,2.1560134887695312,7.270612716674805,-117.64110565185548,-77.63426971435547,-41.87213897705078,-1.4072022438049316,-5.674826622009277,2.709752082824707,-150.95254516601562,-76.1604232788086,75.0042724609375,3.2766237258911133,2.5782742500305176,6.356115341186523
579.803254365921,159.8114013671875,-24.51004219055176,-125.52664184570312,-5.993643760681152,-2.4125871658325195,-10.852935791015623,-116.89715576171876,-63.5673828125,-127.37001037597656,-5.672852516174316,-1.5806012153625488,0.7704744338989258,-48.11804962158203,7.60128927230835,11.74415683746338,0.2645461559295654,-0.4618924856185913,3.758035659790039,-108.4529266357422,-77.90509796142578,-47.60936737060547,0.0761981159448623,-5.160155296325684,0.9534740447998048,-152.68150329589844,-75.96763610839844,76.13190460205078,1.902055740356445,2.708965301513672,4.446118354797363
579.8339116573334,165.4958953857422,-19.23556900024414,-129.2161865234375,-5.915243148803711,-5.439958572387695,-10.320552825927734,-115.67980194091795,-64.54766845703125,-129.9437713623047,-3.0243911743164062,-3.614177703857422,1.3663177490234375,-52.68940353393555,1.7396783828735352,16.04072380065918,0.3483972549438476,-2.5090394020080566,1.8160648345947263,-99.94853973388672,-78.74339294433594,-50.99073028564453,1.791259765625,-3.385842800140381,-0.3165435791015625,-153.4936065673828,-76.49192810058594,77.1499252319336,2.91618013381958,1.1595606803894043,0.070556640625
579.8938012123108,168.77459716796875,-20.447078704833984,-132.51853942871094,-11.101839065551758,-6.5471038818359375,-13.41008758544922,-111.302734375,-64.66690063476562,-133.8870086669922,-5.962597846984863,-0.6089661121368408,-3.652163505554199,-57.80516052246094,-5.21843957901001,19.903461456298828,0.4511339664459228,-1.3888497352600098,2.2804651260375977,-91.50914764404295,-80.44229125976562,-52.601539611816406,3.011460304260254,-2.029867172241211,-2.324460983276367,-156.58163452148438,-76.57210540771484,80.71603393554688,3.191105365753174,-0.3635140657424927,-1.908428192138672
579.9239115715027,170.61666870117188,-27.655733108520508,-135.16432189941406,-13.795730590820312,-9.169183731079102,-11.931884765625,-112.7819595336914,-62.48724365234375,-132.98202514648438,-7.22349739074707,-4.930605888366699,-2.57045841217041,-59.77836990356445,-14.916608810424805,21.651369094848636,3.523008346557617,2.985970497131348,-0.5473365783691406,-79.62347412109375,-82.8770980834961,-55.69657516479492,3.3946871757507324,-2.0963058471679688,-4.151547431945801,-162.14846801757812,-76.96321105957031,85.689453125,3.917354106903076,-0.516130805015564,-2.6197400093078613
579.9539103507996,171.73370361328125,-32.31201171875,-135.79176330566406,-5.073846817016602,21.02496719360352,41.43058776855469,-113.62633514404295,-60.26446914672852,-130.18060302734375,-6.837719917297363,-4.9216156005859375,-3.334202289581299,-58.21226119995117,-28.034860610961918,21.31356430053711,7.794861793518066,3.086034774780273,0.684443473815918,-58.06976318359375,-85.98126983642578,-68.6508560180664,6.784597396850586,-4.56110954284668,-5.802560806274414,-167.6555633544922,-77.59696960449219,89.9366226196289,1.8189988136291504,-1.444876194000244,-4.524731636047363
579.9838118553162,174.24806213378906,-33.54078674316406,-134.06884765625,-1.525667428970337,-7.515281677246094,-9.668203353881836,-115.44671630859376,-58.960235595703125,-126.67889404296876,-3.3754115104675293,9.742067337036133,-8.716962814331055,-52.92267227172852,-44.070579528808594,19.95533943176269,16.711502075195312,6.89344596862793,7.922761917114258,54.92024612426758,-87.12635803222656,-178.65191650390625,12.66683578491211,-9.757217407226562,-3.077847957611084,-169.9365997314453,-77.58552551269531,92.72735595703124,-4.311697006225586,-0.9578884840011596,-8.018705368041992
580.0139632225037,-178.5058135986328,-33.88976287841797,-133.5366668701172,-6.96617317199707,-4.512772560119629,1.804469108581543,-117.47932434082033,-59.18684768676758,-124.58950805664062,-3.9744715690612793,6.582054138183594,-7.901556968688965,-43.97587203979492,-55.97040557861328,17.019920349121094,12.65151023864746,17.55074691772461,21.89706039428711,81.41120147705078,-78.16651153564453,147.32177734375,8.315937042236328,-7.264700889587402,6.455743789672852,-168.2265167236328,-77.93487548828125,92.19444274902344,-2.023943424224853,1.962977409362793,-0.8396425247192383
580.0433025360107,-176.25863647460938,-33.80417251586914,-132.68682861328125,-9.810115814208984,-2.801147937774658,1.0567617416381836,-121.28691864013672,-58.33010482788086,-121.30443572998048,-10.084087371826172,-14.913726806640623,9.041419982910156,-35.11424255371094,-57.37001800537109,15.035099029541016,9.611188888549805,6.65605354309082,1.9769906997680664,72.83061981201172,-64.09900665283203,144.0681915283203,10.966991424560549,3.227022647857666,16.15444564819336,-163.59751892089844,-78.49967193603516,87.48019409179688,3.050729751586914,3.767580032348633,-2.980226993560791
580.0735771656036,-178.87937927246094,-31.668354034423828,-131.23370361328125,-1.9355149269104004,-19.526973724365234,5.774423599243164,-124.5197296142578,-56.67081451416016,-117.85372924804688,-8.062271118164062,2.712479591369629,-5.932568550109863,-33.160030364990234,-53.065338134765625,17.796859741210938,14.903608322143556,5.395237922668457,2.750701904296875,56.57809829711914,-45.91999816894531,150.42645263671875,17.800716400146484,-0.270861268043518,15.65315055847168,-164.06654357910156,-76.79278564453125,86.9872055053711,-0.0928320735692977,-2.2511744499206543,-1.5246706008911133
580.1033234596252,178.9070587158203,-26.927215576171875,-128.76934814453125,-16.30841827392578,-17.210533142089844,14.512399673461914,-125.98968505859376,-55.54452133178711,-116.7042999267578,-7.883312225341797,-1.133183240890503,-2.3751606941223145,-38.85211563110352,-46.581844329833984,19.929536819458008,14.56011962890625,0.9952235221862792,-0.1788835525512695,39.90388107299805,-26.51204490661621,157.4090118408203,13.712579727172852,19.01895523071289,2.7171859741210938,-166.16839599609375,-74.5723876953125,89.25770568847656,3.121750831604004,-1.9413378238677976,10.029272079467772
580.1337299346924,172.93336486816406,-22.15195655822754,-126.22002410888672,-3.482147216796875,-16.450294494628906,-2.538116931915283,-126.77536010742188,-54.358665466308594,-116.64434814453124,-5.24193000793457,-0.231674313545227,0.423924446105957,-47.1512336730957,-41.35271453857422,17.474498748779297,10.689407348632812,-5.900063514709473,-0.5443410873413086,38.10541534423828,-4.041600704193115,160.42333984375,3.965835094451904,0.9192873239517212,15.722070693969728,-165.94650268554688,-74.80015563964844,89.70474243164062,6.13780689239502,4.593266487121582,5.08358097076416
580.1934463977814,172.25543212890625,-17.37466049194336,-125.71485137939452,-11.674585342407228,-7.29554557800293,0.3740453720092773,-127.79405975341795,-53.54466247558594,-116.78453063964844,-5.070086479187012,-0.3845826387405395,0.1226768493652343,-54.75942993164063,-40.09927749633789,10.48172092437744,4.939826965332031,-9.03277587890625,1.9654455184936523,29.87195587158203,18.23383140563965,158.60569763183594,-8.192865371704102,-4.73060417175293,12.861446380615234,-165.95489501953125,-74.84158325195312,88.2148666381836,0.6786988973617554,3.0448951721191406,-0.1356220245361328
580.2235567569733,165.60206604003906,-18.050827026367188,-126.292236328125,-7.233737945556641,-2.722804546356201,-6.990456581115723,-128.9630889892578,-53.0571403503418,-117.26184844970705,-6.224388122558594,0.0813269764184951,-0.8352441787719727,-59.74069595336914,-43.21208953857422,2.1358821392059326,-0.2211599349975586,-7.8486480712890625,3.8536911010742183,21.684823989868164,36.90053176879883,151.10104370117188,-10.27743911743164,-5.776362419128418,7.766260147094727,-169.00634765625,-74.26676177978516,89.26441955566406,3.213139533996582,2.825295925140381,5.509106636047363
580.2538688182831,162.23440551757812,-23.96211814880371,-127.5842742919922,-4.522056579589844,-1.6393375396728516,-9.883014678955078,-130.01589965820312,-52.86378479003906,-118.36111450195312,-6.311671257019043,-1.2444007396697998,-0.5752525329589844,-63.896278381347656,-50.31120681762695,-6.252908229827881,-0.7965564727783203,-4.491867065429688,4.605920791625977,15.262432098388672,50.86861801147461,137.79400634765625,-9.680627822875977,-8.82900619506836,1.479029655456543,-171.86773681640625,-74.33712768554688,90.3701171875,3.223139762878418,3.535778045654297,5.004308700561523
580.2834458351135,160.53977966308594,-35.00579833984375,-129.8075408935547,-5.643198013305664,-2.536200523376465,-10.268928527832031,-129.32958984375,-54.06972885131836,-121.10169982910156,-5.7011919021606445,-1.0738370418548584,-0.0674619674682617,-68.13101196289062,-60.51357269287109,-13.630009651184082,-5.2359161376953125,-4.834087371826172,6.932794570922852,9.922133445739746,58.82244873046875,120.46111297607422,1.3093242645263672,-6.407259941101074,-2.0343589782714844,-175.17019653320312,-74.47332000732422,91.86329650878906,0.7296124696731567,3.949990749359131,4.411066055297852
580.3134567737579,159.41175842285156,-50.97579193115234,-133.0435333251953,-7.817400932312012,-2.454700469970703,-5.29965877532959,-127.0980453491211,-56.30077362060547,-125.2978515625,-5.7002458572387695,-1.3112857341766355,0.2304067611694336,-70.56845092773438,-72.95674896240234,-18.40769386291504,-8.632001876831055,-1.773557424545288,5.979960441589356,9.778680801391602,61.14667510986328,109.78311920166016,3.0588927268981934,-4.311043739318848,-3.5530948638916016,-179.8795623779297,-74.65918731689453,94.56561279296876,0.7256003618240356,2.976250648498535,2.906492233276367
580.3444480895996,163.24777221679688,-70.70709228515625,-140.7884521484375,-5.266330718994141,-0.8251851797103882,6.540719985961914,-123.46046447753906,-58.68253326416016,-130.56724548339844,-5.432031631469727,-2.4972448348999023,0.0605745315551757,-96.79319763183594,-85.69297790527344,2.0313990116119385,-8.40583610534668,1.1943233013153076,3.650310516357422,11.495630264282228,60.96150970458984,113.42881774902344,9.8837890625,-0.3526198267936706,-3.86115312576294,176.82669067382812,-74.3488540649414,96.45238494873048,2.637267589569092,2.6205334663391118,-0.3064537048339844
580.3737988471985,-80.93281555175781,-84.49886322021484,103.38223266601562,2.0648322105407715,7.488956451416016,28.77102279663086,-119.19529724121094,-60.38505554199219,-136.0215606689453,-6.012764930725098,-2.684311389923096,-2.57436752319336,134.566162109375,-80.20050048828125,123.64044189453124,-8.211662292480469,6.0023193359375,2.133827209472656,21.039087295532227,57.64875030517578,130.11843872070312,10.014028549194336,-0.5135272741317749,-5.0302839279174805,174.67678833007812,-74.24358367919922,97.49836730957033,2.799531936645508,1.3075668811798096,-3.9418153762817374
580.4034390449524,-30.181283950805664,-68.02228546142578,58.80421447753906,22.3637809753418,16.952613830566406,15.706338882446287,-115.18734741210938,-61.31543350219727,-140.9662628173828,-5.364812850952148,-1.8473918437957764,-3.644633293151856,124.51112365722656,-68.68634033203125,128.08636474609375,-6.256303787231445,5.52409553527832,-0.2230205535888672,41.32026290893555,47.831275939941406,152.4330596923828,-7.54539680480957,2.6693406105041504,-22.406742095947266,173.2927703857422,-74.76557159423828,98.349365234375,0.3863365650177002,-0.2486772537231445,-5.467090606689453
580.4340362548828,-19.879751205444336,-64.78113555908203,53.694244384765625,8.619930267333984,24.051559448242188,-32.815948486328125,-112.50279235839844,-61.44029235839844,-144.48797607421875,-1.9803681373596191,-0.2528682351112366,-5.104488372802734,121.06739807128906,-59.12772750854492,126.69470977783205,-5.334774971008301,7.393848419189453,-1.8156991004943848,47.2838249206543,34.7383918762207,169.7685546875,-63.639442443847656,-3.855825424194336,-17.00798797607422,175.09776306152344,-76.03750610351562,98.25777435302734,-2.430356979370117,-3.525475025177002,-6.576828956604004
580.4936373233795,-8.999094009399414,-71.51556396484375,46.144630432128906,8.439970016479492,10.426790237426758,-13.535186767578123,-112.24090576171876,-60.39263534545898,-145.84739685058594,-7.17631721496582,-2.4470157623291016,-5.130240440368652,117.36722564697266,-52.85636520385742,124.76287078857422,-3.555148124694824,8.237586975097656,-5.916577339172363,40.68425369262695,37.64614868164063,170.58892822265625,24.65746688842773,15.30167007446289,-10.841104507446287,179.8426055908203,-76.09684753417969,95.3696517944336,2.83790922164917,-3.147594928741455,-5.3286638259887695
580.5240075588226,22.91685676574707,-80.26190948486328,18.33701705932617,7.814626693725586,8.99819564819336,2.771693229675293,-112.1670150756836,-58.87571334838867,-146.4324493408203,-6.6904497146606445,-1.1591923236846924,-3.565239429473877,113.82234191894533,-50.3159294128418,122.63726043701172,-2.494979858398437,5.983351707458496,-10.184171676635742,52.727386474609375,47.34176635742188,156.5503692626953,-13.816375732421877,0.2953774929046631,-14.361000061035156,-179.82176208496094,-77.00387573242188,95.44300842285156,4.711923599243164,4.787949562072754,-2.5375752449035645
580.5540099143982,99.55291748046876,-80.55140686035156,-50.754207611083984,5.975069046020508,-8.142572402954102,1.467076301574707,-110.23239135742188,-57.0743522644043,-148.39028930664062,-9.300636291503906,-2.617070198059082,0.4318122863769531,111.37663269042967,-50.93744659423828,119.27361297607422,-3.095212936401367,7.367989540100098,-6.299975395202637,48.60374450683594,56.85536193847656,128.87887573242188,-7.51425838470459,1.4190521240234375,-14.35472297668457,-177.26669311523438,-77.85195922851562,94.1961441040039,1.974607229232788,-1.527937650680542,-2.5852036476135254
580.583664894104,125.79345703125,-76.08241271972656,-69.67252349853516,0.5857902765274048,-16.899181365966797,-6.82036018371582,-104.64566802978516,-55.52214431762695,-152.14752197265625,-6.815247535705566,-4.586176872253418,2.479001998901367,111.62429809570312,-52.49395751953125,115.4487762451172,-2.6339845657348637,11.36203384399414,-5.451404571533203,34.26472091674805,57.773094177246094,93.17079162597656,-3.7330732345581055,-0.5765752792358398,-9.522045135498049,-174.00086975097656,-77.86933898925781,93.20711517333984,2.727536678314209,0.079397827386856,2.452220916748047
580.6137783527374,138.5091094970703,-76.01069641113281,-80.5464096069336,8.128889083862305,5.48565673828125,7.656476974487305,-95.64510345458984,-53.4741439819336,-157.2250213623047,-7.235166549682617,-5.987109184265137,-6.704681396484375,117.4431610107422,-52.14906311035156,112.66204833984376,-2.337944507598877,12.267538070678713,-1.5573253631591797,24.29831314086914,50.388710021972656,69.97614288330078,4.888822555541992,-1.9128541946411133,-7.427674293518066,-175.55441284179688,-77.3815689086914,96.9304428100586,4.347262382507324,0.3813440203666687,2.5604248046875
580.6437783241272,151.34371948242188,-76.48798370361328,-95.6300811767578,-1.7872793674468994,-8.452415466308594,5.953991889953613,-90.83236694335938,-49.799537658691406,-154.9464569091797,-15.542287826538086,1.898487329483032,-3.540043830871582,124.45182800292967,-51.54426956176758,111.09712982177734,-1.282461643218994,10.309167861938477,1.1458654403686523,16.555381774902344,40.228294372558594,58.062721252441406,7.607266426086426,-0.4245128631591797,-8.217693328857422,-175.99057006835938,-75.74591827392578,99.20711517333984,0.9107247591018676,-5.229799270629883,0.3553876876831054
580.6737823486328,161.8617401123047,-74.16773223876953,-101.01199340820312,-6.556892395019531,4.733798027038574,0.5659418106079102,-88.96981811523438,-46.87570571899414,-143.94337463378906,-34.803855895996094,15.790582656860352,-7.64942455291748,130.03933715820312,-53.92829132080078,109.4197998046875,2.5470972061157227,6.502060890197754,1.6781234741210938,12.07632541656494,29.32198905944824,51.310035705566406,10.085054397583008,-5.759470939636231,-5.281743049621582,-179.16917419433594,-73.2273178100586,103.79069519042967,-4.398228645324707,-3.1082491874694824,-0.3147640228271484
580.7044177055359,169.44944763183594,-71.4217300415039,-105.42945861816406,-2.6122045516967773,-0.5891185998916626,1.9317426681518557,-98.4818878173828,-43.62677383422852,-126.05146026611328,-18.34363174438477,-2.923307418823242,-5.764410972595215,136.21731567382812,-58.95515441894531,107.8714828491211,4.550234794616699,-4.570534706115723,-1.6623430252075195,14.45556640625,19.46528625488281,45.56314849853516,15.746150970458984,-7.560439109802246,1.1203241348266602,177.23745727539062,-71.55074310302734,110.58175659179688,-6.993919372558594,-0.8512741327285767,-1.2448205947875977
580.7336630821228,174.34353637695312,-68.60125732421875,-110.02874755859376,0.7063400745391846,-0.3565282821655273,-0.7390518188476562,-108.1756820678711,-41.079566955566406,-109.63289642333984,-8.322668075561523,-2.870763301849365,-13.14128875732422,141.55970764160156,-64.19794464111328,107.40079498291016,2.101233959197998,-6.446264266967773,-2.268897533416748,27.659942626953125,13.783858299255373,41.44063949584961,13.153671264648438,-11.970354080200195,-1.632062911987305,175.15219116210938,-71.67620086669922,115.31173706054688,-0.4500435590744018,2.1452770233154297,-4.103296279907227
580.7937409877777,176.8860626220703,-65.97769165039062,-111.92062377929688,2.7592782974243164,-0.7295955419540405,0.758845329284668,-119.16455078125,-38.53571701049805,-94.67771911621094,-1.1928014755249023,1.1818814277648926,-12.35723114013672,139.40281677246094,-69.13340759277344,108.79490661621094,-0.0748796463012695,-5.376341819763184,3.671693801879883,41.5120964050293,11.293898582458496,41.1649284362793,-3.4500155448913574,1.5233166217803955,-2.8631744384765625,174.45655822753906,-72.0212173461914,116.80323028564452,1.3554010391235352,1.747124195098877,0.4912433624267578
580.8536958694458,177.8361358642578,-63.92139053344727,-111.6927490234375,0.3759476542472839,1.201057195663452,1.3331947326660156,-129.30221557617188,-36.552467346191406,-82.34605407714844,2.0815229415893555,3.1652727127075195,-11.856910705566406,134.76296997070312,-73.37083435058594,108.26055145263672,-6.463308334350586,-4.622401237487793,0.7445459365844727,47.32482147216797,9.663761138916016,42.43511199951172,-1.8030965328216555,-4.65233325958252,-2.096196174621582,171.2745819091797,-72.9125747680664,120.09514617919922,-4.781405448913574,2.380009174346924,6.915182113647461
580.8587601184845,177.75694274902344,-62.51711654663086,-111.03792572021484,-0.9167759418487548,0.9792144298553468,0.2612504959106445,-139.427734375,-36.39207458496094,-72.953857421875,-1.7814514636993408,2.3476815223693848,-8.15219497680664,137.2604522705078,-76.51741027832031,105.2796630859375,-5.003989219665527,-2.8943963050842285,-0.2191295623779297,54.46126937866211,7.243549823760986,45.90475082397461,-0.305826187133789,-6.517392158508301,-5.543180465698242,164.30194091796875,-75.05059814453125,126.56407928466795,-4.9695587158203125,-0.3949562907218933,2.8220701217651367
580.884307384491,177.43667602539062,-61.92873001098633,-111.59524536132812,-0.3498556613922119,-0.0531985387206077,0.6679210662841797,-148.8162384033203,-38.74645614624024,-65.11333465576172,2.0304322242736816,-2.1327390670776367,-4.4923906326293945,141.51651000976562,-79.42344665527344,101.5839385986328,-2.300419330596924,-1.2595341205596924,0.0212612152099609,64.95929718017578,1.6288130283355713,52.28272247314453,-1.2071619033813477,0.4709789156913757,-5.801229476928711,155.8865966796875,-77.38243103027344,135.97633361816406,-2.7470531463623047,-0.0559873133897781,-2.1501011848449707
580.914475440979,175.82835388183594,-61.89217758178711,-111.81241607666016,-0.2797785401344299,0.0483165681362152,0.0077419281005859,-154.42431640625,-43.75912094116211,-59.85643768310547,10.865205764770508,-2.3227086067199707,-2.993496417999268,143.50538635253906,-83.0167465209961,97.27533721923828,-1.3855116367340088,-0.0493360757827758,0.2017688751220703,72.0215835571289,-10.242046356201172,58.9600715637207,0.9016400575637816,7.685774803161621,0.4864320755004883,143.58177185058594,-79.07518768310547,148.69236755371094,-1.1305763721466064,1.373552322387695,0.587681770324707
580.9528589248657,173.6641845703125,-60.49217224121094,-110.0631332397461,1.6573820114135742,-1.2434186935424805,-1.0062541961669922,-147.32127380371094,-50.96017837524414,-58.74947738647461,-8.083681106567383,9.863468170166016,22.88338851928711,173.57379150390625,-88.44204711914062,63.06507110595703,-3.221561908721924,5.080745697021484,1.7389373779296875,70.83696746826172,-27.669017791748047,67.21113586425781,14.158775329589844,20.196269989013672,15.003656387329102,123.67619323730467,-79.83786010742188,167.8843231201172,0.6891694068908691,1.057628154754639,-4.2711591720581055
580.9740514755249,172.09854125976562,-58.21509552001953,-107.81672668457033,0.6970119476318359,-1.3467345237731934,-1.2946853637695312,-137.0289306640625,-53.50656509399414,-60.53302383422852,7.951761245727539,-9.422454833984377,5.224728584289551,-56.76326751708984,-81.82524108886719,-69.29563903808594,-2.186837673187256,4.655711174011231,4.628534317016602,64.463623046875,-44.77156448364258,78.86033630371094,14.424179077148438,24.971614837646484,19.47445297241211,106.43485260009766,-79.06378936767578,-176.09425354003906,-0.0032678712159395,2.7755584716796875,-7.222597122192383
581.0036771297455,171.19100952148438,-55.20797729492188,-105.6706771850586,-0.4234220385551452,-0.2127485573291778,-0.0113306045532226,-138.8357391357422,-53.19255065917969,-63.02086639404297,0.6429146528244019,-13.169857025146484,3.8757190704345694,-55.99627685546875,-69.3211669921875,-73.91075134277344,-2.16148042678833,2.373708724975586,4.8145856857299805,77.99351501464844,-55.73517227172852,82.67015838623047,9.90646743774414,6.671444892883301,6.048521995544434,101.31537628173828,-78.02042388916016,-171.66494750976562,-0.5407280921936035,0.8879921436309814,-2.9253129959106445
581.0337495803833,170.96595764160156,-52.31607437133789,-104.17971801757812,0.1310997307300567,0.7366421222686768,0.7295627593994141,-142.04547119140625,-51.27761459350586,-66.10164642333984,-1.001331806182861,-9.53481101989746,12.042058944702148,-57.14635848999024,-54.76985168457031,-75.83380126953125,-6.521974563598633,6.40083122253418,9.245735168457031,90.75244140625,-57.47168350219727,78.43062591552734,2.7102208137512207,-4.774157524108887,8.508455276489258,105.47657775878906,-77.60220336914062,-175.4046630859375,-0.2175299525260925,-0.4320201277732849,2.943170547485352
581.0935122966766,171.55575561523438,-50.35189437866211,-103.5161361694336,-1.709782361984253,1.581401824951172,2.05226993560791,-142.4667205810547,-49.30337524414063,-66.65912628173828,-4.027207374572754,-15.333026885986328,8.826272964477539,-57.04238510131836,-39.79623794555664,-76.43709564208984,-1.1103148460388184,9.542871475219728,8.722389221191406,85.66329193115234,-54.50740814208984,75.44646453857422,-0.441995620727539,8.472116470336914,6.0777788162231445,109.9383316040039,-76.95799255371094,-179.67445373535156,-1.3080165386199951,0.0535398423671722,10.233867645263672
581.1236448287964,173.09197998046875,-49.83195877075195,-104.25027465820312,-1.9334361553192136,1.4575819969177246,1.843827247619629,-142.57716369628906,-47.21516036987305,-64.84538269042969,0.4367170333862304,-14.73253059387207,9.509662628173828,-57.007774353027344,-22.95326042175293,-75.24735260009766,3.439962863922119,14.21445655822754,17.60760498046875,79.02234649658203,-51.39542007446289,70.8212661743164,11.26345443725586,14.718090057373049,8.538192749023438,111.73084259033205,-76.00267028808594,176.96514892578125,-0.953016757965088,1.026879072189331,6.26556396484375
581.1539244651794,175.8331756591797,-50.65583801269531,-106.62606048583984,-1.3859686851501465,1.640212059020996,1.698805809020996,-144.0758819580078,-46.44186401367188,-65.19792938232422,1.6629161834716797,-9.977649688720703,3.2327394485473637,-54.400978088378906,-3.896528720855713,-72.85100555419922,12.414365768432615,9.84222412109375,22.8191032409668,79.42012786865234,-51.06928634643555,66.98627471923828,8.047769546508789,5.287096977233887,5.0498809814453125,117.83565521240234,-75.62501525878906,169.69686889648438,-2.8949341773986816,-2.317628860473633,4.574511528015137
581.1832640171051,178.6822967529297,-52.70000076293945,-109.65113067626952,0.4854998588562011,1.5596325397491455,2.300234794616699,-148.33413696289062,-46.37034606933594,-64.95368957519531,-0.7540643215179443,-2.565681934356689,6.491722106933594,-46.75785827636719,16.049882888793945,-69.61734771728516,10.604951858520508,-5.420169830322266,18.10360336303711,87.38899993896484,-55.63114929199219,64.70411682128906,5.914063453674316,1.4552881717681885,-0.8988332748413086,129.75234985351562,-75.13567352294922,158.63873291015625,-4.949343681335449,-2.683256149291992,4.389444351196289
581.2135870456696,-179.04766845703125,-56.138614654541016,-112.33860778808594,0.8972148895263672,0.7595294713973999,2.363780975341797,-146.37701416015625,-48.740325927734375,-68.01866912841797,-0.3644615411758423,-0.9327603578567504,1.7020540237426758,-34.69976043701172,33.056610107421875,-62.86458969116211,-4.579419136047363,-6.685112953186035,8.052465438842773,101.1622085571289,-64.60200500488281,65.06035614013672,-0.943134903907776,1.5960664749145508,1.6608600616455078,143.19740295410156,-73.41316986083984,147.43173217773438,-3.852423667907715,-1.2336292266845703,6.075600624084473
581.2536377906799,-176.9484405517578,-60.70813751220703,-114.09393310546876,0.0809148102998733,0.2763922810554504,3.560070037841797,-140.53607177734375,-53.10141372680664,-74.47150421142578,0.3056886792182922,0.2587774395942688,-2.9916887283325195,-19.87023162841797,43.47749710083008,-52.75488662719727,-14.044189453125,-3.976360321044922,0.4956655502319336,119.61654663085938,-76.79547882080078,58.20762252807617,-5.916110038757324,-1.3008391857147217,5.72086238861084,150.8837127685547,-72.35910034179688,142.44400024414062,-2.6589460372924805,0.2062186300754547,2.8227109909057617
581.2737243175507,-176.33872985839844,-65.25843811035156,-115.00482940673828,-6.01841926574707,-3.454139232635498,6.620330810546875,-130.09759521484375,-58.8599739074707,-84.51782989501953,0.4036151170730591,2.311051368713379,-5.127298355102539,-5.282195091247559,49.152828216552734,-44.44809722900391,-10.733598709106444,-3.451245784759521,-6.981253623962402,-166.57264709472656,-83.2702865600586,-4.196234703063965,0.6678274869918823,-6.723015785217285,4.381648063659668,159.7988739013672,-72.2672119140625,137.0282745361328,-1.0293738842010498,-0.1452796161174774,-1.1186275482177734
581.3332371711731,-179.937744140625,-70.18006896972656,-117.29706573486328,-9.138856887817385,-7.258129119873047,-0.6384258270263672,-115.44996643066406,-64.140380859375,-99.46953582763672,1.6378960609436035,3.960959911346436,-5.061582565307617,6.123758316040039,53.1044807434082,-40.49604034423828,-7.790764808654785,2.886516571044922,-9.74431037902832,-106.72470092773438,-78.30606079101562,-49.624908447265625,4.471186637878418,-7.175703048706055,-1.212977409362793,170.94334411621094,-71.96913146972656,129.51901245117188,0.8799214363098145,0.0092325378209352,-3.814300060272217
581.3412435054779,174.19879150390625,-71.18743133544922,-112.43606567382812,1.1995244026184082,0.6954537630081177,-10.465774536132812,-96.54972839355467,-67.06986236572266,-119.43855285644533,-0.7421292066574097,6.210241317749023,-4.831910133361816,8.348701477050781,55.76845932006836,-43.7376708984375,-2.0860629081726074,4.999056816101074,-10.430259704589844,-85.69977569580078,-74.00614166259766,-58.8232650756836,2.685093879699707,-7.333943367004394,-8.333406448364258,179.29483032226562,-70.35102844238281,123.35885620117188,3.0147900581359863,2.168330192565918,-8.198919296264648
