Timestamp,D4:22:CD:00:05:5D_EulerX,D4:22:CD:00:05:5D_EulerY,D4:22:CD:00:05:5D_EulerZ,D4:22:CD:00:05:5D_FreeAccX,D4:22:CD:00:05:5D_FreeAccY,D4:22:CD:00:05:5D_FreeAccZ,D4:22:CD:00:05:5E_EulerX,D4:22:CD:00:05:5E_EulerY,D4:22:CD:00:05:5E_EulerZ,D4:22:CD:00:05:5E_FreeAccX,D4:22:CD:00:05:5E_FreeAccY,D4:22:CD:00:05:5E_FreeAccZ,D4:22:CD:00:05:6B_EulerX,D4:22:CD:00:05:6B_EulerY,D4:22:CD:00:05:6B_EulerZ,D4:22:CD:00:05:6B_FreeAccX,D4:22:CD:00:05:6B_FreeAccY,D4:22:CD:00:05:6B_FreeAccZ,D4:22:CD:00:05:6E_EulerX,D4:22:CD:00:05:6E_EulerY,D4:22:CD:00:05:6E_EulerZ,D4:22:CD:00:05:6E_FreeAccX,D4:22:CD:00:05:6E_FreeAccY,D4:22:CD:00:05:6E_FreeAccZ,D4:22:CD:00:49:AA_EulerX,D4:22:CD:00:49:AA_EulerY,D4:22:CD:00:49:AA_EulerZ,D4:22:CD:00:49:AA_FreeAccX,D4:22:CD:00:49:AA_FreeAccY,D4:22:CD:00:49:AA_FreeAccZ
2428.6505496501923,-168.51663208007812,-77.3077163696289,-121.4706573486328,2.6130380630493164,-6.86568546295166,-3.375515937805176,-113.86033630371094,-15.784881591796877,-150.20925903320312,-13.450666427612305,5.5645599365234375,2.021988868713379,-17.6899471282959,-19.12152099609375,-82.03302764892578,-29.828807830810547,4.807949066162109,-4.196963310241699,131.0940399169922,-36.802490234375,22.372896194458008,6.0111083984375,-1.2019822597503662,-2.5457262992858887,-167.9530792236328,-70.40156555175781,112.0570068359375,2.578360080718994,1.4250283241271973,-2.6230931282043457
2428.653557777405,-169.58489990234375,-77.02728271484375,-115.92928314208984,-0.8022581338882446,-3.2274169921875,5.622573852539063,-111.19601440429688,-12.52422046661377,-142.9764404296875,-22.868881225585938,3.796051025390625,-15.789682388305664,-14.582505226135254,-15.955069541931152,-74.05791473388672,8.206659317016602,-4.056255340576172,-12.931291580200195,131.23146057128906,-36.94081115722656,19.09278678894043,7.817768096923828,-3.1992383003234863,4.510404586791992,-166.60427856445312,-73.14309692382812,109.32843017578124,-0.5315003395080566,0.4958652853965759,-1.4655494689941406
2428.6565577983856,-170.84669494628906,-77.34742736816406,-110.67359924316406,-6.519835472106934,-0.3238465785980224,7.902416229248047,-118.3675765991211,-6.866736888885498,-132.14541625976562,-17.059223175048828,-8.23478889465332,-15.007232666015623,-24.749435424804688,-11.663869857788086,-59.801605224609375,-3.9150595664978023,-15.338865280151367,-7.950436592102051,127.1821517944336,-37.70083999633789,12.782599449157717,7.414695739746094,-10.47707748413086,9.477048873901367,-172.6327667236328,-74.06375885009766,110.76624298095705,-4.904119491577148,1.7415153980255127,1.9250240325927732
2428.76509809494,-174.3333740234375,-53.53311920166016,-50.66934967041016,-2.4615378379821777,0.2125666141510009,1.6729717254638672,136.744384765625,-66.630615234375,-91.10538482666016,0.0488965883851051,6.230531692504883,22.22906494140625,-57.09904098510742,4.030636787414551,-63.54910659790039,-7.35276985168457,4.902137756347656,22.57013320922852,-84.3477554321289,-72.57247924804688,-114.56477355957033,-9.121448516845703,-2.4288330078125,10.337076187133787,88.2894515991211,-77.07106018066406,-157.91522216796875,-4.644885063171387,-6.79135799407959,5.792601585388184
2428.7680974006653,-179.70687866210938,-49.96587371826172,-45.890419006347656,-2.5114893913269043,1.0095088481903076,2.3925466537475586,149.64378356933594,-61.891727447509766,-101.86595153808594,5.331486701965332,-3.3493881225585938,19.285419464111328,-55.54838180541992,17.584598541259766,-53.149227142333984,8.957422256469727,-7.097038269042969,32.08409118652344,-134.88641357421875,-73.7230224609375,-60.84412384033203,0.1446972787380218,0.1643356680870056,10.9615478515625,-179.25743103027344,-82.38444519042969,111.98969268798828,1.3574106693267822,1.0035998821258545,10.201671600341797
2428.8254051208496,178.63583374023438,-48.94807815551758,-43.486572265625,-0.587527871131897,0.4903003573417663,3.131366729736328,164.56044006347656,-59.26057434082031,-116.42575073242188,12.393129348754885,-5.541535377502441,7.423124313354492,-36.54713821411133,27.46054458618164,-37.757301330566406,2.780160903930664,-18.08165740966797,20.04105758666992,-150.10260009765625,-69.70980834960938,-36.730281829833984,0.3324005007743835,-7.759092330932617,13.691520690917969,-162.28675842285156,-81.30127716064453,96.86405181884766,4.960302352905273,1.5967614650726318,9.540916442871094
2428.8554055690765,179.2096710205078,-49.90304183959961,-42.19375991821289,-0.6982549428939819,-1.7488362789154053,1.3868389129638672,-170.31219482421875,-56.95605850219727,-139.0247039794922,13.704391479492188,-8.066923141479492,-0.6446723937988281,-12.833333015441896,30.498201370239254,-20.301862716674805,-3.593575954437256,-16.71643829345703,2.3638925552368164,-160.00144958496094,-74.62258911132812,-17.853090286254883,-3.034842014312744,-4.992415428161621,13.321435928344728,-178.1155242919922,-80.39127349853516,114.03919982910156,0.2404856383800506,0.4958617091178894,3.871939659118652
2428.8853986263275,-179.3553466796875,-52.329856872558594,-42.2069091796875,-2.912344455718994,-1.223254680633545,2.6899490356445312,-147.94056701660156,-52.0473861694336,-164.75282287597656,8.675819396972656,-3.352624893188477,-9.123493194580078,3.4891374111175537,29.460723876953125,-5.110974311828613,-11.241046905517578,-16.1937255859375,-2.3658971786499023,-169.46295166015625,-77.47126770019531,-0.0465909764170646,-8.854185104370117,-13.656745910644531,3.625742912292481,-177.65283203125,-79.11329650878906,115.38846588134766,-2.913619041442871,2.78501033782959,5.549948692321777
2428.914952993393,-178.21885681152344,-56.75445938110352,-42.34544372558594,-1.8639719486236568,-1.118703842163086,4.235994338989258,-130.86631774902344,-46.44253158569336,174.45046997070312,2.083730697631836,-5.2716169357299805,-14.889541625976562,16.776653289794922,29.371023178100582,4.662435054779053,2.9207444190979004,-13.219806671142578,-4.136561393737793,-170.419189453125,-78.80644989013672,5.4038615226745605,-1.3130247592926023,-9.844215393066406,1.009807586669922,-168.51678466796875,-78.4870834350586,109.46773529052734,-3.766948699951172,0.3503663539886474,7.528890609741211
2428.945191860199,-177.87428283691406,-63.71242904663086,-38.32910537719727,0.7562142610549927,-4.106759071350098,9.425874710083008,-110.99333953857422,-42.60733413696289,154.53395080566406,0.5875731706619263,-2.718235492706299,-12.510293960571287,31.461143493652344,32.73113250732422,8.501972198486328,7.087289810180664,-2.639054298400879,-7.097159385681152,-151.79844665527344,-78.38322448730469,-6.758225917816162,0.2797651886940002,-13.046005249023438,-7.794613838195801,-155.91775512695312,-79.68341827392578,100.2803192138672,-0.8268289566040039,3.115532398223877,3.029829978942871
2428.975274562836,-178.81809997558594,-72.72341918945312,-35.69263458251953,5.91580867767334,-3.1903576850891118,4.358172416687012,-90.86202239990234,-39.82426834106445,136.13656616210938,2.497762680053711,2.938958644866944,-17.916946411132812,39.46474456787109,37.00154495239258,10.602439880371094,8.379228591918945,-5.864532470703125,-6.005910873413086,-137.94541931152344,-72.9684066772461,-18.841020584106445,5.799485206604004,-9.754743576049805,-7.571008682250977,-140.34872436523438,-79.61952209472656,88.29560089111328,-0.8504270315170288,0.0123493131250143,-3.478204727172852
2429.005289077759,178.03855895996094,-76.79423522949219,-36.74803161621094,-1.1553971767425537,9.153202056884766,-7.234355926513672,-78.28186798095703,-38.89162826538086,122.00643920898438,5.362102508544922,5.246273994445801,-19.455081939697266,47.15366363525391,43.290260314941406,8.460865020751953,4.802691459655762,-2.238557815551758,-7.07987117767334,-131.51698303222656,-67.4673843383789,-22.95901107788086,4.385268211364746,-5.625213623046875,-9.694116592407228,-135.52890014648438,-77.97480773925781,85.90559387207031,2.525289535522461,0.7211301326751709,-10.71159553527832
2429.034823656082,176.85301208496094,-73.74301147460938,-32.03945541381836,-0.7219654321670532,7.047991752624512,-6.426200866699219,-76.44224548339844,-40.702186584472656,112.2923583984375,4.377259254455566,7.965029716491699,-15.17177391052246,49.02047348022461,51.34818649291992,-0.8851527571678162,3.637356758117676,8.088396072387695,-5.284934997558594,-128.79750061035156,-65.06693267822266,-23.150989532470703,5.509084701538086,-6.548150062561035,-10.545495986938477,-142.9126434326172,-75.39897918701172,94.91426849365234,3.03999662399292,2.549531936645508,-11.62315559387207
2429.0648345947266,-179.97779846191406,-71.67086029052734,-30.883100509643555,8.201171875,-0.7289271354675293,-14.08612823486328,-80.46186828613281,-44.26832580566406,104.84686279296876,8.37122917175293,11.206260681152344,-11.065170288085938,31.703174591064453,57.41840362548828,-22.678295135498047,5.045450210571289,9.424762725830078,-6.631647109985352,-128.66249084472656,-65.92949676513672,-21.03635025024414,4.111248970031738,-5.569509506225586,-9.27623176574707,-146.92283630371094,-74.77003479003906,99.93567657470705,1.0374956130981443,0.5888192653656006,-6.670688629150391
2429.124364376068,-174.7607421875,-73.22057342529297,-36.22031021118164,-11.314733505249023,-0.9276645183563232,-6.203499794006348,-88.23255920410156,-47.805789947509766,100.35906219482422,12.390336990356444,10.414468765258787,0.2201051712036132,1.1050384044647217,56.01200485229492,-58.983882904052734,2.668501377105713,-0.9962157011032104,-17.51650619506836,-131.5152130126953,-68.58696746826172,-15.374068260192873,3.3011131286621094,-4.915417671203613,-9.379627227783203,-143.3777618408203,-76.06670379638672,97.86448669433594,-4.654911041259766,0.931647777557373,-6.442188262939453
2429.155364274978,-175.3611602783203,-72.35050964355469,-37.07828903198242,1.5897419452667236,0.4831976294517517,-3.3318262100219727,-84.14706420898438,-50.67486953735352,96.57408142089844,18.029247283935547,8.529922485351562,-3.37701416015625,-19.63501739501953,43.32065582275391,-90.47689056396484,-8.585229873657227,-29.359657287597656,-34.358001708984375,-139.7570037841797,-70.73828887939453,-7.646786212921143,4.745596885681152,-4.553542137145996,-6.330474853515625,-134.05921936035156,-77.06892395019531,91.54210662841795,-0.9679133892059326,0.7792123556137085,-6.713401794433594
2429.1853637695312,-174.9716796875,-72.03300476074219,-35.012847900390625,4.714879035949707,-5.35091495513916,2.5869874954223637,-81.8639907836914,-53.37027359008789,98.5112762451172,11.031299591064451,16.49665069580078,-6.003037452697754,-9.003640174865723,37.24961853027344,-111.44489288330078,-19.648029327392575,1.4709491729736328,-22.49799346923828,-148.7053985595703,-72.60575866699219,0.0899109840393066,8.037101745605469,-2.050752639770508,-2.143289566040039,-125.8319091796875,-77.851318359375,85.9687271118164,2.558811664581299,0.8806866407394409,-0.6353025436401367
2429.214903116226,-177.26187133789062,-72.15367889404297,-31.22606468200684,5.419795989990234,-4.146191596984863,0.9378452301025392,-96.30509948730467,-54.79924392700195,109.91776275634766,19.38949966430664,21.189353942871094,-0.9496679306030272,-11.022192001342772,38.50236511230469,-105.80138397216795,4.468337059020996,6.838663101196289,-10.18248176574707,-152.1184539794922,-74.07379913330078,5.058701038360596,6.765409469604492,-0.0726468414068222,0.6455268859863281,-124.99591827392578,-78.26083374023438,84.44390106201172,2.466498851776123,3.0843563079833984,2.0598506927490234
2429.2449040412903,-178.3517303466797,-72.41515350341797,-26.545467376708984,1.3858778476715088,-0.0324137359857559,4.583183288574219,-111.57850646972656,-53.51911544799805,119.19009399414062,-24.411300659179688,1.7759578227996826,0.6481294631958008,-7.68580436706543,40.92235565185547,-84.38068389892578,-19.219051361083984,-16.072345733642578,-14.78410530090332,-152.77220153808594,-72.70435333251953,8.234402656555176,10.205480575561523,-2.764434337615967,-0.1867551803588867,-124.95114135742188,-79.51988220214844,80.72614288330078,-1.6641662120819092,-1.1360385417938232,-1.169097900390625
2429.274902820587,179.13949584960938,-73.75074005126953,-23.915796279907227,1.7625768184661863,-1.046642541885376,4.634989738464356,-114.07849884033205,-55.684513092041016,121.16564178466795,-9.350563049316406,11.717679977416992,2.895750999450684,5.512581825256348,37.802032470703125,-61.983665466308594,0.1078059673309326,-8.73093032836914,-11.799768447875977,-163.23208618164062,-68.38137817382812,13.18231201171875,16.007102966308594,-3.4423322677612305,-0.7395601272583008,-135.34104919433594,-80.6263198852539,86.60466766357422,-1.5117146968841553,-1.857005596160889,4.409278869628906
2429.304918050766,172.90916442871094,-75.13626098632812,-18.62844657897949,3.874582290649414,-0.9206889867782592,1.6277151107788086,-116.30297088623048,-57.57002639770508,123.07125091552734,-4.020936965942383,3.585237503051758,4.935364723205566,11.91181182861328,28.51222419738769,-45.88156509399414,-7.641178131103516,-5.774284362792969,-3.091257095336914,179.69036865234375,-64.02793884277344,17.312524795532227,11.830577850341797,1.6326115131378174,3.335391044616699,-147.5640411376953,-80.6272201538086,95.28214263916016,-0.8959265947341919,-2.9562673568725586,4.970576286315918
2429.3354461193085,164.15830993652344,-75.55138397216797,-10.88869285583496,1.021076202392578,-1.5030207633972168,3.495525360107422,-119.41311645507812,-59.49591445922852,125.30998229980467,-2.3882360458374023,6.213925361633301,-2.8133444786071777,18.3485050201416,17.452558517456055,-35.95515823364258,-0.6188474893569946,3.036330223083496,-3.075417995452881,165.1215362548828,-61.199745178222656,20.62751579284668,7.335443496704102,5.427829742431641,2.836008071899414,-158.18019104003906,-80.60344696044922,102.27364349365234,3.124793529510498,-2.967079162597656,1.2247095108032229
2429.3654460906982,152.0714569091797,-76.43607330322266,-2.6417720317840576,3.348137855529785,-1.1909840106964111,3.7987213134765625,-118.59532165527344,-62.60744857788086,125.71270751953124,-1.2272844314575195,6.302450180053711,-3.675481796264648,16.56831169128418,6.050657749176025,-27.38718032836914,-2.904580593109131,10.376888275146484,2.613924026489258,152.49530029296875,-59.33980178833008,23.056581497192383,5.973849296569824,4.162152290344238,-0.5143356323242188,-168.033447265625,-79.62665557861328,107.78268432617188,2.9608216285705566,-1.4627501964569092,2.7195186614990234
2429.4255299568176,136.63552856445312,-76.00955963134766,6.61482048034668,2.1022605895996094,1.7286529541015625,3.725265502929688,-116.15768432617188,-65.12020874023438,125.6447982788086,-6.787508010864258,7.534736633300781,2.106387138366699,3.2204010486602783,-4.746613502502441,-18.47927474975586,-0.7685871124267578,23.720787048339844,-3.4069714546203613,144.25247192382812,-57.98981094360352,25.834083557128903,1.9162349700927732,6.025021553039551,-2.8253793716430664,-172.06600952148438,-77.41027069091797,107.78659057617188,4.710846900939941,-1.0629899501800537,0.8608188629150391
2429.45452451706,129.79534912109375,-72.62039947509766,3.2245092391967773,-18.681964874267575,14.940744400024414,5.599153518676758,-118.08708953857422,-65.88809204101562,128.79022216796875,-0.9183279275894164,5.847315788269043,-3.5718913078308105,-24.00735855102539,-14.171008110046388,-9.675093650817873,-3.9579381942749023,-2.204807758331299,-7.267243385314941,140.12692260742188,-57.65310287475586,28.775314331054688,-3.968128681182861,1.3298211097717283,-3.566582679748535,-173.98614501953125,-75.32878112792969,106.28475189208984,4.356103897094727,0.508708119392395,-2.83642053604126
2429.4855246543884,133.0918731689453,-64.50547790527344,-11.72861099243164,-3.379455089569092,22.11869430541992,9.23543930053711,-118.27996826171876,-65.78031921386719,131.3869171142578,-1.016262769699097,4.314910888671875,-1.020604133605957,-35.37027740478516,-20.318248748779297,-4.086437702178955,-3.972002029418945,-2.0440635681152344,9.793817520141602,137.04757690429688,-58.79301071166992,31.50372886657715,-3.363500595092773,2.3857383728027344,-2.829202651977539,-174.73654174804688,-74.85697174072266,103.38445281982422,1.264585256576538,2.6438708305358887,-3.76851224899292
2429.5150780677795,139.0802764892578,-53.15553665161133,-24.406089782714844,1.5700984001159668,12.738885879516602,1.8185234069824217,-118.48802947998048,-64.85900115966797,134.57826232910156,-3.1807074546813965,5.117220878601074,-3.2550840377807617,-38.7027702331543,-25.59527969360352,-1.1812667846679688,-1.9010887145996092,8.952754974365234,-6.332729339599609,137.927978515625,-61.69343185424805,34.20092010498047,-1.7939741611480713,2.2759828567504883,-0.4037408828735351,-174.7036590576172,-74.11809539794922,100.63172149658205,0.7640178203582764,2.305877208709717,3.3525609970092773
2429.5450773239136,144.82139587402344,-41.5966796875,-34.56785583496094,2.3353347778320312,3.689549446105957,-6.208330154418945,-119.0536117553711,-62.84585571289063,138.32537841796875,-3.433739185333252,6.476184844970703,-4.450090408325195,-48.82583618164063,-32.22341537475586,1.5973800420761108,-1.926997184753418,3.3090896606445312,-2.49898099899292,142.83041381835938,-64.624267578125,37.23933792114258,-1.5271916389465332,-0.5380884408950806,0.4875755310058594,-173.6226348876953,-73.30513763427734,99.20230865478516,0.919209122657776,1.81947660446167,2.3632593154907227
2429.575078010559,150.55819702148438,-30.970157623291016,-42.45956039428711,3.0474343299865723,-1.8293769359588623,-12.946956634521484,-120.0811767578125,-59.04212951660156,142.65164184570312,-1.703200340270996,8.853099822998047,-5.080595970153809,-59.37705993652344,-41.93023300170898,5.212510585784912,2.263916015625,-0.247772216796875,-0.5851030349731445,147.33966064453125,-66.24447631835938,41.48422622680664,0.8530741930007935,-2.1883506774902344,-1.3096857070922852,-172.9038848876953,-74.2181396484375,98.38475036621094,1.5627930164337158,1.813753366470337,-4.068812370300293
2429.6050918102264,157.299072265625,-22.850528717041016,-48.47771072387695,0.9825897216796876,-0.9287372827529908,-14.99626922607422,-127.53312683105467,-52.592681884765625,148.52444458007812,2.551486015319824,4.074825286865234,-2.318892002105713,-70.72943115234375,-57.60478973388672,11.69473361968994,11.13791275024414,-1.0721302032470703,12.598949432373049,146.31704711914062,-66.12175750732422,49.227569580078125,5.256896018981934,-6.621607780456543,1.1269769668579102,-172.981201171875,-74.8567123413086,98.01175689697266,3.268153190612793,-0.0370940119028091,-5.690396308898926
2429.6346187591557,160.84237670898438,-18.967086791992188,-53.99763488769531,1.313631296157837,-4.1918535232543945,-11.826765060424805,-134.59576416015625,-45.14836502075195,152.04759216308594,-2.14209508895874,6.263749122619629,-0.3160200119018554,-69.50013732910156,-76.00714874267578,14.12688159942627,-5.623719215393066,11.407787322998049,39.41320037841797,133.9036407470703,-63.33283233642578,62.9083251953125,5.062445640563965,-2.066986560821533,1.5138931274414062,-173.3906707763672,-76.10116577148438,97.47382354736328,1.8257067203521729,-1.030876398086548,-5.171756744384766
2429.66461968422,157.730224609375,-19.77088928222656,-58.56396865844727,-0.2479516267776489,-10.31667137145996,-15.403467178344728,-139.06480407714844,-39.55284881591797,153.707275390625,-2.3414530754089355,5.543381690979004,0.4321966171264648,-23.871170043945312,-82.2970199584961,-17.876995086669922,0.5257549285888672,-6.116087913513184,10.147592544555664,119.26153564453124,-57.31252670288086,78.94078826904297,6.984340667724609,2.557382583618164,0.5998630523681641,-173.5726776123047,-78.2406234741211,96.30950927734376,0.8847223520278931,2.3725180625915527,-5.073244094848633
2429.7253267765045,151.39527893066406,-25.273605346679688,-61.05583953857422,4.697819709777832,-14.163028717041016,-11.833786010742188,-141.62664794921875,-36.46897888183594,154.92657470703125,-1.714984893798828,5.468880653381348,1.7299718856811523,-27.04231834411621,-75.18627166748047,-5.64568567276001,21.01799774169922,8.903120040893555,5.601556777954102,110.03591918945312,-46.904632568359375,94.42498779296876,9.866048812866213,-3.9619083404541016,6.018760681152344,-174.14022827148438,-80.14059448242188,95.61433410644533,1.9691479206085205,4.553244590759277,0.3808441162109375
2429.75543999672,151.6750946044922,-28.0507755279541,-62.91748428344727,4.902237892150879,-22.742374420166016,36.400672912597656,-143.06703186035156,-36.010765075683594,156.26223754882812,-1.6550769805908203,5.717375755310059,0.3305158615112304,-47.48226165771485,-62.62685775756836,8.459179878234863,21.718231201171875,-4.645097732543945,12.411483764648438,101.95238494873048,-34.18183898925781,106.5730209350586,17.12310028076172,-1.9158833026885984,7.478681564331055,-174.209228515625,-82.14067840576172,94.7623291015625,-0.3391314744949341,0.6233780384063721,0.4241237640380859
2429.78443813324,153.3448486328125,-24.03838157653809,-59.51156234741211,7.294097900390625,-20.83050537109375,20.27720642089844,-143.91464233398438,-37.35638427734375,157.19961547851562,-0.9800810813903807,6.596230506896973,0.0827713012695312,-62.23312759399414,-49.7602767944336,9.752656936645508,10.361516952514648,-0.4648637771606445,11.408811569213867,93.83609008789062,-20.24815368652344,116.98713684082033,22.760433197021484,-2.365959644317627,12.132522583007812,-177.67518615722656,-80.92179870605469,96.64484405517578,3.9293947219848633,-1.7016444206237793,8.422067642211914
2429.8149869441986,159.21437072753906,-15.83833122253418,-56.86403274536133,12.865890502929688,-16.614662170410156,10.081960678100586,-144.1332550048828,-39.9945068359375,156.85536193847656,-1.2085888385772705,6.698637008666992,-0.0691537857055664,-66.47197723388672,-40.94438171386719,3.8266561031341553,5.373764991760254,-0.0169613361358642,8.025421142578125,83.609375,-4.2517290115356445,124.47828674316406,22.478893280029297,12.579256057739258,8.873003005981445,179.08396911621094,-79.46965026855469,97.96145629882812,-2.1736059188842773,-0.0496605560183525,11.54410171508789
2429.8449869155884,159.58389282226562,-8.95067024230957,-57.602333068847656,5.228503227233887,-17.878433227539062,9.616901397705078,-144.21385192871094,-43.55937576293945,154.76828002929688,-0.525740385055542,9.253087997436523,-0.5626821517944336,-65.68279266357422,-37.6524543762207,-3.202415227890014,3.37458610534668,-2.6176795959472656,-1.5661039352416992,69.66895294189453,12.920148849487305,128.92210388183594,9.093883514404297,18.2102165222168,11.866167068481444,178.46487426757812,-79.50941467285156,98.67870330810548,-0.8488785028457642,3.429887294769287,7.609457015991211
2429.8749871253967,156.2620391845703,-4.919297695159912,-58.99684524536133,0.4848514199256897,-10.537261962890623,2.23367977142334,-143.64442443847656,-48.33621597290039,150.26083374023438,-2.985414981842041,8.953657150268555,3.1507225036621094,-66.07888793945312,-39.84161758422852,-9.020508766174316,0.6986864805221558,-0.4942823052406311,-2.0269598960876465,53.3270263671875,24.70887565612793,129.57852172851562,5.579524993896484,7.961501121520996,7.276924133300781,175.99562072753906,-77.9365463256836,101.32720947265624,7.969314575195312,4.375899314880371,8.85542106628418
2429.9050011634827,156.7463836669922,-4.324270725250244,-59.81074523925781,-2.048624038696289,-3.2939939498901367,-4.666611671447754,-132.02340698242188,-57.18159484863281,140.4464569091797,-4.9566650390625,2.6268086433410645,0.5226755142211914,-68.74658203125,-45.47210693359375,-14.47516918182373,-1.7359514236450195,1.5580923557281494,0.82171630859375,45.09285736083984,30.65962028503418,128.32119750976562,-1.6850624084472656,-2.141690731048584,9.71128273010254,171.665771484375,-77.11689758300781,103.87384796142578,7.731075286865234,3.8730502128601074,5.892457962036133
2429.9345331192017,159.1594696044922,-7.71045970916748,-60.2821044921875,-5.353379249572754,-0.8136394023895264,-10.230403900146484,-125.6549072265625,-60.06148910522461,137.84893798828125,10.885614395141602,3.6087374687194815,-5.178886413574219,-71.14903259277344,-52.14531326293945,-20.41114997863769,-5.361246109008789,1.639261245727539,0.8911361694335938,40.78683471679688,33.81378555297852,129.2228240966797,0.0102150999009609,-5.798871040344238,-2.965874195098877,162.6831512451172,-76.67631530761719,109.23162078857422,-0.094414547085762,1.832667350769043,3.2726144790649414
2429.965534210205,159.72581481933594,-15.015076637268066,-60.73672103881836,-4.398052215576172,-2.45210599899292,-18.93463134765625,-130.12396240234375,-57.74630737304688,142.21510314941406,2.639129638671875,2.9971094131469727,-2.633331298828125,-70.69085693359375,-58.612396240234375,-26.3149471282959,-7.974200248718262,4.122010231018066,-4.497133255004883,42.33452224731445,35.49066925048828,133.30056762695312,-0.623572587966919,-1.4519710540771484,-7.597907066345215,153.57582092285156,-75.6110610961914,115.23020935058594,-3.201723098754883,-0.0597240030765533,-1.874794006347656
2430.0250747203827,158.9547119140625,-25.8790340423584,-61.121124267578125,-3.737260341644287,-6.956558227539063,-21.25086975097656,-135.02081298828125,-54.47671508789063,145.53720092773438,-11.938995361328123,-1.1802940368652344,-15.86672019958496,-67.05595397949219,-63.72945785522461,-31.255495071411133,-5.957614898681641,5.595978736877441,-7.820910453796387,50.145938873291016,37.42897033691406,140.2066650390625,-3.7261900901794434,0.3578096032142639,-8.054458618164062,148.53665161132812,-74.41154479980469,119.22216796875,-2.7613511085510254,-1.4350318908691406,-6.209866523742676
2430.055067062378,157.49964904785156,-39.815040588378906,-61.71603775024414,-1.4848029613494873,-10.110815048217772,-15.760576248168944,-136.9342803955078,-56.01667785644531,145.3523712158203,6.573311805725098,-0.8023674488067627,-11.736835479736328,-63.66960906982422,-66.29281616210938,-33.94496154785156,-4.671031951904297,5.171304702758789,-9.03177261352539,60.04815673828125,39.27742767333984,150.54750061035156,-4.259380340576172,0.924950122833252,-11.104736328125,150.13365173339844,-73.85733032226562,119.83490753173828,-3.988624572753906,-0.4423762559890747,-9.862842559814451
2430.085074186325,154.45384216308594,-57.026344299316406,-61.4718132019043,-2.0289864540100098,-7.8502302169799805,-4.003351211547852,-136.71946716308594,-55.72658920288086,145.65554809570312,-1.1274774074554443,6.785686492919922,2.995835304260254,-60.87107849121094,-67.14363861083984,-34.360260009765625,-3.5806260108947754,4.312777519226074,-8.842613220214844,70.58638000488281,38.55648040771485,163.6754913330078,-5.400321960449219,-2.3330698013305664,-12.761131286621094,152.56204223632812,-74.19306945800781,120.85629272460938,-2.143355369567871,0.0505006834864616,-10.52200698852539
2430.114627599716,145.39613342285156,-76.51663970947266,-54.771244049072266,0.0294916406273841,-2.076662063598633,9.929941177368164,-143.7840576171875,-51.164344787597656,146.89144897460938,-7.778656959533691,9.9991455078125,-3.87001895904541,-57.46419906616211,-66.83482360839844,-34.14566802978516,-2.1589932441711426,4.127856254577637,-8.022590637207031,80.7293701171875,32.8013801574707,176.47232055664062,-8.983102798461914,-3.620290279388428,-16.685707092285156,150.37940979003906,-75.07189178466797,124.32186126708984,4.605918884277344,1.2383394241333008,-7.550843238830566
2430.1456270217896,12.883339881896973,-81.40458679199219,81.14289093017578,4.644996643066406,14.875284194946287,23.35840606689453,-149.5697479248047,-46.15298461914063,146.86180114746094,-3.093433380126953,4.491916656494141,1.7342166900634766,-53.008766174316406,-66.10088348388672,-34.524993896484375,-1.3129825592041016,3.507993698120117,-5.814737319946289,91.19435119628906,24.23377227783203,-176.34786987304688,-17.444713592529297,-6.75119686126709,-12.221027374267578,144.38246154785156,-76.06932830810547,129.35171508789062,6.532698631286621,1.7999253273010254,-8.093692779541016
2430.174627304077,11.01578426361084,-65.89337158203125,93.3319320678711,0.1718474924564361,32.61369323730469,-0.3502311706542969,-150.2037353515625,-44.18408203125,146.3531951904297,-2.3828792572021484,6.471412658691406,2.908878326416016,-47.60365676879883,-65.44244384765625,-36.46923828125,2.555633544921875,3.1094837188720703,-3.308375835418701,92.9271240234375,22.62059593200684,-176.85101318359375,-2.8390426635742188,-4.63104248046875,-3.0794973373413086,139.32215881347656,-76.09706115722656,133.20884704589844,3.4737467765808105,-1.1146535873413086,-8.077245712280273
2430.2046451568604,-1.0433874130249023,-60.19866561889648,97.7487564086914,-11.433603286743164,20.06102752685547,-16.624961853027344,-149.53643798828125,-44.15549850463867,144.93495178222656,-7.356236457824707,8.999212265014648,4.914497375488281,-44.57707214355469,-65.50284576416016,-38.57515335083008,3.326474666595459,1.6573283672332764,3.498126983642578,91.11898803710938,29.552839279174805,176.6120147705078,-4.411409378051758,-1.5009808540344238,-1.7608509063720703,143.95486450195312,-75.3816146850586,129.84542846679688,-1.614687442779541,-2.4881505966186523,1.3459272384643557
2430.2351729869843,-12.442426681518556,-62.47136306762695,97.95198059082033,17.50659942626953,13.000734329223633,-6.157108306884766,-146.70765686035156,-45.2325325012207,142.5928955078125,-4.874066352844238,8.047603607177734,3.609396934509277,-44.56569290161133,-67.29171752929688,-38.87244415283203,4.141916275024414,0.5509984493255615,10.959186553955078,84.28540802001953,40.58804702758789,164.96885681152344,-5.015878677368164,1.0723719596862793,-11.75119972229004,154.01976013183594,-74.8310317993164,120.865966796875,6.081699371337891,1.110002040863037,12.37564468383789
2430.279171943665,-2.7554678916931152,-70.64460754394531,94.6605453491211,0.191874623298645,16.712142944335938,0.8972663879394531,-140.2902069091797,-47.86351776123047,138.31759643554688,-8.008861541748047,8.556526184082031,1.624272346496582,-48.230445861816406,-69.93672943115234,-35.18853759765625,1.9207940101623533,1.7313265800476074,11.303775787353516,76.33570861816406,51.51709365844727,143.65640258789062,-10.49356460571289,2.4404296875,-11.86528205871582,157.76564025878906,-74.3010482788086,116.50359344482422,6.293693542480469,1.7093009948730469,9.029722213745115
2430.3247237205505,25.01203155517578,-80.52962493896484,77.06134033203125,-3.2414565086364746,11.956535339355469,4.059120178222656,-129.7020263671875,-49.84967041015625,132.48495483398438,-6.190489768981934,8.180915832519531,-4.014804840087891,-55.52730178833008,-71.78339385986328,-26.168537139892575,1.668419361114502,0.94697904586792,7.736785888671875,60.18475341796875,55.24614715576172,115.66385650634766,-7.754230499267578,1.7603442668914795,-7.28839111328125,159.20782470703125,-73.88208770751953,115.10265350341795,-2.745150566101074,1.0803749561309814,6.346302032470703
2430.355720281601,110.7240753173828,-84.4587173461914,-3.30671763420105,-3.134768486022949,-8.83529281616211,12.038829803466797,-117.44925689697266,-49.24195861816406,130.0327911376953,13.220190048217772,9.113277435302734,1.7262191772460938,-65.21649169921875,-72.38973236083984,-14.23008155822754,2.8504199981689453,0.731033444404602,2.6990060806274414,44.21284103393555,52.94511413574219,91.58753204345705,3.54647159576416,-0.2046609818935394,-3.838435173034668,161.88282775878906,-73.27792358398438,114.83055114746094,0.9570833444595336,-0.0270651839673519,1.4318227767944336
2430.3847250938416,144.7600860595703,-82.96876525878906,-40.79706954956055,14.036558151245115,-27.529766082763672,-0.4407224655151367,-109.43424987792967,-45.95844268798828,135.27780151367188,11.547372817993164,22.61073303222656,-0.443155288696289,-77.32391357421875,-71.55752563476562,-1.4099174737930298,1.4117181301116943,1.0292465686798096,-1.6276473999023438,39.7657356262207,48.43004989624024,76.1815185546875,16.323989868164062,-5.11643123626709,-1.2326841354370115,167.8723602294922,-72.25057220458984,114.3472137451172,0.0398059785366058,-2.4135384559631348,-2.1162900924682617
2430.415259361267,163.870849609375,-83.48121643066406,-54.408538818359375,-8.467964172363281,-0.2489312887191772,4.114851951599121,-106.07083129882812,-41.198341369628906,143.44265747070312,2.9877443313598637,12.88014793395996,-7.26285457611084,-85.75263977050781,-69.17037200927734,7.914593696594238,0.0900962948799133,1.2783136367797852,-3.962094783782959,52.77729797363281,44.099605560302734,72.12075805664062,16.68743896484375,-7.825143814086914,-3.15291166305542,173.74569702148438,-71.28799438476562,114.65159606933594,-2.2638330459594727,-2.1855216026306152,-5.284914016723633
2430.4452509880066,171.400146484375,-81.51619720458984,-54.29107666015625,3.4786524772644043,-1.6187889575958252,0.9745759963989258,-107.75867462158205,-36.53132629394531,152.60842895507812,3.7518043518066406,5.748499870300293,-14.39686393737793,-89.56739807128906,-66.92681121826172,11.757030487060549,-0.3207628726959228,1.4944992065429688,-7.126289367675781,65.42998504638672,38.43809509277344,73.79988098144531,5.909026145935059,3.198045253753662,-1.8830442428588867,178.2721405029297,-70.9875259399414,115.63731384277344,-1.152256965637207,1.4154014587402344,-8.784048080444336
2430.475259065628,177.2369384765625,-78.74166870117188,-56.49578857421875,-0.988172173500061,0.2921264767646789,-0.550440788269043,-113.42127227783205,-32.941368103027344,162.11703491210938,6.041338920593262,1.5096125602722168,-16.388381958007812,-92.21794891357422,-66.86211395263672,11.465442657470703,-2.8212733268737797,1.6335618495941162,-4.557253837585449,69.95377349853516,31.48187828063965,75.83081817626953,3.3016257286071777,3.2600173950195312,4.426136016845703,-179.68850708007812,-70.60225677490234,116.3137664794922,1.775456190109253,2.1663851737976074,-2.323066234588623
2430.505274534225,178.3616180419922,-75.71360778808594,-56.19811248779297,-6.896696090698242,-2.002610683441162,2.614405632019043,-119.75640106201172,-30.539627075195312,169.98912048339844,4.520895957946777,-0.6028714179992676,-12.303247451782228,-91.1808853149414,-67.83049011230469,6.635847091674805,-6.073464393615723,-3.268956184387207,-0.4894695281982422,68.40218353271484,23.646514892578125,75.61058807373047,6.959369659423828,-0.8649895191192627,1.9974393844604488,178.38453674316406,-68.7149658203125,117.1409683227539,-0.0532796755433082,-1.00085711479187,4.026119232177734
2430.534807920456,179.00958251953125,-72.84842681884766,-55.75716400146485,0.1227777302265167,0.9273297786712646,0.3840570449829101,-127.83702850341795,-29.241050720214844,176.033447265625,1.5736136436462402,1.9934890270233157,-10.339426040649414,-84.78491973876953,-68.29671478271484,-1.9182437658309937,-6.198212623596191,-3.438843250274658,0.8406057357788086,70.32506561279297,15.909150123596191,74.24939727783203,7.869994163513184,-2.301884651184082,-4.521063804626465,177.40286254882812,-68.41093444824219,117.71681213378906,-5.357851028442383,2.045689105987549,1.4335289001464844
2430.564808607101,179.92636108398438,-70.6548843383789,-56.146522521972656,0.1204081028699874,0.2559614181518554,0.6475324630737305,-138.0959014892578,-29.61861038208008,-179.32015991210938,-2.055734634399414,3.479560852050781,-7.493464469909668,-78.20026397705078,-67.08794403076172,-12.137484550476074,-3.08791446685791,-1.7185757160186768,-0.4024887084960937,79.48035430908203,7.373580455780029,72.49913024902344,0.6075605154037476,2.106298446655273,-3.647196292877197,176.09796142578125,-68.8353042602539,119.24783325195312,-3.93927812576294,1.8526701927185056,-1.6434707641601562
2430.6253504753117,179.67984008789062,-68.76604461669922,-56.07326889038086,-0.0949390232563018,-0.0986807495355606,0.3778829574584961,-144.05694580078125,-33.26413345336914,-176.6302032470703,0.2472310364246368,-0.1558648943901062,4.052024841308594,-73.50743103027344,-64.50283813476562,-23.20622444152832,-2.8144965171813965,-0.1885737180709839,-1.7625865936279297,85.26068115234375,-3.4416656494140625,69.27811431884766,0.0019043302163481,5.352231025695801,2.224667549133301,173.40689086914062,-68.69940948486328,121.5151596069336,-0.7454522848129272,1.2661867141723633,-0.0189504623413085
2430.655342102051,177.96165466308594,-66.26130676269531,-54.3929443359375,0.7347828149795532,-1.229398250579834,0.5441484451293945,-139.2476806640625,-34.52172088623047,-175.65318298339844,-7.989948272705078,2.140195369720459,10.022869110107422,-69.44657135009766,-60.646732330322266,-34.66156005859375,-2.833554267883301,1.0395045280456543,-2.876953601837158,83.15901947021484,-17.149721145629883,65.74357604980469,7.225026130676269,9.59821891784668,-1.058004379272461,169.58758544921875,-69.37728881835938,123.94513702392578,-1.0412960052490234,0.7945092916488647,-0.4755420684814453
2430.6853499412537,175.3978729248047,-62.41699981689453,-51.18218231201172,1.5093083381652832,-0.1231584250926971,-0.2124233245849609,-134.45594787597656,-38.85191345214844,-177.7252655029297,-17.209720611572266,-4.402610778808594,-5.143590927124023,-66.25701904296875,-55.72625732421875,-45.30037307739258,-1.1684997081756592,0.7129950523376465,-5.725443840026856,80.54991149902344,-32.45246887207031,63.21592330932617,12.631977081298828,16.535179138183594,5.384790420532227,164.16583251953125,-70.99848175048828,127.45462036132812,-1.59657621383667,0.3740122318267822,-3.975439548492432
2430.7148983478546,172.22677612304688,-57.82131576538086,-47.19409942626953,0.9811426401138306,-2.286873817443848,0.0218353271484375,-134.60739135742188,-43.37719345092773,178.8896026611328,-17.891281127929688,-7.524004936218262,23.845531463623047,-69.82679748535156,-49.73330307006836,-52.78976058959961,-4.499968528747559,1.4229440689086914,-6.146768569946289,82.98180389404297,-43.58218765258789,59.02667236328125,11.986101150512695,8.17894172668457,13.31405258178711,158.30418395996094,-72.95171356201172,132.1758270263672,-2.2370009422302246,-0.0500751733779907,-2.080470561981201
2430.744898080826,169.86819458007812,-52.97153091430664,-44.07618713378906,0.4851497411727905,-3.065565586090088,-0.1566600799560547,-140.47698974609375,-39.90511703491211,178.0412139892578,-15.72181510925293,2.8729467391967773,13.149091720581056,-74.99888610839844,-43.29473114013672,-57.89737701416016,-8.419363021850586,11.52597427368164,2.2539491653442383,84.10875701904297,-43.827144622802734,54.80106735229492,9.491878509521484,14.161977767944336,-4.271184921264648,148.051513671875,-75.81340026855469,142.12118530273438,-2.291886806488037,2.1215085983276367,1.1276674270629885
2430.774901390076,169.21014404296875,-48.51879501342773,-42.60520553588867,-3.019941806793213,1.5801043510437012,-2.538369655609131,-139.65997314453125,-35.09334182739258,178.4972686767578,-27.87442779541016,9.973831176757812,2.801955223083496,-77.10790252685547,-36.98929977416992,-60.40325164794922,-3.3630151748657227,21.31455993652344,14.15167236328125,92.2564468383789,-38.01981735229492,51.92692947387695,13.436399459838867,30.77158737182617,-9.431875228881836,132.0098876953125,-78.75868225097656,157.7086181640625,0.0817257165908813,4.0732927322387695,2.5988121032714844
2430.804913520813,169.71017456054688,-45.3491096496582,-40.97513198852539,1.5308821201324463,4.492376327514648,0.4171419143676758,-133.15524291992188,-29.626914978027344,-179.30311584472656,-25.48197555541992,13.878803253173828,2.973739624023437,-76.82987976074219,-27.61652374267578,-59.541969299316406,3.47622013092041,28.19748306274414,23.9655876159668,105.27677917480467,-33.1406364440918,51.47470474243164,15.226373672485352,18.823028564453125,9.52224349975586,123.46800231933594,-79.12759399414062,168.41949462890625,-2.13523530960083,-4.175763130187988,6.266891479492188
2430.834442615509,170.69158935546875,-44.5264892578125,-39.93489074707031,-0.8316923379898071,7.019457817077637,-0.8857345581054688,-133.23345947265625,-26.17487144470215,-175.73098754882812,-18.617042541503903,8.969385147094727,3.414137840270996,-67.17852783203125,-13.57589054107666,-56.586952209472656,8.324539184570312,11.584341049194336,32.91028594970703,109.43299865722656,-36.327186584472656,51.96590423583984,18.170276641845703,10.578266143798828,5.722809791564941,123.3547592163086,-78.4936752319336,169.47451782226562,0.868408203125,-0.6915429830551147,11.474979400634766
2430.864443063736,171.14654541015625,-45.93219757080078,-39.68815231323242,0.2067345082759857,-1.523613691329956,4.73140811920166,-131.74307250976562,-26.07628631591797,-173.32875061035156,-6.8426008224487305,4.841257095336914,6.376409530639648,-48.49111557006836,2.4266960620880127,-51.461185455322266,1.9621319770812988,-4.0086822509765625,13.925970077514648,113.62287902832033,-45.44063949584961,52.11402893066406,4.0198259353637695,9.42208480834961,6.767890930175781,125.23199462890624,-78.37033081054688,167.6381378173828,-1.074601411819458,-4.274120330810547,6.663198471069336
