Timestamp,D4:22:CD:00:05:5D_EulerX,D4:22:CD:00:05:5D_EulerY,D4:22:CD:00:05:5D_EulerZ,D4:22:CD:00:05:5D_FreeAccX,D4:22:CD:00:05:5D_FreeAccY,D4:22:CD:00:05:5D_FreeAccZ,D4:22:CD:00:05:5E_EulerX,D4:22:CD:00:05:5E_EulerY,D4:22:CD:00:05:5E_EulerZ,D4:22:CD:00:05:5E_FreeAccX,D4:22:CD:00:05:5E_FreeAccY,D4:22:CD:00:05:5E_FreeAccZ,D4:22:CD:00:05:6B_EulerX,D4:22:CD:00:05:6B_EulerY,D4:22:CD:00:05:6B_EulerZ,D4:22:CD:00:05:6B_FreeAccX,D4:22:CD:00:05:6B_FreeAccY,D4:22:CD:00:05:6B_FreeAccZ,D4:22:CD:00:05:6E_EulerX,D4:22:CD:00:05:6E_EulerY,D4:22:CD:00:05:6E_EulerZ,D4:22:CD:00:05:6E_FreeAccX,D4:22:CD:00:05:6E_FreeAccY,D4:22:CD:00:05:6E_FreeAccZ,D4:22:CD:00:49:AA_EulerX,D4:22:CD:00:49:AA_EulerY,D4:22:CD:00:49:AA_EulerZ,D4:22:CD:00:49:AA_FreeAccX,D4:22:CD:00:49:AA_FreeAccY,D4:22:CD:00:49:AA_FreeAccZ
378.8277313709259,0.5811051726341248,-1.7776745557785034,-45.55224609375,-0.1077355444431305,0.0665548294782638,0.0817365646362304,-177.16717529296875,-0.4761316776275635,3.762972354888916,0.0378241911530494,-0.0570028871297836,0.0664434432983398,2.315828561782837,18.11143112182617,-82.14250946044922,-0.0338801145553588,0.0191340669989585,0.0759792327880859,-10.623353004455566,23.865856170654297,-163.1863250732422,0.0350670292973518,0.0654452890157699,0.0345306396484375,2.2588839530944824,-2.99805212020874,60.02959060668945,-0.0678585171699523,-0.2187799513339996,-0.1739969253540039
378.84173488616943,0.5840572118759155,-1.7922195196151731,-45.54411697387695,-0.0967923402786254,0.0593863651156425,0.0805110931396484,-177.17498779296875,-0.4700606167316437,3.756902456283569,0.0568839758634567,-0.0126035455614328,0.1296501159667968,2.320465564727783,18.107955932617188,-82.14348602294922,-0.0491517186164855,0.015131089836359,0.0717859268188476,-10.613430976867676,23.857297897338867,-163.18753051757812,0.0423542633652687,0.0634955912828445,0.0340232849121093,2.268574953079224,-3.0314197540283203,60.03424835205078,-0.0755251199007034,-0.2433231174945831,-0.1714429855346679
378.84873056411743,0.5847746133804321,-1.8067697286605835,-45.53239059448242,-0.1005837321281433,0.0726351886987686,0.0831022262573242,-177.1605682373047,-0.465502381324768,3.756835460662842,0.0292944312095642,-0.0503131970763206,0.0671730041503906,2.327054023742676,18.107383728027344,-82.14598846435547,-0.0425616800785064,0.0258896313607692,0.0626220703125,-10.607534408569336,23.850017547607425,-163.1886444091797,0.0271210893988609,0.0513213127851486,-0.0188941955566406,2.27117657661438,-3.064373254776001,60.03791046142578,-0.0864775478839874,-0.2390528619289398,-0.1685256958007812
378.89423966407776,-179.85643005371094,-59.973419189453125,-127.52774810791016,-1.550445795059204,0.3156821131706238,2.69260311126709,-159.50485229492188,-49.36548614501953,-75.5909652709961,-3.2606096267700195,-0.3662741184234619,-0.958139419555664,-41.56187438964844,-0.6578300595283508,-31.28753662109375,-2.6681642532348637,-12.248891830444336,-7.431399345397949,124.41657257080078,-56.56120681762695,6.561342716217041,-3.5121045112609863,0.5544434785842896,0.4961366653442383,-119.98064422607422,-81.76994323730469,42.643333435058594,0.7730257511138916,0.4818411469459533,0.3031806945800781
378.92424035072327,-179.95443725585938,-63.965431213378906,-129.6240692138672,-1.6887235641479492,-0.6754117012023926,2.456000328063965,-168.38504028320312,-57.42796325683594,-70.87120819091797,-6.050326347351074,2.8862380981445312,1.5391864776611328,-36.0467529296875,6.826855659484863,-34.96085357666016,1.5067977905273438,-7.812928199768066,-12.934282302856444,143.76934814453125,-60.19960021972656,5.123458862304688,-4.147867202758789,-3.921002388000488,1.539215087890625,-112.61127471923828,-79.70761108398438,37.12226486206055,1.2103304862976074,-0.1088798642158508,-1.1472711563110352
378.98505997657776,179.0112762451172,-68.05601501464844,-131.68649291992188,-1.1894152164459229,-0.9517289400100708,-0.2377710342407226,178.1349639892578,-59.55746078491211,-61.75170135498047,-5.475882530212402,5.779232978820801,2.370229721069336,-33.39632034301758,14.004433631896973,-41.46297836303711,0.9225343465805054,-5.704889297485352,-16.52743911743164,154.7034454345703,-62.843868255615234,4.190234661102295,-3.718283176422119,-6.092103004455566,-0.6478404998779297,-109.24559020996094,-78.53170013427734,35.12009811401367,0.5273774862289429,0.2707292437553406,-2.0254783630371094
379.01505970954895,177.18820190429688,-71.9411392211914,-132.22154235839844,0.4143230319023132,-1.2796101570129397,-2.1055588722229004,169.92108154296875,-59.67839431762695,-56.507720947265625,-5.045283317565918,4.591073989868164,0.3184823989868164,-34.25752639770508,19.65799140930176,-50.826358795166016,3.11494779586792,0.25123131275177,-16.786746978759766,158.69491577148438,-64.2978744506836,2.8356213569641118,-0.7634319067001343,-7.173351287841797,-2.98432731628418,-106.66815185546876,-78.1356201171875,33.45087814331055,0.0179923437535762,0.0291557013988494,-3.316884994506836
379.04606223106384,174.48814392089844,-75.4289321899414,-130.70108032226562,1.8006644248962402,-0.4400489330291748,-2.7986955642700195,161.68283081054688,-58.95167922973633,-53.62199401855469,-9.18075942993164,5.683618545532227,0.2169179916381836,-38.41428756713867,22.927154541015625,-64.78251647949219,3.7886648178100586,-1.6794748306274414,-14.565536499023438,157.64154052734375,-64.89906311035156,2.1668286323547363,1.4079749584197998,-6.916011810302734,-4.495506286621094,-101.8797378540039,-78.23375701904297,29.04798889160156,-0.697351336479187,-0.886735200881958,-5.863015174865723
379.0747413635254,170.4064483642578,-78.22579193115234,-127.10919189453124,1.4658865928649902,-0.0859570503234863,-3.6043386459350586,151.91688537597656,-55.13433074951172,-51.53297424316406,-8.457780838012695,6.330855369567871,2.1266794204711914,-44.351219177246094,22.36607551574707,-83.49864196777344,-6.370909690856934,-10.461061477661133,-19.42422103881836,151.66275024414062,-64.5281753540039,3.539757013320923,1.5721914768218994,-7.297218322753906,-5.440143585205078,-95.2647476196289,-78.49869537353516,22.85461807250977,-1.4735667705535889,-0.7448348999023438,-6.031462669372559
379.10474705696106,164.43893432617188,-80.15428161621094,-120.72200775146484,-0.0927116125822067,-0.059586763381958,-2.6568150520324707,143.7137451171875,-48.365867614746094,-51.1724853515625,4.438512802124023,16.203441619873047,6.031457901000977,-48.09212112426758,17.23543357849121,-100.95100402832033,-8.13583755493164,-16.642601013183594,-9.862764358520508,140.1243133544922,-63.04729080200195,7.79276704788208,1.8454487323760984,-5.90758228302002,-5.1315202713012695,-88.67141723632812,-78.52375030517578,16.212175369262695,-0.2863730788230896,-0.8138556480407715,-3.62971305847168
379.134740114212,155.35772705078125,-81.16877746582031,-111.9443588256836,-1.4584171772003174,0.1542363464832306,-2.421038627624512,148.13291931152344,-41.35356140136719,-52.98619079589844,0.950864315032959,-9.33975601196289,-3.3216686248779297,-54.28411102294922,14.571449279785156,-105.43821716308594,-5.460886955261231,15.43242073059082,-21.02915573120117,127.26858520507812,-60.70155715942383,13.49555206298828,2.999980926513672,-2.510861873626709,-5.396486282348633,-80.78055572509766,-78.2275619506836,7.965404033660889,0.2381577491760254,-0.4276217222213745,-4.445747375488281
379.1647698879242,145.35385131835938,-80.70506286621094,-101.90948486328124,-1.1101024150848389,-3.3020544052124023,-1.2129735946655271,153.09718322753906,-37.23881912231445,-50.89315414428711,0.39820396900177,-13.213794708251951,-4.4807233810424805,-63.17123794555664,18.65102767944336,-92.6749267578125,-15.000774383544922,-11.762481689453123,12.413082122802734,119.25130462646484,-57.820289611816406,17.658748626708984,4.3515167236328125,-1.555145263671875,-3.52810001373291,-74.3476791381836,-78.19085693359375,1.4173792600631714,-0.2059199213981628,-0.8351993560791016,-5.102468490600586
379.1942837238312,138.32948303222656,-78.5014877319336,-93.38480377197266,-0.546910285949707,-3.047656536102295,1.102741241455078,152.17144775390625,-33.70645904541016,-49.30287551879883,6.448060035705566,-14.456960678100586,-2.4901885986328125,-50.0969123840332,21.281740188598636,-72.74203491210938,-8.717584609985352,-19.957088470458984,-18.78362274169922,115.71507263183594,-54.95652389526367,19.694799423217773,6.852025032043457,-3.1038928031921387,1.0265026092529297,-73.62340545654297,-78.77796936035156,0.1694271564483642,0.3658249974250793,-3.91500186920166,-0.3367862701416015
379.2244446277618,132.23184204101562,-75.78118896484375,-86.0741195678711,-1.510047197341919,-1.438499927520752,6.178867340087891,149.5672607421875,-32.10730743408203,-46.69189834594727,9.805452346801758,-8.138866424560547,-2.2607364654541016,-42.73219299316406,17.93826675415039,-52.91206359863281,-5.872312545776367,-0.7446129322052002,-10.434988021850586,112.7874526977539,-52.46388626098633,20.66798973083496,7.602408409118652,-3.630981922149658,7.800567626953125,-72.83585357666016,-78.97581481933594,-1.6635147333145142,0.1862207055091858,-3.681521415710449,3.1970443725585938
379.2851667404175,123.66385650634766,-73.2019271850586,-78.9255142211914,-0.8396550416946411,-4.9783782958984375,8.870967864990234,147.55389404296875,-30.727542877197266,-45.64713668823242,5.456354141235352,-9.363931655883787,-2.933228015899658,-37.55804061889648,10.628850936889648,-37.25715255737305,-7.105436325073242,10.337646484375,-8.542802810668945,100.46630859375,-51.71468734741211,19.262720108032227,4.418286323547363,2.303328037261963,5.779149055480957,-72.79679107666016,-78.59569549560547,-1.7836151123046875,-0.4612929224967956,-5.728415489196777,5.697116851806641
379.3145015239716,112.10382843017578,-71.19251251220703,-70.74567413330078,8.192447662353516,-14.49843978881836,3.49774169921875,147.58920288085938,-29.95722961425781,-45.55280685424805,4.811760902404785,-3.4151153564453125,0.242497444152832,-42.005821228027344,1.63215434551239,-21.88429450988769,-6.03659725189209,7.533969879150391,-10.919143676757812,80.38186645507812,-55.779205322265625,17.13547706604004,23.683090209960938,4.155359268188477,-11.004613876342772,-83.61112976074219,-77.84488677978516,8.303826332092285,9.248773574829102,3.0479321479797363,-2.855421543121338
379.3447790145874,114.55817413330078,-69.52173614501953,-78.51668548583984,25.808494567871094,7.250959396362305,-0.0542354583740234,145.8877410888672,-30.39189720153809,-45.65260314941406,6.981510162353516,-3.698453426361084,-0.9213466644287108,-48.53275680541992,-5.167774677276611,-5.590762615203857,0.9185349941253662,5.58481502532959,4.933008193969727,75.85071563720703,-57.35887145996094,16.128524780273438,4.650758743286133,4.537167549133301,-2.059385299682617,-98.42169189453124,-77.13573455810547,19.222400665283203,13.231048583984377,0.7540090084075928,-4.803685188293457
379.3743143081665,128.7765655517578,-64.91397857666016,-97.40668487548828,24.923503875732425,14.17535400390625,4.736116409301758,142.85842895507812,-31.35831069946289,-45.7573127746582,6.100579261779785,-3.6379590034484863,-2.0387463569641118,-55.21044158935547,-9.027923583984377,8.247020721435547,1.580045223236084,16.300426483154297,-23.904895782470703,77.50740051269531,-57.289852142333984,18.37932586669922,1.6196327209472656,10.911294937133787,1.397395133972168,-106.33893585205078,-77.4818115234375,23.94789695739746,3.509941577911377,3.84227991104126,5.805722236633301
379.4048230648041,143.56137084960938,-55.24148941040039,-114.97237396240234,10.144689559936523,5.675502777099609,1.8154420852661133,139.04901123046875,-32.23103713989258,-45.66270446777344,7.436326026916504,-4.549809455871582,-3.4017248153686523,-74.95171356201172,-9.522326469421388,17.304140090942383,-1.1542720794677734,14.296762466430664,20.481414794921875,78.570068359375,-56.55921936035156,21.86222267150879,-2.7240867614746094,11.80462646484375,0.5253791809082031,-113.92457580566406,-77.76579284667969,30.332433700561523,-0.9558053016662598,3.298910617828369,4.363180160522461
379.4351134300232,153.81105041503906,-42.89720153808594,-126.87757110595705,1.4380056858062744,1.6150436401367188,-4.891253471374512,137.701171875,-33.17978286743164,-44.36735534667969,5.681220054626465,-4.590271949768066,-3.44858980178833,-74.68225860595703,-12.13216495513916,19.7491397857666,-6.582849502563477,12.086172103881836,0.351715087890625,80.37963104248047,-55.51142501831055,22.934600830078125,2.763314247131348,6.271232604980469,-0.0593452453613281,-118.5457992553711,-77.33014678955078,34.83403015136719,6.494167327880859,0.7491029500961304,1.0993165969848633
379.4645922183991,164.353271484375,-30.307191848754883,-134.2450408935547,-5.730925559997559,1.408478021621704,-10.239351272583008,137.55410766601562,-33.82032012939453,-43.44367980957031,2.836511611938477,-4.656909942626953,-2.908121109008789,-73.46255493164062,-18.46895217895508,20.61317253112793,1.831475019454956,5.761655807495117,-7.174642562866211,84.49943542480469,-53.718658447265625,23.064712524414062,2.701643943786621,2.3258018493652344,-2.01210880279541,-119.81444549560548,-77.94451904296875,36.85276412963867,4.148711204528809,1.8443288803100584,-0.8678092956542969
379.4954078197479,174.0855712890625,-21.118408203125,-138.62477111816406,-13.71037483215332,3.257894992828369,-9.532569885253906,138.27345275878906,-33.78978729248047,-44.51704788208008,1.52471661567688,-4.02337646484375,-2.47597599029541,-83.00022888183594,-24.658510208129883,25.33113670349121,3.1315860748291016,1.078169584274292,-3.971062660217285,89.92341613769531,-51.3271713256836,22.877351760864254,1.6756434440612793,1.4318830966949463,-2.9720163345336914,-118.16478729248048,-78.3704605102539,36.02384948730469,-0.9036601781845092,2.535433292388916,-1.4290361404418943
379.524719953537,177.09811401367188,-17.10350227355957,-142.58767700195312,-12.654159545898438,3.189344882965088,-11.430364608764648,140.04261779785156,-33.388389587402344,-46.52022171020508,4.708879470825195,-5.1635847091674805,-2.57295036315918,-93.54869842529295,-32.52399063110352,32.66785430908203,6.123113632202148,2.3125405311584477,5.710173606872559,93.61930847167967,-49.191497802734375,23.547578811645508,5.995064735412598,-0.821320652961731,-3.5306835174560547,-114.96833801269533,-78.4112319946289,34.71183395385742,-0.3091814517974853,0.0309549793601036,-2.400745391845703
379.58437275886536,174.1391143798828,-17.698925018310547,-145.61732482910156,-11.21111297607422,0.9156612157821656,-11.88019561767578,142.2942352294922,-32.617435455322266,-49.03779602050781,2.533649444580078,-3.484049797058105,-1.9788269996643064,-99.505615234375,-43.74321365356445,42.40522766113281,9.651031494140623,6.044645309448242,6.292472839355469,95.80152893066406,-47.9755973815918,26.49765014648437,6.047725677490234,-1.5268301963806152,-5.319510459899902,-109.3974609375,-78.92675018310547,31.36460494995117,3.1789584159851074,0.8735382556915283,-4.648186683654785
379.6149632930756,171.12136840820312,-22.217100143432617,-147.03526306152344,-15.99609375,-3.097707748413086,-9.097585678100586,143.92236328125,-31.78254127502441,-51.33125686645508,5.036871910095215,-3.5449581146240234,-0.982478141784668,-109.65460205078124,-54.97328567504883,57.37884140014648,6.355352401733398,24.21178436279297,22.987579345703125,97.47079467773438,-46.57105255126953,33.186920166015625,9.128509521484377,-3.488689422607422,-4.090083122253418,-103.6803970336914,-79.58078002929688,27.10752487182617,5.3109893798828125,1.3067853450775146,-3.2085561752319336
379.64495635032654,171.4940643310547,-25.670555114746094,-145.14048767089844,-8.732572555541992,1.6130092144012451,18.99842071533203,144.81167602539062,-31.272369384765625,-52.71940994262695,4.692094802856445,-3.2613024711608887,-0.7443246841430664,-112.89859771728516,-60.36870956420898,63.85888671875,5.968084335327148,15.144346237182615,7.782176971435547,105.0353775024414,-44.46333694458008,45.66391372680664,7.127344131469727,2.8697056770324707,0.2411003112792968,-96.32767486572266,-79.90833282470703,20.12849998474121,2.00545597076416,-0.2923213839530945,-3.4660587310791016
379.6749486923218,177.5406951904297,-26.277212142944336,-139.5580596923828,-17.57807159423828,-12.115156173706056,0.8039188385009766,144.76792907714844,-30.84839630126953,-53.153446197509766,5.183658599853516,-3.375859260559082,-0.927532196044922,-112.04756927490234,-55.54317092895508,58.00714492797852,10.664384841918944,12.173442840576172,0.6231441497802734,116.50360107421876,-39.848968505859375,57.64681243896485,-2.2585573196411133,0.842047929763794,10.7376708984375,-89.51106262207031,-80.5729751586914,13.667683601379396,-0.1172247231006622,0.4841330647468567,1.6562881469726562
379.70511412620544,-179.70541381835938,-25.72808265686035,-134.23910522460938,-13.821455001831056,-15.380245208740234,5.883598327636719,144.3263397216797,-30.91110038757324,-52.84780502319336,3.815085411071777,-2.90958309173584,0.3987922668457031,-110.81051635742188,-44.639835357666016,46.47365951538086,10.15102195739746,10.48423957824707,19.691162109375,123.7988052368164,-29.268518447875977,67.19586944580078,19.672683715820312,-11.862571716308594,27.92212677001953,-90.93738555908205,-81.08465576171875,15.6368989944458,1.552783727645874,-1.2423310279846191,5.5329437255859375
379.7351448535919,176.9093475341797,-24.01255989074707,-131.56834411621094,-13.340753555297852,-7.219063758850098,6.879581451416016,144.11569213867188,-32.95501708984375,-50.70121383666992,4.438971519470215,-3.3823723793029785,0.6859121322631836,-105.83467864990234,-36.35327911376953,36.24987411499024,12.71527862548828,6.462972640991211,4.266557693481445,125.56175994873048,-12.564961433410645,74.28564453125,16.286964416503906,-4.688236236572266,26.956466674804688,-100.24960327148438,-81.48905944824219,26.326723098754883,2.114173889160156,-1.1105473041534424,4.085933685302734
379.765118598938,172.90638732910156,-21.725963592529297,-130.60867309570312,-7.187740325927734,-5.216063499450684,3.348025321960449,143.62637329101562,-36.45747756958008,-46.98740005493164,5.458808898925781,-1.511650800704956,-0.196298599243164,-105.80768585205078,-33.001220703125,28.666912078857425,2.89486026763916,0.5653105974197388,-0.5345821380615234,124.97854614257812,10.720215797424316,79.45844268798828,20.795448303222656,5.066737174987793,18.016387939453125,-97.75379180908205,-82.53443908691406,25.24901390075684,3.022085189819336,2.486536979675293,5.105177879333496
379.7947444915772,169.40110778808594,-20.93349838256836,-131.03143310546875,-10.003398895263672,-1.1504364013671875,-0.6249465942382812,141.58834838867188,-39.431785583496094,-43.544551849365234,5.699481964111328,-2.1286425590515137,0.9202861785888672,-108.0800552368164,-35.43763732910156,24.04694175720215,-3.190800666809082,0.7987188100814819,-2.1337571144104004,124.98076629638672,35.74180221557617,85.01268768310547,15.481508255004885,16.691211700439453,2.739501953125,-100.04363250732422,-83.70237731933594,27.89163017272949,5.408032417297363,2.254772186279297,3.984170913696289
379.8247063159943,167.19180297851562,-22.63780212402344,-131.5452880859375,-7.103630065917969,2.156982898712158,-3.5002126693725586,138.88011169433594,-42.00446701049805,-40.86328125,4.732859611511231,-6.846637725830078,1.598257064819336,-111.42567443847656,-42.85221862792969,22.478015899658203,-4.463761329650879,3.2113585472106934,-3.034696578979492,124.79676818847656,58.916988372802734,91.96304321289062,6.241649627685547,12.626434326171877,-7.252738952636719,-111.80777740478516,-84.76591491699219,38.804107666015625,7.138888359069824,3.4604039192199707,2.908869743347168
379.8850228786469,164.80523681640625,-27.231863021850582,-132.4853057861328,-3.4187397956848145,2.477287769317627,-6.047915458679199,137.44204711914062,-44.66841125488281,-38.008094787597656,4.920675277709961,-6.025077819824219,0.1526613235473632,-118.39865112304688,-52.567970275878906,24.427526473999023,-5.552614212036133,4.358790397644043,-3.090203762054444,132.24449157714844,76.11811065673828,104.0226821899414,-0.0106714516878128,6.0223588943481445,-6.913114547729492,-131.6610565185547,-85.56615447998047,56.5540771484375,5.373082160949707,1.7818000316619873,2.1152782440185547
379.9150238037109,163.27651977539062,-34.20817565917969,-133.6590576171875,-3.87531328201294,2.800645351409912,-4.069104194641113,136.26559448242188,-47.17084503173828,-35.156394958496094,4.164289474487305,-4.689653396606445,-2.12202787399292,-128.94439697265625,-62.81017303466797,31.681739807128903,-4.281558990478516,4.402324676513672,-3.684195041656494,173.76156616210938,85.3471450805664,148.40892028808594,-3.2381467819213867,4.3935546875,-6.164573669433594,-153.7600555419922,-85.42782592773438,75.99784851074219,1.17012619972229,-0.6765468120574951,-0.6839122772216797
379.9452750682831,161.4058837890625,-43.56018829345703,-133.79812622070312,-4.330580711364746,1.8477532863616943,-3.931193828582764,135.139892578125,-49.59110641479492,-32.79581451416016,2.324190616607666,-2.1272101402282715,-2.810513496398926,-150.3338165283203,-71.14799499511719,49.89998626708984,-3.877423286437988,3.723177433013916,-4.217578887939453,-124.9580535888672,84.92974090576172,-147.82582092285156,-4.902892112731934,-0.8004742860794067,-5.413336753845215,-169.90040588378906,-84.73202514648438,90.05244445800781,-0.1633537709712982,-0.2583547830581665,-1.6061124801635742
379.9748475551605,159.89154052734375,-54.36131286621094,-132.0222625732422,-2.4946789741516118,-0.0896096974611282,-1.365692138671875,132.99417114257812,-51.95960235595703,-30.73816299438477,1.5356874465942385,0.2151618301868438,-3.0912117958068848,172.73231506347656,-74.0750961303711,81.66056823730469,-6.082403182983398,5.616081237792969,-3.2711124420166016,-127.71723175048828,85.06275177001953,-147.93014526367188,-6.302177429199219,2.04758882522583,-8.477773666381836,-177.2086181640625,-83.83299255371094,96.01956176757812,2.427095890045166,-0.123109370470047,-1.3138513565063477
380.0050671100617,156.94790649414062,-65.4041976928711,-126.48846435546876,3.2882895469665527,2.678310871124268,3.022714614868164,130.3905029296875,-54.01958465576172,-28.83501625061035,0.8782428503036499,1.0558278560638428,-3.11453914642334,140.70724487304688,-71.2254638671875,107.53707122802734,-4.557821273803711,4.800042152404785,-4.617469787597656,-173.31690979003906,85.08103942871094,170.3824920654297,-2.0529284477233887,-2.3397231101989746,-9.529769897460938,-179.92042541503906,-83.45779418945312,97.38973236083984,3.994797706604004,-0.2293780446052551,-3.4488697052001958
380.0347013473511,146.18667602539062,-74.52750396728516,-111.49988555908205,7.138983726501465,2.680607795715332,1.520400047302246,128.37648010253906,-55.56172943115234,-28.032249450683597,-0.8101367950439453,0.8688931465148926,-3.5215134620666504,121.65583038330078,-66.39212799072266,118.98517608642578,-3.847961902618408,4.631476402282715,-6.073639869689941,150.58023071289062,79.86962127685547,137.80062866210938,1.126706838607788,-0.8026427030563354,-9.695867538452148,175.9086151123047,-83.69737243652344,99.90428924560548,1.9227628707885744,-0.0134931411594152,-4.748448371887207
380.064709186554,118.54688262939452,-79.05117797851562,-79.02434539794922,5.889853477478027,6.626940727233887,-0.4509258270263672,127.76297760009766,-56.39395523071289,-29.14602279663086,0.4803403615951538,-1.2302937507629397,-3.598998546600342,108.5439682006836,-61.88861846923828,122.45146942138672,-3.365180969238281,4.935707092285156,-7.773019790649414,134.78948974609375,69.7914047241211,128.40835571289062,-4.852161407470703,3.4696269035339355,-11.655656814575195,171.9443359375,-84.46717834472656,102.48178100585938,0.373473584651947,0.2827260494232178,-5.977689743041992
380.094833612442,87.92639923095703,-78.27262115478516,-46.06112289428711,9.19062042236328,2.492037773132324,-5.395403861999512,129.5695037841797,-56.98099136352539,-31.57935905456543,1.6739928722381592,-2.432753562927246,-3.057478904724121,99.42649841308594,-57.959510803222656,122.9306640625,-2.3430418968200684,6.439056396484375,-8.583646774291992,121.83045196533205,57.12211227416992,125.54904174804688,-7.705666542053223,14.566530227661133,-17.717342376708984,172.209228515625,-85.31132507324219,101.69956970214844,0.7394282817840576,-0.4851775169372558,-6.16232967376709
380.12496614456177,78.91468048095703,-76.0800552368164,-32.49496078491211,10.45949363708496,3.062418937683105,-8.992542266845703,132.72743225097656,-57.61916732788086,-35.55390167236328,1.5730671882629397,-4.99620246887207,-0.8679332733154297,95.6091079711914,-54.27108001708984,122.60689544677734,-2.025929927825928,7.929019927978516,-8.63072395324707,112.59136962890624,48.5145149230957,128.02288818359375,-0.9204388856887816,4.5572662353515625,-21.41796112060547,174.06178283691406,-85.88848876953125,99.73189544677734,1.4623281955718994,-0.9639796018600464,-5.081189155578613
380.1856107711792,86.62818145751953,-74.71228790283203,-35.768856048583984,8.262519836425781,7.704685211181641,-8.230979919433594,135.62777709960938,-58.45414733886719,-40.64897537231445,5.056607246398926,-5.246991157531738,1.5260210037231443,96.8567123413086,-50.804466247558594,122.4161605834961,-2.8622026443481445,8.084367752075195,-5.857787132263184,132.14718627929688,54.15190505981445,131.5033721923828,3.658081531524658,-9.192636489868164,-7.870072364807129,176.60195922851562,-85.71522521972656,97.18196868896484,3.266164302825928,-1.6976544857025146,-2.696746349334717
380.2150912284851,102.1456298828125,-73.29578399658203,-49.06534576416016,4.797874450683594,5.842301368713379,-1.6555395126342771,138.75613403320312,-60.09772109985352,-44.98055648803711,4.727970123291016,-5.483214378356934,3.3208723068237305,99.59368133544922,-48.465614318847656,121.81790161132812,-4.255608558654785,8.117586135864258,-1.4854097366333008,167.2592315673828,70.45881652832031,147.32281494140625,-7.988453865051269,35.73106384277344,-8.303775787353516,-176.15830993652344,-85.4968032836914,89.94049835205078,5.052544593811035,-1.7930428981781006,-1.306269645690918
380.24508237838745,111.1524658203125,-73.77959442138672,-62.25315856933594,2.9836950302124023,-7.779386520385742,2.27493667602539,141.76385498046875,-62.84775924682617,-47.12235641479492,5.098513603210449,-7.223875999450684,3.987709045410156,101.2008819580078,-47.6236457824707,120.0068588256836,-5.027113914489746,11.47341537475586,1.8131332397460935,-99.5849838256836,80.12691497802734,-126.1479949951172,-2.8331403732299805,11.77073097229004,-17.013553619384766,-170.97752380371094,-85.18346405029297,84.8889389038086,3.331861019134521,0.3423688411712646,1.8845434188842771
380.274631023407,121.87930297851562,-75.45047760009766,-78.39757537841797,0.7246102094650269,-12.51911735534668,5.224673271179199,145.70199584960938,-66.0713882446289,-48.04916763305664,-0.3361460566520691,-9.520586013793944,2.237057685852051,103.08716583251952,-47.71479415893555,117.1969757080078,-4.975246429443359,12.666290283203123,1.698134422302246,-46.8564453125,64.73110961914062,-76.17125701904297,-2.302114486694336,0.9675629138946532,-9.236005783081056,-171.18228149414062,-84.44642639160156,85.56109619140625,2.4266161918640137,-1.5082082748413086,3.746487617492676
380.3046841621399,134.1258544921875,-74.00611114501953,-92.28604125976562,-11.72641944885254,-5.324767112731934,14.598983764648438,155.34727478027344,-67.4120864868164,-52.31376266479492,-11.726900100708008,11.972003936767578,8.108396530151367,109.20436096191406,-48.280704498291016,113.5685806274414,-2.994140625,11.925094604492188,1.035257339477539,-33.5840950012207,46.97088241577149,-63.2259407043457,5.770418167114258,-10.412551879882812,1.7669782638549805,-176.05282592773438,-83.08023834228516,90.75735473632812,2.504988193511963,-4.552181243896484,5.351517677307129
380.36488485336304,149.6357421875,-71.73194122314453,-102.21168518066406,-0.7137442827224731,9.649175643920898,0.0756454467773437,165.47369384765625,-61.39522552490234,-60.963653564453125,-13.370031356811523,19.09395980834961,14.192325592041016,120.8564682006836,-49.33513259887695,109.82225799560548,1.1815123558044434,3.807873249053955,-1.7541122436523438,-14.10452651977539,34.22826385498047,-57.34867477416992,-7.924979209899902,-27.47091293334961,14.48885726928711,177.8656463623047,-81.8921890258789,98.3037338256836,-5.458768844604492,0.1856471598148346,1.6533527374267578
380.3708713054657,156.15325927734375,-70.44645690917969,-110.21395874023438,-0.0788164734840393,-0.536979079246521,2.8070735931396484,173.34384155273438,-50.654884338378906,-66.4004898071289,-4.150066375732422,6.139875411987305,9.842613220214844,132.0230255126953,-49.99469757080078,107.09375762939452,2.4855294227600098,-2.4595165252685547,-0.9279260635375975,4.260931491851807,27.48346710205078,-52.25078201293945,17.794315338134766,9.225574493408203,-4.850813865661621,174.3808135986328,-80.952392578125,105.4277801513672,-12.915534973144531,1.321565866470337,-1.6233606338500977
380.3944160938263,161.4695281982422,-69.54375457763672,-116.21338653564452,1.8482961654663088,-1.051741361618042,0.456085205078125,178.0467071533203,-38.65909576416016,-67.42451477050781,-5.131834983825684,-0.8933975696563721,-0.6103010177612305,134.978759765625,-49.07776641845703,107.51980590820312,-0.9977304935455322,2.185286045074463,0.4983119964599609,9.40300464630127,23.391510009765625,-48.81339645385742,3.474236965179444,-6.04741096496582,-0.8385114669799805,-177.08628845214844,-79.79749298095703,102.71099853515624,-3.7692246437072754,0.1156970113515853,3.927720069885254
380.4249122142792,165.2667694091797,-69.06061553955078,-119.6575927734375,1.4836831092834473,-0.0872260332107544,0.6079854965209961,176.38088989257812,-26.945293426513672,-65.68920135498047,0.8466262817382812,-3.1441426277160645,-10.908479690551758,132.93997192382812,-47.50520324707031,110.63318634033205,-5.015168190002441,2.010605335235596,2.8885555267333984,23.59586334228516,21.25111198425293,-46.544700622558594,5.845099449157715,5.457230567932129,-8.545356750488281,-173.21539306640625,-79.09076690673828,101.72918701171876,4.884139060974121,4.230843544006348,1.2750349044799805
380.48442006111145,167.69363403320312,-68.96697235107422,-121.45826721191406,0.3503922820091247,0.1244160234928131,0.5222539901733398,172.8623046875,-17.997528076171875,-62.35776138305664,0.8491313457489014,-1.331333875656128,-9.697874069213867,129.5931854248047,-46.365509033203125,112.45494842529295,-5.510924339294434,2.307084083557129,1.2471742630004885,31.624643325805664,16.449481964111328,-43.40630340576172,7.530055999755859,4.2771406173706055,-5.575872421264648,-175.4474334716797,-78.47374725341797,104.40326690673828,-0.4924669861793518,3.108710765838623,-0.6757183074951172
380.5144202709198,170.3575897216797,-69.0519027709961,-123.30514526367188,-1.2117619514465332,1.320577621459961,0.4681806564331054,168.59164428710938,-11.889281272888184,-57.59128189086914,9.067726135253906,-2.365541458129883,-11.519294738769531,126.63883972167967,-45.95029067993164,113.08984375,-5.030683517456055,4.430272102355957,-1.38153076171875,34.58142852783203,9.572518348693848,-38.19600677490234,6.598918914794922,-1.75496244430542,-4.3207197189331055,-177.80567932128906,-77.99659729003906,105.80077362060548,-3.12573766708374,1.9971990585327148,1.930643081665039
380.5449388027191,172.51417541503906,-68.882080078125,-125.9080810546875,-1.4068264961242676,-0.3104400634765625,-0.6024417877197266,168.791259765625,-9.733153343200684,-53.31766891479492,13.234979629516602,-5.085145950317383,-12.339153289794922,123.68473815917967,-46.86068344116211,112.65269470214844,-4.467751502990723,3.8895764350891113,-4.554571151733398,38.93302917480469,2.284627676010132,-31.771629333496094,8.111064910888672,-5.025874137878418,0.5567293167114258,179.786865234375,-77.64400482177734,106.62713623046876,-1.375220537185669,2.7517199516296387,-2.1697025299072266
380.5760855674744,173.52552795410156,-67.78768920898438,-127.7608871459961,1.2681865692138672,-3.2442121505737305,-1.4004907608032229,172.8920135498047,-11.920466423034668,-50.74088668823242,11.762191772460938,-8.139877319335938,-17.105918884277344,120.98470306396484,-49.205020904541016,112.26581573486328,-2.211214542388916,3.695587158203125,-8.29362678527832,46.067604064941406,-3.729679822921753,-21.54483413696289,12.888521194458008,1.4179062843322754,-0.4751415252685547,177.02066040039062,-77.71353149414062,107.35318756103516,1.1107525825500488,1.6013844013214111,-7.483896255493164
380.6050841808319,174.412109375,-66.05599975585938,-127.56129455566406,2.903402805328369,-2.8159713745117188,-0.7716169357299805,175.63243103027344,-15.779666900634766,-49.37699508666992,8.876684188842773,-3.172640323638916,23.9094352722168,117.36174774169922,-52.986087799072266,112.66669464111328,-1.7648344039916992,3.905336856842041,-9.52595329284668,46.94768142700195,-10.236276626586914,-9.026182174682615,12.874937057495115,-0.6781150102615356,0.2143869400024414,172.87400817871094,-77.16587829589844,108.86429595947266,0.2753071188926697,-0.4308511018753052,-6.782881736755371
380.63518810272217,174.33128356933594,-63.81758117675781,-125.30944061279295,-0.8940062522888184,-0.3965270519256592,-0.6323890686035156,169.40577697753906,-14.997953414916992,-51.09088897705078,7.429472923278809,-14.893838882446287,-8.219320297241211,112.13465881347656,-57.44356536865234,113.0857391357422,-2.56911563873291,7.648256301879883,-9.513240814208984,46.15362930297852,-18.38379669189453,3.927489757537842,22.35110855102539,3.767995357513428,2.7057762145996094,163.6000213623047,-75.67650604248047,115.58927154541016,-2.874862670898437,-0.5899393558502197,-1.685664176940918
380.6651895046234,173.52862548828125,-60.8352165222168,-122.89080047607422,0.2455790340900421,-0.9766561985015868,-0.2414665222167968,165.0892333984375,-14.432868003845217,-54.245635986328125,16.721450805664062,-18.49044418334961,-1.0554285049438477,107.5876922607422,-62.355018615722656,114.85784149169922,-5.616809844970703,11.87826156616211,-8.049209594726562,42.67513656616211,-23.889787673950195,9.0992431640625,11.90206527709961,12.514698028564451,5.297514915466309,151.78765869140625,-75.27112579345703,125.1379623413086,-4.622091293334961,-2.2259416580200195,1.8365898132324217
380.6950659751892,173.23683166503906,-58.33229446411133,-121.36653137207033,0.3397676348686218,1.3119049072265625,0.6786746978759766,165.95753479003906,-14.164144515991213,-56.99877548217773,13.50250244140625,-23.54501342773437,2.557732582092285,103.47761535644533,-70.77576446533203,116.1615753173828,-10.516494750976562,18.63308334350586,1.0360727310180664,45.89620971679688,-23.1665096282959,2.272796869277954,18.118995666503903,-10.901947021484377,1.5025882720947266,143.48448181152344,-75.48704528808594,132.3815460205078,1.4843780994415283,1.9129624366760252,-1.9665675163269043
380.7250633239746,172.7875213623047,-56.631378173828125,-120.93318939208984,-1.752617359161377,1.9006190299987795,0.9744510650634766,167.0028533935547,-12.157953262329102,-59.56233215332031,18.973819732666016,-21.463409423828125,-1.5565338134765625,110.1269073486328,-83.48440551757812,107.29791259765624,-14.346990585327148,26.378707885742188,9.520833969116213,53.52003860473633,-17.39377784729004,-6.637211322784424,27.90152740478516,0.7231788635253906,6.365594863891602,138.83956909179688,-74.43877410888672,135.71658325195312,0.1722314655780792,1.2673115730285645,6.476396560668945
380.7856032848358,173.2096405029297,-55.72475051879883,-122.3747100830078,-0.7720110416412354,2.290886878967285,1.7386474609375,165.23667907714844,-8.186882972717285,-63.911903381347656,12.27676773071289,-12.747955322265623,-2.302182197570801,-103.19066619873048,-78.97889709472656,-38.92430877685547,-8.472463607788086,20.59851455688477,10.878042221069336,59.65990829467773,-7.856594085693359,-12.542792320251465,28.688312530517575,-5.084197044372559,-5.787228584289551,138.1479949951172,-73.70198822021484,134.40203857421875,-4.526560783386231,-0.3242793083190918,7.289409637451172
380.8149802684784,174.3448944091797,-55.85380554199219,-124.7709503173828,0.8677165508270264,0.9131016731262208,1.3904380798339844,158.1960906982422,-5.099054336547852,-67.05805206298828,7.158139228820801,-9.461252212524414,-1.4174566268920898,-99.69141387939452,-58.97542572021485,-46.37870788574219,-4.415970802307129,30.58575820922852,6.230634689331055,66.65501403808594,0.7622030377388,-8.487510681152344,17.401390075683594,-3.1910462379455566,-15.809358596801758,141.54385375976562,-73.84770202636719,129.22286987304688,0.5003829002380371,1.0765411853790283,5.824143409729004
