Timestamp,D4:22:CD:00:05:5D_EulerX,D4:22:CD:00:05:5D_EulerY,D4:22:CD:00:05:5D_EulerZ,D4:22:CD:00:05:5D_FreeAccX,D4:22:CD:00:05:5D_FreeAccY,D4:22:CD:00:05:5D_FreeAccZ,D4:22:CD:00:05:5E_EulerX,D4:22:CD:00:05:5E_EulerY,D4:22:CD:00:05:5E_EulerZ,D4:22:CD:00:05:5E_FreeAccX,D4:22:CD:00:05:5E_FreeAccY,D4:22:CD:00:05:5E_FreeAccZ,D4:22:CD:00:05:6B_EulerX,D4:22:CD:00:05:6B_EulerY,D4:22:CD:00:05:6B_EulerZ,D4:22:CD:00:05:6B_FreeAccX,D4:22:CD:00:05:6B_FreeAccY,D4:22:CD:00:05:6B_FreeAccZ,D4:22:CD:00:05:6E_EulerX,D4:22:CD:00:05:6E_EulerY,D4:22:CD:00:05:6E_EulerZ,D4:22:CD:00:05:6E_FreeAccX,D4:22:CD:00:05:6E_FreeAccY,D4:22:CD:00:05:6E_FreeAccZ,D4:22:CD:00:49:AA_EulerX,D4:22:CD:00:49:AA_EulerY,D4:22:CD:00:49:AA_EulerZ,D4:22:CD:00:49:AA_FreeAccX,D4:22:CD:00:49:AA_FreeAccY,D4:22:CD:00:49:AA_FreeAccZ
537.3466818332672,-163.8174285888672,-46.892799377441406,-54.401126861572266,-2.212003231048584,-0.4998537302017212,0.3354139328002929,154.83079528808594,8.091843605041504,-65.87089538574219,7.838893890380859,-19.388145446777344,-3.75407075881958,-152.2941436767578,-82.92839813232422,-151.92593383789062,6.595871925354004,-11.255170822143556,5.204422950744629,28.62451171875,-46.86577224731445,-89.77326202392578,4.089844703674316,-7.10222053527832,1.1601438522338867,133.80406188964844,-72.26600646972656,-177.66262817382812,-1.6357572078704834,0.9319241046905518,5.268506050109863
537.3599989414215,-164.93313598632812,-43.76727294921875,-51.60335540771485,0.0872174948453903,-1.8750770092010496,0.9350690841674804,154.74212646484375,9.766759872436523,-68.3556137084961,2.7840023040771484,-22.58885955810547,-2.2793917655944824,-94.59659576416016,-74.58256530761719,144.32870483398438,8.225442886352539,-17.397449493408203,22.555156707763672,26.86018943786621,-50.12601089477539,-91.84832000732422,-17.115615844726562,-19.022159576416016,-0.3660135269165039,134.37445068359375,-71.27469635009766,-179.10888671875,-2.038816452026367,-1.644502878189087,9.449527740478516
537.4137210845947,177.83055114746094,-53.64191436767578,23.97271728515625,0.1759745180606842,-1.5687534809112549,5.762446403503418,174.90736389160156,-85.56593322753906,-16.459339141845703,-4.8701887130737305,1.9631547927856443,14.361581802368164,-38.227909088134766,10.536066055297852,-94.55753326416016,-5.549755096435547,-20.940052032470703,20.08597946166992,71.30122375488281,-79.82501983642578,74.55415344238281,-5.5847673416137695,-5.382281303405762,10.575302124023438,85.19739532470703,-76.15724182128906,-176.52198791503906,-3.6020150184631348,-0.1374752223491668,9.169309616088867
537.4440681934357,179.56092834472656,-56.1534538269043,23.71020126342773,0.4108611941337585,-5.018494606018066,3.171262741088867,-162.32789611816406,-82.0630874633789,-39.12764358520508,-4.784318923950195,-4.901058197021484,7.16493034362793,-20.662473678588867,22.53795051574707,-88.9036636352539,-3.994194984436035,-27.009017944335938,10.292152404785156,99.55335235595705,-81.66704559326172,41.2486572265625,-2.1195878982543945,-12.349281311035156,8.439363479614258,89.7959976196289,-77.84281158447266,178.38963317871094,-6.190309524536133,-2.5962719917297363,7.287652969360352
537.4738585948944,-177.5758514404297,-60.63277053833008,21.73320579528809,1.3470091819763184,-4.31564998626709,5.151083946228027,167.24713134765625,-77.07796478271484,-5.617823600769043,2.751438617706299,7.405867576599121,6.780731201171875,-5.802307605743408,32.32755279541016,-84.92699432373047,0.1753463745117187,-20.74856948852539,-2.7006897926330566,105.21788024902344,-81.71930694580078,30.788375854492188,0.8533657789230347,-10.696069717407228,0.1988210678100586,101.1266632080078,-80.22386169433594,168.8892364501953,-3.931948661804199,-4.084414482116699,2.688945770263672
537.5043911933899,-176.19686889648438,-67.08098602294922,21.006742477416992,3.763396263122559,1.27866530418396,8.709234237670898,-171.73789978027344,-77.29553985595703,-17.45685577392578,-0.123400405049324,3.790468692779541,-1.2767763137817385,3.277342796325684,40.22139739990234,-82.0861587524414,0.840965747833252,-11.612180709838867,-5.73869514465332,94.19490814208984,-81.91702270507812,43.59797668457031,2.191322326660156,-5.559457778930664,-4.755644798278809,114.89283752441406,-82.69636535644531,158.5317840576172,-0.3964764475822449,-2.3993735313415527,-2.457345962524414
537.5638995170593,-173.7173309326172,-73.76042938232422,18.372663497924805,6.369013786315918,5.642848014831543,4.592704772949219,-148.054443359375,-77.51818084716797,-37.88146209716797,6.09902286529541,4.77691650390625,-8.829872131347656,10.162324905395508,46.48451232910156,-79.42196655273438,-2.5204572677612305,-6.022680282592773,-7.556901931762695,72.38368225097656,-83.21267700195312,72.7077407836914,-1.3853745460510254,-5.642574310302734,-7.210409164428711,142.87242126464844,-83.94216918945312,134.82809448242188,-1.2076356410980225,-0.1538845300674438,-6.345593452453613
537.5719001293182,-169.1186065673828,-80.85614776611328,7.728487968444824,3.958138942718506,2.731365203857422,-3.170228958129883,-108.43135833740234,-78.7147216796875,-77.60528564453125,8.5103759765625,2.914947509765625,-10.975173950195312,16.411439895629883,50.8221435546875,-76.81695556640625,-1.7931208610534668,-0.0163325071334838,-8.401229858398438,49.651100158691406,-82.70343780517578,105.22798919677734,-2.6364779472351074,-4.734609603881836,-8.597593307495117,166.78807067871094,-82.03595733642578,114.53863525390624,1.1800658702850342,2.532534599304199,-9.606039047241213
537.5942468643188,-160.74093627929688,-84.69610595703125,-0.8683013319969177,-7.950806617736816,6.024191856384277,-14.10749053955078,-61.83747482299805,-74.28207397460938,-126.64727020263672,5.411394119262695,2.1741037368774414,-10.12461280822754,19.094074249267575,52.79948043823242,-77.00220489501953,-0.983872413635254,5.315888404846191,-6.636870384216309,41.39381408691406,-80.98550415039062,122.97364807128906,-1.6207993030548096,-4.816975593566895,-9.391927719116213,170.5167999267578,-79.28685760498047,112.51033782958984,2.750035285949707,-0.0355768874287605,-10.456890106201172
537.6243574619293,-160.8333740234375,-85.33700561523438,3.685367822647095,0.4568794369697571,3.989701747894287,-6.802241325378418,-39.47825622558594,-64.28483581542969,-152.2982635498047,-2.7303147315979004,-2.8269529342651367,-8.538579940795898,17.373249053955078,52.35274124145508,-85.84986877441406,3.673340797424317,6.288471221923828,-7.641663551330566,41.97251892089844,-79.30796813964844,129.43910217285156,-0.3968190550804138,-5.162410736083984,-9.696922302246094,171.9099884033203,-78.66690063476562,111.50515747070312,0.6281766891479492,-1.9155750274658203,-7.1916351318359375
537.6835467815399,-169.16815185546875,-85.63228607177734,15.319117546081545,-0.2299855053424835,-3.726106643676758,-9.113277435302734,-32.583984375,-53.99122619628906,-166.1570281982422,-12.761333465576172,-7.001737594604492,-11.259519577026367,10.101799964904783,48.24870681762695,-104.26931762695312,5.352054595947266,-1.370746612548828,-11.333057403564451,43.88393783569336,-78.34144592285156,131.53927612304688,1.0222499370574951,-5.311583518981934,-8.275491714477539,172.19442749023438,-79.8094482421875,111.73976135253906,-0.2462986409664154,0.3044278621673584,-7.995680809020996
537.7141704559326,175.26559448242188,-83.44318389892578,32.447540283203125,-17.849002838134766,-15.432901382446287,-3.808570384979248,-34.611175537109375,-45.83864212036133,-175.42816162109375,-21.88449478149414,0.0696014910936355,-12.75905990600586,0.0873474702239036,38.79829788208008,-126.510009765625,-6.477289199829102,-8.80781364440918,-17.255229949951172,42.71797561645508,-78.0802001953125,134.0845184326172,2.880460739135742,-3.616753578186035,-4.252457618713379,174.34910583496094,-81.20038604736328,111.50115966796876,-4.494536399841309,1.1745688915252686,-5.545806884765625
537.7441740036011,168.07308959960938,-79.56433868408203,44.42665100097656,1.837186813354492,-0.0951322019100189,-0.5837497711181641,-33.8332633972168,-40.12049865722656,178.374755859375,-20.94326400756836,6.408029556274414,-11.807693481445312,-8.680262565612793,26.320261001586918,-147.10546875,-25.81793975830078,-17.134674072265625,-35.37586212158203,38.06656646728516,-78.39691925048828,140.4304962158203,2.900613784790039,-1.1327900886535645,0.33721923828125,-176.7447509765625,-81.6527328491211,106.4614715576172,-3.81547737121582,-0.2697906494140625,1.1373558044433594
537.7743391990662,163.76243591308594,-76.32616424560547,51.33782958984375,2.4931116104125977,1.772155523300171,2.08475399017334,-29.324655532836918,-38.52962875366211,175.37103271484375,-21.83995819091797,3.918645858764648,-31.075244903564453,-11.354228019714355,24.22193145751953,-154.73556518554688,-3.57091760635376,14.704172134399414,-4.298966407775879,40.25547409057617,-79.12196350097656,142.69210815429688,1.65783429145813,-1.4969971179962158,0.927769660949707,-175.5170440673828,-81.14830017089844,105.9705810546875,0.8294588327407837,1.710038423538208,3.6572771072387695
537.8036804199219,158.96823120117188,-73.48387145996094,56.23064804077149,4.4305419921875,-0.2632396817207336,4.262603759765625,-36.21540832519531,-45.866661071777344,178.09780883789062,-21.95614624023437,-0.6647613048553467,-26.63705062866211,-5.134894371032715,28.77036476135254,-143.9751434326172,1.2335619926452637,4.621035575866699,-8.301582336425781,57.26039505004883,-81.38684844970703,129.47569274902344,6.86308479309082,-0.4137277603149414,2.626811981201172,176.85711669921875,-82.31339263916016,110.9264678955078,0.3820500373840332,-3.106519222259521,-0.7944164276123047
537.8341994285583,153.6990203857422,-70.41552734375,61.73512268066406,1.541435956954956,3.344331741333008,4.359210968017578,-53.186893463134766,-57.0302619934082,-171.19175720214844,4.528754234313965,2.3107175827026367,35.75830078125,-2.826141595840454,32.01357650756836,-126.22748565673828,-13.165231704711914,-3.3370370864868164,-16.68667221069336,91.2724151611328,-82.61486053466797,95.61903381347656,7.796894073486328,-4.0853424072265625,2.7396774291992188,164.72091674804688,-81.9713363647461,118.61537170410156,-2.368732452392578,-0.6369806528091431,1.899310111999512
537.8641877174377,148.1761474609375,-68.77456665039062,69.3344497680664,-0.730411171913147,-2.9937686920166016,4.424167633056641,-43.41104888916016,-62.1175537109375,-170.3507080078125,-1.762061595916748,-12.733545303344728,3.917536735534668,2.696443796157837,30.01620864868164,-105.95223236083984,-6.44492244720459,-2.3422322273254395,-13.485319137573242,120.02043914794922,-80.97640228271484,60.84806442260742,5.797585487365723,-0.4519449472427368,2.13801383972168,160.91604614257812,-81.39659118652344,120.06095886230467,-7.61079216003418,-1.0682716369628906,5.635904312133789
537.8941888809204,140.7090301513672,-68.67305755615234,78.0443115234375,-1.1955654621124268,0.6658363342285156,3.56142520904541,-52.95235061645508,-67.64117431640625,-164.87742614746094,-0.0895617008209228,5.898715972900391,14.15004539489746,6.956154823303223,22.82888984680176,-88.80460357666016,-8.770099639892578,-2.576650619506836,-9.430370330810549,129.96878051757812,-78.2870864868164,42.75980758666992,8.066089630126953,4.087385177612305,3.632340431213379,154.4406280517578,-81.019287109375,123.88086700439452,3.268002510070801,-0.8288565874099731,0.4985609054565429
537.9244775772095,127.12439727783205,-70.40771484375,85.88497161865234,-0.4958054423332214,1.9784634113311768,-0.3343629837036133,-67.54524993896484,-70.81218719482422,-154.9542694091797,-7.752963066101074,-3.3462533950805664,-0.2688398361206054,11.383042335510254,14.629874229431152,-76.18302154541016,-0.1835302412509918,1.1310501098632812,-4.432485580444336,126.0315933227539,-75.69808959960938,39.826698303222656,4.641016960144043,5.449156761169434,-0.3947219848632812,151.25003051757812,-79.28663635253906,121.05518341064452,10.27431297302246,-3.413859844207764,-2.732180118560791
537.9857561588287,118.72283935546876,-70.79131317138672,84.46673583984375,-13.96198844909668,5.129240989685059,1.569143295288086,-75.04936981201172,-73.02448272705078,-147.49278259277344,-3.9974112510681152,-0.1309381425380706,-2.51418399810791,8.101977348327637,6.25272274017334,-65.10629272460938,5.258722305297852,7.337250709533691,-1.5386667251586914,117.5483627319336,-74.41789245605469,41.79072189331055,1.640470266342163,7.251282691955566,-3.071377754211426,153.5714874267578,-76.70767974853516,112.08181762695312,5.146766662597656,-5.4809675216674805,2.007330894470215
538.0143957138062,122.40267181396484,-68.22496795654297,68.14167785644531,-31.187305450439453,2.4570746421813965,4.909938812255859,-85.56407928466797,-74.0069808959961,-137.08917236328125,-7.18211555480957,-4.448752403259277,0.1910743713378906,-4.5780558586120605,-1.3775314092636108,-53.89486312866211,-0.0326666831970214,9.476192474365234,1.003591537475586,109.44754791259766,-74.77924346923828,46.00288009643555,-1.0315499305725098,3.443169116973877,-0.5271015167236328,158.9060516357422,-76.54756927490234,105.44393157958984,-3.9586825370788574,-0.8513145446777344,1.6608200073242188
538.044171333313,135.5928497314453,-59.41522216796875,46.55550384521485,-17.603984832763672,8.721235275268555,4.736504554748535,-96.45531463623048,-74.31383514404297,-126.7003936767578,-4.101922988891602,0.0055941939353942,-0.9845418930053712,-21.280092239379883,-8.588658332824707,-42.55582427978516,1.739811658859253,8.47126579284668,-3.1519641876220703,100.859130859375,-75.36351776123047,53.682498931884766,-4.787854194641113,2.67252779006958,0.3813848495483398,159.96392822265625,-77.57804870605469,103.20794677734376,2.4824256896972656,3.933805465698242,-3.8287291526794434
538.074170589447,145.50027465820312,-47.57688903808594,31.23702049255371,-5.180281639099121,6.6378173828125,-2.855149745941162,-103.894775390625,-74.14205932617188,-118.5447769165039,-4.677465438842773,-0.7642576694488525,-0.7181053161621094,-41.28289031982422,-15.145304679870604,-31.342212677001957,-5.558816909790039,-7.447630882263184,5.86167049407959,92.9173812866211,-75.06307983398438,63.03375244140625,-3.87380313873291,3.011328220367432,-1.0934171676635742,162.52378845214844,-77.90766906738281,99.75743103027344,5.355195999145508,0.992396593093872,0.4886293411254883
538.1043617725372,152.43878173828125,-35.31540298461914,21.01822662353516,2.0887041091918945,1.3512864112854004,-7.098440170288086,-110.6850357055664,-73.4166259765625,-111.11477661132812,-4.645604133605957,-2.277493476867676,-1.114421844482422,-52.97993850708008,-19.1370906829834,-21.582639694213867,0.6575864553451538,0.7581976652145386,6.171818733215332,87.96305847167969,-73.7394027709961,71.69989776611328,-3.565330982208252,1.6180419921875,-2.307113647460937,165.1212921142578,-78.1644058227539,96.87621307373048,0.658461332321167,1.1695594787597656,-0.4357509613037109
538.1339085102081,157.88455200195312,-24.42867660522461,13.954561233520508,2.5992431640625,1.232424259185791,-11.227954864501951,-117.58779907226562,-71.81255340576172,-104.1675262451172,-4.649433135986328,0.7436679601669312,-2.872535228729248,-62.54946517944336,-21.444379806518555,-14.74221897125244,-0.059861421585083,4.035524368286133,-0.2902059555053711,85.62754821777344,-71.69651794433594,78.24334716796875,-2.4456706047058105,-0.2883006334304809,-3.147314548492432,169.43923950195312,-78.50382995605469,92.9390869140625,-0.6538965702056885,0.7578189373016357,-3.717994213104248
538.1645064353943,161.26698303222656,-16.211618423461914,7.873103618621826,2.8477625846862797,-2.132030487060547,-6.026651382446289,-122.54502868652344,-69.61351776123047,-99.3840103149414,-4.359931945800781,-1.438101291656494,-1.6307134628295898,-69.91746520996094,-24.533790588378903,-10.462997436523438,-0.6077961921691895,2.775749683380127,-0.5926122665405273,84.34270477294922,-69.41179656982422,84.02037811279297,0.8989119529724121,0.5782895088195801,-2.042738914489746,176.83091735839844,-78.64652252197266,86.70336151123047,1.7097971439361572,-0.229250818490982,-3.4348034858703613
538.193498134613,160.61297607421875,-13.333813667297363,2.7086052894592285,7.956526756286621,-6.907628059387207,-13.199504852294922,-127.38874053955078,-66.88660430908203,-95.4824447631836,-4.53836727142334,-0.455903947353363,0.052809715270996,-72.4727783203125,-30.845048904418945,-7.222541809082031,2.4855799674987797,1.702558517456055,-0.4909143447875976,88.97989654541016,-66.4775390625,91.17770385742188,4.984163284301758,4.829893112182617,0.2586507797241211,-175.04971313476562,-78.8826904296875,79.7500991821289,4.015671730041504,-0.6799917221069336,-0.1749343872070312
538.224366903305,157.40501403808594,-16.006732940673828,-0.4090543389320373,14.33078384399414,-8.572742462158203,-15.960378646850586,-131.22364807128906,-64.39031219482422,-92.74786376953124,-4.299391746520996,-0.0846463590860366,0.3548583984375,-69.84111022949219,-42.09551239013672,-5.288036823272705,7.901442527770996,2.703697204589844,8.159570693969727,102.08160400390624,-60.88702392578125,102.24424743652344,-2.400468349456787,0.9701147079467772,8.70448112487793,-165.48687744140625,-79.88111877441406,71.03082275390625,4.152304649353027,-0.3995159864425659,0.2173080444335937
538.2835628986359,157.87850952148438,-21.338436126708984,-1.713327407836914,12.149858474731444,-4.246091842651367,23.641258239746094,-134.47825622558594,-63.00797653198242,-90.06575012207031,-5.770511627197266,-0.9185810089111328,-0.1149845123291015,-52.10650634765625,-56.33292007446289,-10.708413124084473,11.22130012512207,0.6115217208862305,26.62487030029297,118.87377166748048,-48.84547805786133,113.66216278076172,4.376592636108398,-9.694341659545898,18.060592651367188,-160.25460815429688,-80.28788757324219,65.63447570800781,1.0014593601226809,-0.4779035449028015,2.7806472778320312
538.3144052028656,158.4739990234375,-23.734453201293945,1.2613054513931274,27.483470916748047,-5.360968589782715,4.769011497497559,-137.5094451904297,-63.60773468017578,-86.64794921875,-4.140753746032715,0.5800570249557495,1.164287567138672,-33.746612548828125,-62.45177459716797,-21.72246360778809,22.243675231933597,-2.492218017578125,12.175334930419922,132.49143981933594,-33.48552703857422,122.82079315185548,31.49999237060547,8.328634262084961,26.93457794189453,-160.0107421875,-79.99470520019531,64.78784942626953,-2.193376064300537,0.1316737234592437,4.025957107543945
538.3434178829193,161.83448791503906,-22.98643493652344,4.7056403160095215,23.494369506835938,-11.574983596801758,11.010190963745115,-141.048095703125,-65.41062927246094,-82.95529174804688,-6.581818580627441,-0.3600339889526367,-0.5075769424438477,-42.071720123291016,-57.79531478881836,-19.31222343444824,21.693500518798828,-12.57891845703125,9.864370346069336,135.88621520996094,-17.354183197021484,126.73943328857422,18.22510528564453,2.283604145050049,16.49447250366211,-164.44464111328125,-78.87801361083984,69.06521606445312,-1.1455574035644531,1.3985469341278076,10.279186248779297
538.373521566391,163.29544067382812,-19.114376068115234,7.95960807800293,21.591087341308597,-8.513191223144531,10.419206619262695,-143.4071044921875,-67.9228744506836,-80.83106994628906,-5.944380760192871,-0.4276531338691711,-0.0335168838500976,-52.36978530883789,-50.09717559814453,-18.03985595703125,7.716578483581543,-9.99978256225586,12.123003005981444,137.95309448242188,2.177558422088623,126.44249725341795,12.037403106689451,7.553753852844238,25.977718353271484,-165.382568359375,-78.62713623046875,70.73724365234375,0.1726054251194,0.4679350852966308,6.251201629638672
538.4038605690002,164.8267059326172,-14.56483554840088,10.60292148590088,13.032438278198242,3.887515068054199,9.483871459960938,-144.3449249267578,-71.13240814208984,-81.00373077392578,-6.650567054748535,0.2096571624279022,0.9752521514892578,-60.45103454589844,-45.02700805664063,-22.612403869628903,0.9162797927856444,-5.488042831420898,8.025199890136719,128.6119384765625,23.842060089111328,124.29206848144533,-10.246213912963867,13.199226379394531,13.49260139465332,-168.8644561767578,-78.09716033935547,74.79109191894531,4.185956954956055,0.3228671550750732,5.607593536376953
538.4343264102936,162.2626190185547,-12.23208999633789,11.694469451904297,6.938321113586426,-1.0784695148468018,4.541637420654297,-141.67434692382812,-75.53084564208984,-85.88309478759766,-5.656012535095215,0.6060812473297119,4.006170272827148,-67.61058044433594,-44.524192810058594,-30.73267936706543,-3.6126651763916016,-3.417498588562012,-0.4972286224365234,110.8987045288086,43.86223983764648,120.11074829101562,-14.159278869628906,12.065149307250977,-5.127091407775879,-177.34811401367188,-77.20069122314453,81.86305236816406,6.790070533752441,0.7508132457733154,5.114131927490234
538.4635710716248,160.39300537109375,-12.729591369628906,12.443399429321287,0.7426096200942993,2.025717258453369,-4.914303779602051,-129.78089904785156,-80.65737915039062,-99.35759735107422,-1.5192975997924805,-1.1532106399536133,11.49851417541504,-72.3874282836914,-49.482513427734375,-40.95463943481445,-8.848188400268555,-0.2137806415557861,1.8766098022460935,89.80004119873047,60.029544830322266,114.4032974243164,-11.977628707885742,-1.0042433738708496,-15.954496383666992,177.2872772216797,-75.32701873779297,84.30369567871094,5.035066604614258,0.6287950277328491,3.283616065979004
538.4947459697723,161.11822509765625,-16.739063262939453,12.886064529418944,-0.4535549879074096,0.2608650326728821,-11.93431282043457,-75.07014465332031,-83.3395004272461,-150.056396484375,-4.03917121887207,4.882720947265625,-2.292553424835205,-74.99102020263672,-57.6400146484375,-52.115081787109375,-8.520002365112305,5.202845573425293,2.592714309692383,66.23702239990234,70.78247833251953,103.3981475830078,-1.420665979385376,-8.199346542358398,-13.678171157836914,175.48031616210938,-73.5484619140625,83.8077392578125,2.224785327911377,-0.7301026582717896,0.8067407608032227
538.5244708061218,161.38087463378906,-24.6530818939209,12.964325904846191,1.7024354934692385,-1.7295811176300049,-14.205598831176758,-79.63018798828125,-80.99964141845703,-147.62594604492188,-4.227658271789551,10.50604248046875,-7.528277397155762,-71.65213775634766,-67.23896026611328,-66.6347885131836,-5.224796295166016,7.018929481506348,-0.7533454895019531,43.03780746459961,76.75959777832031,86.24687957763672,5.560456275939941,-2.02225399017334,-8.549463272094727,175.36715698242188,-72.16515350341797,83.41216278076172,-0.6334153413772583,-1.1073484420776367,-2.1373119354248047
538.5841634273529,159.27102661132812,-35.584964752197266,12.93204116821289,3.1519603729248047,-1.4641318321228027,-12.635684967041016,-94.04246520996094,-75.7892837524414,-134.9559783935547,4.434605598449707,-0.2557846307754516,-8.000551223754883,-54.83404541015625,-75.87100219726562,-91.7345199584961,-4.024059295654297,5.584589958190918,-3.753256320953369,19.718189239501957,80.29930114746094,66.68856048583984,2.6249241828918457,-0.0527992323040962,-6.108599662780762,176.26536560058594,-71.861328125,82.7967529296875,0.3827365040779114,0.2237949073314666,-7.724699020385742
538.6147782802582,155.4507293701172,-48.25504302978516,12.87162971496582,2.9457712173461914,-0.0834655910730362,-9.488819122314451,-101.29792022705078,-71.7157974243164,-135.55242919921875,-1.0453886985778809,-7.42618465423584,-13.801372528076172,-20.88712882995605,-79.90203857421875,-132.9637908935547,-4.054314613342285,5.690897941589356,-7.128554344177246,4.570097923278809,81.69967651367188,53.951622009277344,3.34332275390625,-2.126351356506348,-4.763313293457031,174.72080993652344,-72.05597686767578,83.31912994384766,4.452492713928223,2.72957706451416,-11.63372802734375
538.6437947750092,154.00241088867188,-61.84724044799805,11.826652526855469,-0.5412356853485107,0.6788039207458496,-3.781330585479736,-113.09678649902344,-69.69257354736328,-134.6223907470703,-17.164825439453125,0.0437928885221481,-4.474020004272461,11.19405460357666,-79.16035461425781,-170.80654907226562,-2.175692081451416,6.037763595581055,-8.830406188964844,21.718212127685547,82.74713134765625,71.65472412109375,2.183816909790039,-1.2620446681976318,-6.551394462585449,168.26528930664062,-73.5069351196289,86.2274398803711,4.963595390319824,1.599898099899292,-8.244524002075195
538.674122095108,154.64173889160156,-75.94239807128906,7.206567764282227,-2.903120994567871,-4.068419456481934,3.354219436645508,-122.73014068603516,-68.05821228027344,-131.433349609375,-7.465529441833496,-6.027679443359375,-10.29343032836914,29.20858383178711,-76.97280883789062,166.968505859375,0.1819938421249389,4.415824890136719,-9.036178588867188,65.78688049316406,79.82382202148438,117.57269287109376,-0.1622082889080047,-0.1933382749557495,-9.52640151977539,160.54141235351562,-74.8733901977539,90.55318450927734,-0.5666220188140869,-0.0426166430115699,-9.616325378417969
538.7042136192322,129.3039093017578,-87.67964935302734,31.719446182250977,-5.972108840942383,1.4987668991088867,6.444160461425781,-126.16451263427734,-66.15524291992188,-127.95677947998048,-4.49417781829834,-6.779973983764648,-1.2970056533813477,37.97454452514648,-74.78539276123047,154.68873596191406,1.4856791496276855,3.843041896820069,-8.268430709838867,83.93754577636719,69.35490417480469,141.59042358398438,-5.95967960357666,0.5273171663284302,-13.336475372314451,156.89979553222656,-75.18426513671875,91.72267150878906,-3.3149280548095703,-1.450056552886963,-4.93089771270752
538.7338442802429,16.0964298248291,-82.71471405029297,153.61790466308594,-15.903919219970703,6.406911849975586,-0.1263628005981445,-130.10781860351562,-62.909156799316406,-124.13228607177734,-0.8315960168838501,-0.4651925563812256,3.870499610900879,44.451568603515625,-72.33549499511719,145.55943298339844,1.4820148944854736,4.524941444396973,-5.473047256469727,80.5408706665039,54.417816162109375,150.4476776123047,-15.241092681884766,5.836837768554688,-18.327301025390625,158.05648803710938,-76.0272445678711,89.5645523071289,-2.6136250495910645,-1.520094871520996,-0.0013341903686523
538.7639422416687,28.962081909179688,-79.59614562988281,147.9414825439453,-23.226547241210938,-6.170675277709961,-11.141220092773438,-132.77154541015625,-59.87481689453125,-122.54845428466795,-9.023134231567385,-2.4693188667297363,3.5290603637695312,50.55596160888672,-69.4299087524414,137.29359436035156,1.6349716186523438,4.316550254821777,-4.620307922363281,71.25390625,42.89206314086914,156.33566284179688,-8.523258209228516,10.210933685302734,-10.289182662963867,163.05970764160156,-77.12120056152344,86.30937194824219,2.030740737915039,-2.2035083770751958,0.0800209045410156
538.7939460277557,59.355804443359375,-81.80729675292969,118.60370635986328,-6.9706621170043945,10.13470458984375,6.365550994873047,-131.7050323486328,-57.67338562011719,-122.72180938720705,-6.567461013793945,-1.0553858280181885,3.5426321029663086,55.21917724609375,-66.93269348144531,128.9271697998047,0.4809058904647827,4.122846603393555,-2.1429338455200195,73.12821197509766,43.4821662902832,156.05380249023438,6.12619686126709,1.846813440322876,-0.6797866821289062,165.56625366210938,-78.17902374267578,85.32769012451172,8.465673446655273,0.7077580690383911,5.356638908386231
538.8245484828949,97.30445098876952,-82.71845245361328,82.17318725585938,13.195255279541016,5.723217964172363,8.322813034057617,-128.8632354736328,-56.49877548217773,-126.03235626220705,-6.973605155944824,0.9563068151474,1.3969383239746094,60.955265045166016,-65.45967102050781,118.6008529663086,-0.6206634044647217,9.45744514465332,5.419853210449219,82.67371368408203,53.156349182128906,148.2776641845703,-4.90755558013916,4.235332489013672,-4.495370864868164,168.26844787597656,-77.556884765625,81.2979965209961,9.083749771118164,0.6670136451721191,10.325447082519531
538.8844702243805,116.73443603515624,-82.72840881347656,62.16149139404297,6.403473854064941,4.968174934387207,7.935653686523437,-121.76061248779295,-57.3069953918457,-132.19491577148438,-9.201942443847656,-3.8745155334472656,5.641177177429199,70.43450927734375,-64.7403564453125,108.10246276855467,1.90076208114624,12.156972885131836,11.955698013305664,86.81680297851562,66.21552276611328,134.1478271484375,-14.167346954345703,5.9087114334106445,-9.78013038635254,170.32020568847656,-76.5599365234375,79.14768981933594,0.7921901941299438,0.505551815032959,4.105279922485352
538.9144639968872,138.88145446777344,-80.9828872680664,42.64719009399414,1.7762792110443115,-3.682559967041016,-0.7113180160522461,-106.22634887695312,-59.11198043823242,-143.9893341064453,-5.047342300415039,-6.188568115234375,-2.7447400093078613,81.98897552490234,-65.33817291259766,101.78105926513672,2.3267879486083984,7.773566246032715,8.533136367797852,63.8785514831543,75.87783813476562,99.76114654541016,-16.005271911621094,6.158860206604004,-0.9119997024536132,170.2657012939453,-75.29607391357422,80.7408676147461,-0.5208115577697754,-0.0356272906064987,3.0619516372680664
538.9444744586945,154.46115112304688,-79.75588989257812,29.102691650390625,-0.2406788468360901,-2.9887733459472656,0.6181640625,-89.40972137451172,-58.33290481567383,-149.25405883789062,-16.94141387939453,9.533546447753906,-9.057170867919922,91.60567474365234,-67.60689544677734,99.4178466796875,-0.0555046796798706,0.026851151138544,4.054789543151856,13.064568519592283,73.46537017822266,53.5299186706543,-1.123579502105713,-5.00560188293457,-1.3972644805908203,168.93814086914062,-73.78047180175781,83.25162506103516,-1.5749025344848633,1.906643629074097,-0.2963666915893554
538.9739537239075,166.739501953125,-78.84530639648438,16.852279663085938,1.7722766399383545,-0.7518525123596191,-0.2476425170898437,-86.6718521118164,-56.38424301147461,-138.62574768066406,-41.260841369628906,8.221431732177734,-12.242820739746094,98.0142593383789,-69.74164581298828,95.6058349609375,0.7341550588607788,-4.546854019165039,0.9320545196533204,-9.845488548278809,65.8681869506836,36.192195892333984,10.106803894042969,-6.392282485961914,-1.4546737670898438,170.42474365234375,-72.55401611328125,85.05387115478516,-4.207498550415039,-2.207615375518799,-4.044386863708496
539.0042271614075,174.9840545654297,-77.51387786865234,8.541862487792969,1.9226582050323489,3.2366042137146,-0.940587043762207,-100.1699447631836,-53.02131652832031,-116.8344955444336,-22.46566772460937,-3.481142044067383,-2.8528928756713867,104.69599151611328,-69.78775024414062,90.8530044555664,4.250554084777832,-1.2657482624053955,-5.4050493240356445,-15.326034545898438,60.12179183959961,26.8071231842041,12.57802391052246,-6.785324096679688,3.3069372177124023,173.28695678710938,-71.71257781982422,86.23626708984375,-2.566680908203125,-1.064826250076294,-4.222827911376953
539.0378088951111,179.83343505859375,-75.67388153076172,5.20725154876709,0.1944821178913116,1.7853741645812988,0.2994022369384765,-113.63937377929688,-48.93876266479492,-96.1083526611328,-8.636478424072266,-9.049474716186523,-10.76249885559082,110.49918365478516,-68.88999938964844,89.49481201171875,1.301100254058838,-3.4713501930236816,-6.321442604064941,-4.6972198486328125,57.48247146606445,21.698326110839844,5.080301284790039,-11.11046028137207,1.1441221237182615,172.45066833496094,-71.3302993774414,88.40789794921875,0.3858233690261841,2.673994541168213,-1.766801834106445
539.0638511180878,-178.7052001953125,-73.79358673095703,5.357921600341797,0.8288850784301758,-0.1078718900680542,0.0573034286499023,-128.61007690429688,-45.22636413574219,-78.57330322265625,1.8418638706207275,-7.1492414474487305,-13.67925262451172,111.66151428222656,-67.88865661621094,90.5702896118164,-4.76381778717041,-3.757129669189453,-1.1095008850097656,12.440460205078123,55.74696350097656,22.771345138549805,-3.942732810974121,-3.137084484100342,-1.6327972412109375,169.44297790527344,-71.1191177368164,90.93785858154295,-1.5164308547973633,2.04899263381958,0.3434410095214844
539.0940494537354,-178.19314575195312,-72.0161361694336,5.907151699066162,0.7967983484268188,-0.4857546091079712,0.3184146881103515,-143.9804229736328,-42.98377990722656,-66.15648651123047,6.202802658081055,-4.030581474304199,-13.463563919067385,106.7044906616211,-66.88580322265625,92.03732299804688,-8.014190673828125,2.5945725440979004,1.0332555770874023,30.0504207611084,51.68622589111328,30.40713882446289,-0.4751608371734619,-4.9860382080078125,-3.941672325134277,166.18060302734375,-70.92544555664062,93.65144348144533,-3.5569939613342285,2.9396657943725586,2.204218864440918
539.1236588954926,-177.3709259033203,-70.55128479003906,5.946876525878906,0.3820965886116028,-0.4768826961517334,0.4275770187377929,-156.9375,-45.09591293334961,-57.14859390258789,7.137592315673828,-3.527148723602295,-4.468085289001465,100.58184814453124,-66.5084228515625,93.13785552978516,-5.256818771362305,5.882139205932617,0.132603645324707,45.99333190917969,43.26880645751953,39.61299896240234,-0.3119572401046753,-0.1153056919574737,-5.6027021408081055,163.5410614013672,-71.08015441894531,96.52015686035156,-3.137000560760498,1.6282896995544434,0.7161445617675781
539.1841135025024,-176.8045654296875,-69.3655014038086,5.914984226226807,0.4637231230735779,-0.1064184010028839,0.2294216156005859,-166.12637329101562,-51.63655471801758,-49.43143081665039,13.683076858520508,-2.4218287467956543,0.0331106185913085,95.45870971679688,-67.13372039794922,94.12802124023438,-3.4184017181396484,5.6737871170043945,-0.7379512786865234,56.03937149047852,30.09746551513672,46.30221557617188,2.8450708389282227,0.9868286848068236,-8.706724166870117,160.3089599609375,-71.53018951416016,100.3992691040039,-1.1239871978759766,0.3996281623840332,0.4449405670166015
539.2131235599518,-176.84242248535156,-68.08977508544922,5.981072425842285,1.7388405799865725,-1.2158207893371582,-0.1718225479125976,-171.45025634765625,-59.82242965698242,-43.27823257446289,2.863041400909424,6.600807189941406,10.617494583129885,90.0654067993164,-69.07569885253906,94.98219299316406,-2.4594197273254395,5.031192779541016,-2.5341591835021973,63.05065155029297,13.00671100616455,51.092918395996094,8.22838020324707,5.587275505065918,-9.597467422485352,154.8610382080078,-72.00370788574219,106.25579071044922,-1.0863327980041504,0.1044860482215881,-1.0009546279907229
539.2437379360199,-177.6542510986328,-66.296630859375,6.160750865936279,2.5916314125061035,1.337784767150879,-0.8741083145141602,-172.0413818359375,-61.11524963378906,-42.83520126342773,18.500572204589844,0.8503190279006958,0.7629919052124023,82.40106964111328,-72.68622589111328,98.23811340332033,1.345616579055786,8.42652702331543,-3.659286975860596,68.28881072998047,-7.695163726806641,56.71751403808594,14.565679550170898,17.166851043701172,-2.7278547286987305,147.19056701660156,-71.98930358886719,114.39129638671876,-1.062218189239502,-0.3685886263847351,-6.374425888061523
539.273829460144,-178.89743041992188,-63.74175262451172,7.800167560577393,2.948428153991699,3.4850172996521,-1.5127553939819336,-172.56924438476562,-61.685665130615234,-43.28899002075195,7.602017402648926,0.3633451461791992,1.543004035949707,63.01270294189453,-77.20150756835938,113.27961730957033,1.6539342403411863,8.273702621459961,-6.294971466064453,70.23038482666016,-30.762922286987305,63.68756866455078,20.01090240478516,36.37049865722656,18.64170837402344,140.21995544433594,-71.34510803222656,122.3573760986328,1.7858006954193115,-0.6221847534179688,-7.370474815368652
539.3038427829742,-179.13546752929688,-60.62252807617188,10.007983207702637,0.2296267747879028,-0.9001981019973755,0.2276163101196289,-172.81350708007812,-61.76726531982422,-44.05593490600586,1.1831133365631104,-4.269756317138672,9.362091064453123,16.44540023803711,-80.16537475585938,156.8674774169922,6.767580986022949,16.078052520751953,-5.0712738037109375,67.294189453125,-40.0343132019043,62.59099197387695,-13.913381576538086,-7.818593025207519,20.480247497558597,135.5032196044922,-70.2921371459961,127.94649505615234,2.706145763397217,2.6412463188171387,1.0110979080200195
539.3340623378754,-178.95046997070312,-57.01401901245117,11.470619201660156,1.9857776165008545,0.0192834958434104,-0.7897167205810547,-172.98501586914062,-60.0877685546875,-45.92703628540039,-4.15753173828125,-8.83333969116211,10.673824310302734,-28.29970359802246,-73.77542114257812,-154.8667755126953,18.27196884155273,20.589561462402344,16.483924865722656,69.68510437011719,-38.52581024169922,57.4796028137207,27.7338981628418,17.677520751953125,-16.861530303955078,131.1177520751953,-69.84762573242188,132.32212829589844,2.171670436859131,2.1670680046081543,2.507543563842773
539.363555431366,-178.13201904296875,-53.85860061645508,11.533992767333984,0.4000018835067749,-1.0338447093963623,1.2226409912109375,-170.45408630371094,-57.251068115234375,-47.31630325317383,-2.7170629501342773,-7.048890113830566,12.675363540649414,-37.87876892089844,-59.30649185180664,-137.36436462402344,3.382047176361084,8.511510848999023,11.3524169921875,81.45646667480469,-38.82490539550781,58.68775177001953,-0.496218204498291,9.042476654052734,18.427589416503903,130.08090209960938,-70.3339614868164,132.50778198242188,-6.356113433837891,3.0813851356506348,10.094141006469728
539.3935978412628,-177.51132202148438,-52.27741622924805,10.700150489807127,-0.744270920753479,-0.3508551716804504,2.315694808959961,-165.91546630859375,-52.44655227661133,-48.86303329467773,5.793761253356934,-10.632009506225586,15.717313766479492,-46.62974166870117,-41.797611236572266,-125.05099487304688,5.020030975341797,19.252525329589844,30.54478454589844,77.54971313476562,-43.066871643066406,60.18980026245117,18.10647201538086,17.20871353149414,2.79556941986084,132.2584228515625,-71.48741149902344,129.4489288330078,-1.9183154106140137,1.0480477809906006,9.27734375
539.4234428405762,-177.17959594726562,-52.54171752929688,9.847312927246094,0.0740211308002471,-0.1528154611587524,1.2662858963012695,-162.390869140625,-47.77858352661133,-52.61626052856445,9.837234497070312,-7.981481552124023,7.450801849365234,-39.58925628662109,-20.963424682617188,-116.40459442138672,-1.4720098972320557,-0.134648859500885,26.00632095336914,81.27928161621094,-49.7921257019043,61.59417724609375,5.877091407775879,19.102264404296875,7.437719345092773,133.7543182373047,-72.31930541992188,127.14079284667967,-0.1106384694576263,0.1437800526618957,5.443338394165039
