Timestamp,D4:22:CD:00:05:5D_EulerX,D4:22:CD:00:05:5D_EulerY,D4:22:CD:00:05:5D_EulerZ,D4:22:CD:00:05:5D_FreeAccX,D4:22:CD:00:05:5D_FreeAccY,D4:22:CD:00:05:5D_FreeAccZ,D4:22:CD:00:05:5E_EulerX,D4:22:CD:00:05:5E_EulerY,D4:22:CD:00:05:5E_EulerZ,D4:22:CD:00:05:5E_FreeAccX,D4:22:CD:00:05:5E_FreeAccY,D4:22:CD:00:05:5E_FreeAccZ,D4:22:CD:00:05:6B_EulerX,D4:22:CD:00:05:6B_EulerY,D4:22:CD:00:05:6B_EulerZ,D4:22:CD:00:05:6B_FreeAccX,D4:22:CD:00:05:6B_FreeAccY,D4:22:CD:00:05:6B_FreeAccZ,D4:22:CD:00:05:6E_EulerX,D4:22:CD:00:05:6E_EulerY,D4:22:CD:00:05:6E_EulerZ,D4:22:CD:00:05:6E_FreeAccX,D4:22:CD:00:05:6E_FreeAccY,D4:22:CD:00:05:6E_FreeAccZ,D4:22:CD:00:49:AA_EulerX,D4:22:CD:00:49:AA_EulerY,D4:22:CD:00:49:AA_EulerZ,D4:22:CD:00:49:AA_FreeAccX,D4:22:CD:00:49:AA_FreeAccY,D4:22:CD:00:49:AA_FreeAccZ
604.1591448783875,-175.8743133544922,-64.46906280517578,-92.59429168701172,-0.134008526802063,-3.907528400421143,0.2644872665405273,-179.2493896484375,-44.92595291137695,2.2080655097961426,11.073593139648438,8.618949890136719,6.459360122680664,-47.32751083374024,-77.8164291381836,-75.25916290283203,-6.175989151000977,8.213445663452148,-3.911252498626709,57.783203125,-13.958356857299805,59.0776481628418,16.183124542236328,20.62572860717773,3.9634313583374015,135.71287536621094,-72.34973907470703,147.7613067626953,-1.503678321838379,-1.4718959331512451,-4.755175590515137
604.1691446304321,-179.3974609375,-61.41561508178711,-87.56290435791016,0.7598658800125122,0.3276375532150268,-5.248923301696777,178.88343811035156,-46.36573791503906,0.8616368174552917,10.85393524169922,1.0480692386627195,4.478847503662109,-60.98606872558594,-69.71520233154297,-65.76335144042969,-2.625429153442383,5.646838188171387,-2.874488353729248,43.7801628112793,-17.93458366394043,56.13700866699219,12.021736145019531,-1.1166651248931885,-13.34982681274414,131.39535522460938,-72.05915069580078,152.92337036132812,-1.492706537246704,3.3070530891418457,-0.9587535858154296
604.2243447303772,-179.4525909423828,-50.96287155151367,-119.96980285644533,-0.9135329723358154,0.3099671006202698,1.074540138244629,-177.86476135253906,-37.65807723999024,-47.44698715209961,2.6245269775390625,5.748318672180176,-0.0724925994873046,-14.750372886657717,27.04639434814453,-26.84579467773437,6.141758918762207,-13.447126388549805,7.087930679321289,171.12246704101562,-77.12586212158203,-38.212833404541016,-2.1605749130249023,-3.3842244148254395,8.097028732299805,146.0702362060547,-79.73184204101562,136.006591796875,-4.716858863830566,-0.966385006904602,6.759138107299805
604.2539887428284,-178.1720428466797,-53.5198860168457,-120.8847885131836,-1.7319726943969729,0.7117859125137329,1.944727897644043,-159.181884765625,-32.629058837890625,-55.97887802124024,1.691528558731079,7.023588180541992,-3.4265503883361816,-1.4657024145126345,29.330612182617188,-18.79009246826172,3.642863750457764,-9.660125732421877,0.9518423080444336,174.21633911132812,-79.09782409667969,-29.35062026977539,-7.407740592956543,-5.406887054443359,6.586189270019531,168.02078247070312,-81.62867736816406,118.20441436767578,-2.296791076660156,-0.5869995355606079,5.351785659790039
604.3135104179382,-176.8248291015625,-57.27959060668945,-122.01492309570312,-0.4076581001281738,0.0487682893872261,4.152106285095215,-144.32852172851562,-28.38677406311035,-63.80514907836914,2.956580638885498,7.666068077087402,-8.658767700195312,8.649836540222168,31.025611877441406,-14.09450340270996,-0.6361660957336426,-6.963793754577637,-2.4863414764404297,173.69613647460938,-78.37954711914062,-17.104333877563477,-8.330938339233398,-7.4219970703125,2.311635971069336,-163.99008178710938,-82.42801666259766,94.77384185791016,2.129807949066162,1.2187492847442627,2.7051172256469727
604.3434309959412,-176.6664276123047,-61.9882698059082,-121.8861312866211,-6.700503349304199,-2.22187614440918,7.811279296875,-133.10333251953125,-25.92398834228516,-72.0863037109375,2.117117404937744,7.075777053833008,-10.169103622436523,11.70500659942627,31.631845474243164,-11.330493927001951,-4.469693183898926,-3.915111541748047,-5.975922584533691,175.76927185058594,-75.69979095458984,-7.682888984680176,-5.522283554077148,-7.940441131591797,-2.4204964637756348,-144.87998962402344,-82.00048828125,79.76395416259766,1.7163095474243164,1.0828287601470947,-0.8746156692504883
604.3736479282379,178.87289428710938,-68.41712188720703,-120.70001983642578,-6.172143936157227,-10.87287139892578,2.2823266983032227,-124.91813659667967,-24.447309494018555,-80.37617492675781,-0.8140208721160889,6.162091255187988,-11.236568450927734,5.179781436920166,31.27766990661621,-10.496365547180176,-4.210095405578613,0.239416241645813,-8.713361740112305,-179.45851135253906,-72.4144287109375,-1.2905102968215942,-2.4605865478515625,-7.945669174194336,-5.757339477539063,-138.5153350830078,-81.19459533691406,76.70379638671875,-0.1655517816543579,0.5253586769104004,-5.3516693115234375
604.4028172492981,171.23046875,-70.62138366699219,-114.07365417480467,5.967083930969238,-3.114315986633301,-9.677785873413086,-119.15153503417967,-24.13649559020996,-88.53189849853516,-2.4462203979492188,3.034146785736084,-10.77012825012207,-5.173419952392578,31.2248592376709,-12.953210830688477,-0.9101933240890504,-3.6899142265319824,-9.710678100585938,-176.89707946777344,-68.99756622314453,4.759244918823242,-0.6031805276870728,-8.539506912231445,-9.47348976135254,-139.58663940429688,-81.2393569946289,79.6390151977539,1.3795547485351562,3.343073844909668,-9.305011749267578
604.433739900589,172.5521240234375,-73.32256317138672,-108.9844970703125,4.903324127197266,-7.416756629943848,-11.9151611328125,-116.00624084472656,-25.01649284362793,-96.65133666992188,-4.686704635620117,-1.2353358268737793,-10.069583892822266,-10.645818710327148,31.04843521118164,-20.514442443847656,0.1303110122680664,-1.906714916229248,-10.058526992797852,-179.4807586669922,-65.4580078125,10.984163284301758,1.0822043418884275,-7.972481727600098,-10.67872428894043,-140.87750244140625,-82.79251861572266,81.64311981201172,0.128264844417572,2.1987762451171875,-8.681230545043945
604.4637393951416,172.35997009277344,-79.04351806640625,-108.06592559814452,-1.9600849151611328,3.972754955291748,-7.304503440856934,-117.3606414794922,-27.20180320739746,-104.12391662597656,-12.794300079345703,-4.378763198852539,-9.412498474121094,-10.685932159423828,29.02696228027344,-33.38056945800781,0.4813101291656494,3.443484306335449,-11.626821517944336,173.726318359375,-61.74158477783203,17.118412017822266,2.196990966796875,-7.032735824584961,-10.404502868652344,-130.58639526367188,-85.42910766601562,72.68869018554688,-1.3365354537963867,-0.7419549226760864,-8.583932876586914
604.4937515258789,173.67562866210938,-79.58638763427734,-107.92111206054688,-0.5481960773468018,16.728134155273438,0.1492891311645507,-122.4943389892578,-31.30156517028809,-109.29068756103516,-20.40389633178711,-6.128029823303223,-2.9312005043029785,-5.538851261138916,23.41058349609375,-50.78763961791992,-1.457495927810669,-6.010516166687012,-11.552007675170898,164.4910430908203,-58.06610107421875,23.10144424438477,4.079448699951172,-5.497224807739258,-8.407798767089844,-100.03910064697266,-86.49927520751953,44.59531784057617,-1.5309135913848877,-0.9774481058120728,-7.595572471618652
604.5238547325134,170.76756286621094,-78.1334228515625,-100.63177490234376,-0.2397462427616119,1.070551872253418,-1.3645391464233398,-128.9082489013672,-35.55492401123047,-109.95132446289062,-19.113784790039062,-0.1470478177070617,0.2314558029174804,2.02120041847229,14.788790702819824,-66.94169616699219,2.0378661155700684,-19.140724182128903,-9.570419311523438,154.93890380859375,-55.45883560180664,28.77859687805176,6.369418144226074,-3.4505434036254883,-4.82216739654541,-73.55713653564453,-86.62995147705078,20.886377334594727,-0.931156039237976,-0.0407392606139183,-1.7042303085327148
604.5541853904724,169.6782989501953,-76.97441864013672,-95.79483032226562,1.3155803680419922,-0.6638805866241455,1.9293527603149412,-134.08872985839844,-36.615509033203125,-105.28665924072266,-14.753637313842772,-7.312990188598633,6.691350936889648,17.691312789916992,10.3707857131958,-80.42096710205078,-3.80337905883789,-20.11194610595703,-12.067291259765623,148.0767059326172,-54.94044494628906,34.06964111328125,7.106668472290039,2.128490924835205,-0.8879690170288086,-63.74362182617188,-87.33332824707031,10.98253059387207,0.554050087928772,1.4674303531646729,1.399256706237793
604.6137387752533,166.62159729003906,-76.65982818603516,-91.2939682006836,-0.3066534996032715,-2.2518539428710938,3.13002872467041,-140.0325927734375,-36.59405899047852,-99.26976776123048,1.866847276687622,-26.11690139770508,-16.334938049316406,10.212389945983888,11.716538429260254,-76.13285064697266,22.462627410888672,11.30588722229004,-10.91427230834961,151.034912109375,-55.58625793457031,35.741477966308594,7.247655868530273,4.529090881347656,2.061485290527344,-108.91810607910156,-88.5696029663086,54.85282897949219,-1.4771642684936523,-4.994026184082031,1.7439661026000977
604.6437454223633,161.3478546142578,-76.60830688476562,-84.35569763183594,-1.486572027206421,-1.9514594078063965,6.170681953430176,-151.28692626953125,-36.4487533569336,-94.39447784423828,2.2142858505249023,-12.40122413635254,10.611726760864258,-8.767446517944336,16.854585647583008,-61.23130798339844,-6.871350288391113,-20.92162322998047,1.7744760513305664,160.8363037109375,-54.44149017333984,32.74586486816406,15.160249710083008,-7.534612655639648,1.626917839050293,-172.6074676513672,-88.25740051269531,117.87506103515624,-3.215604782104492,-5.866523742675781,3.682313919067383
604.6737372875214,151.97586059570312,-76.80451202392578,-74.7566909790039,-2.2025418281555176,-0.6466144323348999,3.3312482833862305,-157.5175018310547,-36.884498596191406,-91.03740692138672,5.250516891479492,-6.578558921813965,0.3267049789428711,-8.147127151489258,23.410545349121094,-43.9379997253418,7.368284225463867,-13.94277000427246,-12.504451751708984,155.48561096191406,-51.220401763916016,30.68662643432617,21.143028259277344,-4.412328720092773,1.4748048782348633,172.41629028320312,-87.1736068725586,132.4845428466797,0.962731957435608,-3.2943806648254395,6.557277679443359
604.733719587326,137.44393920898438,-77.11244201660156,-61.73273086547852,0.5602123737335205,-2.3166208267211914,2.480670928955078,-161.08761596679688,-38.299617767333984,-87.0438461303711,-4.763710021972656,-7.138270378112793,-2.251063823699951,-9.02419376373291,26.52725601196289,-25.08468246459961,3.1178274154663086,0.8777501583099365,-5.907649040222168,136.14984130859375,-49.52529144287109,29.480175018310547,11.010713577270508,20.36651992797852,-11.139684677124023,-179.60577392578125,-86.25372314453125,122.15486145019533,6.593327522277832,1.1167573928833008,-0.18353271484375
604.7387194633484,123.74480438232422,-75.32244110107422,-54.23823928833008,7.91336727142334,-0.5989317893981934,1.5850582122802734,-161.2364501953125,-39.22813415527344,-84.00540161132812,-1.4562249183654783,-6.234767913818359,-2.143116950988769,-18.75306701660156,25.93578720092773,-9.262127876281738,-10.873605728149414,10.907960891723633,-6.376604080200195,131.51734924316406,-51.39347076416016,30.468603134155277,6.338244438171387,16.515125274658203,-9.39181900024414,-173.6980438232422,-84.19522094726562,112.76504516601562,10.060646057128906,5.393519401550293,-6.610040664672852
604.7638490200043,125.21385955810548,-70.46428680419922,-66.1282730102539,19.51037979125977,25.490131378173828,10.107044219970703,-160.9654083251953,-39.51679229736328,-82.11017608642578,-3.2013373374938965,-5.643167495727539,-2.839627742767334,-34.910545349121094,23.39591407775879,3.880459308624268,-11.917228698730469,2.132474899291992,-3.0143094062805176,142.09280395507812,-55.31291580200195,32.812644958496094,1.8248307704925537,15.072010040283203,-2.176468849182129,-175.5835723876953,-81.76746368408203,112.45052337646484,5.946212768554688,-0.0489890649914741,0.472238540649414
604.793865442276,134.58929443359375,-59.37264251708984,-84.16480255126953,19.021137237548828,11.91867446899414,11.033498764038086,-160.8997039794922,-38.63093566894531,-81.17817687988281,-1.717613697052002,-7.0035552978515625,-2.482239246368408,-52.91305923461914,20.14627456665039,14.141292572021484,-11.835098266601562,11.132219314575195,-4.153593063354492,155.31813049316406,-60.44734573364258,37.79916763305664,-7.093932151794434,-3.2495880126953125,7.816595077514648,-174.13246154785156,-80.62164306640625,111.06004333496094,-6.224199295043945,-0.6763899326324463,2.021714210510254
604.8236570358276,141.02316284179688,-45.51823043823242,-96.782958984375,9.65435791015625,-0.1801327764987945,0.0664663314819336,-161.19053649902344,-36.78776168823242,-80.49932861328125,-0.9891918897628784,-4.320732116699219,-1.5385732650756836,-74.2779541015625,15.954095840454102,20.55715560913086,-4.398841857910156,2.735884189605713,-4.100225448608398,157.5781707763672,-63.94888305664063,41.65604782104492,-3.4843850135803223,-2.4655404090881348,1.6038227081298828,-173.9639892578125,-79.99968719482422,110.69324493408205,1.0812335014343262,2.087249279022217,-0.5458774566650391
604.8536334037781,148.23846435546875,-32.00328826904297,-106.27204895019533,1.830265045166016,-3.893397808074951,-10.476993560791016,-161.0802001953125,-34.21412658691406,-80.0968246459961,0.3256843090057373,-8.47397232055664,-1.6642951965332031,-87.8414077758789,9.870678901672363,25.839828491210938,0.2439426183700561,2.9702181816101074,9.47907257080078,157.67269897460938,-65.63442993164062,44.17299270629883,0.6873552799224854,0.8128697872161865,-2.778813362121582,-173.32644653320312,-79.85022735595703,110.12618255615234,5.448995590209961,1.8451223373413088,-0.8313302993774414
604.914154291153,156.36561584472656,-20.889440536499023,-112.86173248291016,-2.63667106628418,-1.3852260112762451,-16.376052856445312,-160.79409790039062,-31.162532806396484,-79.28716278076172,-3.588526725769043,-5.336246490478516,-3.9616193771362314,-92.82563018798828,4.088749408721924,31.81133270263672,-3.35331392288208,2.84390640258789,1.8133964538574217,159.70001220703125,-66.62474060058594,46.70711135864258,1.4797840118408203,0.653355598449707,-4.200139999389648,-174.17857360839844,-79.41934967041016,111.31543731689452,1.3633296489715576,1.738417387008667,-3.7006759643554688
604.9431622028351,164.9033203125,-14.389152526855469,-117.77057647705078,-3.2743067741394043,-2.165891647338867,-16.832565307617188,-160.0056915283203,-29.128786087036133,-77.7926025390625,-0.2604840993881225,-3.9421253204345694,-2.398312568664551,-93.69718170166016,-1.6177266836166382,39.19605255126953,-2.836028575897217,1.7464392185211182,1.1594982147216797,162.03208923339844,-67.15027618408203,49.57796859741211,-0.4505480527877807,-1.5597915649414062,-4.465839385986328,-174.1795654296875,-79.13985443115234,111.82164001464844,1.152388095855713,-0.4662308096885681,-3.5240607261657715
604.9736387729645,167.3162384033203,-14.31713581085205,-122.93936157226562,-9.126420974731444,-2.49044132232666,-15.73985481262207,-160.54879760742188,-26.226247787475582,-76.69996643066406,-4.002077102661133,-8.109418869018555,-3.4690985679626465,-89.11874389648438,-9.434847831726074,46.79655838012695,-0.956412434577942,2.7448134422302246,-4.811740875244141,167.7270050048828,-65.81635284423828,54.62350082397461,-0.8633652925491333,-2.807448387145996,-2.239628791809082,-171.428466796875,-79.4245834350586,109.2193374633789,3.3994040489196777,1.3992853164672852,-2.7301087379455566
605.0037372112274,163.1494598388672,-20.09233665466309,-127.7659683227539,-12.242551803588867,-8.441543579101562,-9.63581085205078,-162.0679931640625,-23.28953742980957,-76.7221450805664,-4.788908004760742,-3.238242626190185,-2.2437801361083984,-83.38742065429688,-20.92808723449707,53.84465026855469,2.859862804412842,5.313700675964356,-4.225500106811523,175.2632598876953,-62.73268508911133,63.0854721069336,2.494987964630127,-9.82587432861328,6.470945358276367,-166.99839782714844,-79.97198486328125,104.01004791259766,8.488710403442383,1.7018945217132568,-0.4972991943359375
605.0332639217377,160.68910217285156,-23.27910804748535,-131.29188537597656,-7.0675048828125,-6.164311408996582,31.53955078125,-163.4733428955078,-21.859336853027344,-77.44278717041016,-1.3326153755187988,-6.873394966125488,-0.7405796051025391,-75.33072662353516,-37.855770111083984,59.34520721435547,6.74445915222168,13.609832763671877,8.289205551147461,173.87583923339844,-56.28802108764648,73.25032806396484,13.89177131652832,-13.885059356689451,13.471250534057615,-164.76907348632812,-79.70868682861328,99.63885498046876,2.562339305877685,-2.274501323699951,1.483473777770996
605.0640118122101,163.3755645751953,-21.91912841796875,-128.8119659423828,-16.389816284179688,-10.186140060424805,12.595449447631836,-164.64883422851562,-21.856578826904297,-77.27979278564453,1.5300397872924805,-7.624309539794922,0.9136924743652344,-54.43317031860352,-56.39566421508789,54.71538925170898,16.608448028564453,27.233104705810547,32.50267791748047,167.68756103515625,-45.80324172973633,84.18037414550781,16.767650604248047,4.2881059646606445,15.671894073486328,-163.77281188964844,-78.01154327392578,96.19845581054688,-8.103275299072266,-2.7146053314208984,5.0055999755859375
605.093493938446,169.00543212890625,-17.215595245361328,-126.3716049194336,-14.30800437927246,-12.48291015625,9.400850296020508,-165.33387756347656,-23.51383781433105,-75.69475555419922,-1.117828369140625,-6.560866355895996,0.1111097335815429,-37.601707458496094,-59.38689804077149,43.737892150878906,23.53549575805664,21.791179656982425,-4.608904838562012,164.01918029785156,-30.639183044433597,93.68891143798828,26.183124542236328,3.998157978057861,20.30463409423828,-164.13272094726562,-77.50355529785156,96.92237854003906,-0.5904054641723633,-1.5142278671264648,9.19687843322754
605.123046875,170.16920471191406,-11.078588485717772,-125.93122863769533,-19.06510162353516,-10.178363800048828,11.487546920776367,-165.63963317871094,-26.770885467529297,-74.25279998779297,-2.972020149230957,-6.741842269897461,0.189828872680664,-49.98124694824219,-52.16601943969727,47.08213424682617,19.90654754638672,23.169078826904297,3.2357254028320312,152.460205078125,-10.950458526611328,99.1356964111328,23.377002716064453,9.650299072265623,21.49723052978516,-165.45420837402344,-76.75909423828125,97.58018493652344,4.865289688110352,1.8209030628204343,7.253274917602539
605.1532094478607,165.7359619140625,-5.505754470825195,-126.36690521240234,-11.647281646728516,-6.676977157592773,4.457612037658691,-166.3268585205078,-31.38389015197754,-74.22802734375,-2.9651989936828613,-8.128889083862305,1.2196836471557615,-66.98316955566406,-44.29185104370117,46.12500381469727,13.879842758178713,-3.243494033813477,19.0040283203125,138.395751953125,12.329453468322754,99.42363739013672,6.672699928283691,25.322444915771484,4.480621337890625,-168.79188537597656,-77.32734680175781,100.46629333496094,3.341303825378418,4.483707427978516,7.969448089599609
605.2139480113983,165.39015197753906,-1.8936175107955933,-127.0220947265625,-6.183521270751953,-0.9590169191360474,-1.9691839218139648,-166.60055541992188,-37.950233459472656,-75.08662414550781,2.418621063232422,-15.170295715332031,2.5591554641723637,-71.56583404541016,-43.48904037475586,41.00768280029297,3.26340913772583,-3.3959975242614746,9.63142204284668,122.01170349121094,31.418067932128903,97.03770446777344,8.243890762329102,23.05308532714844,-12.451984405517578,-173.65020751953125,-78.08787536621094,104.35523986816406,1.1965572834014893,2.474218845367432,8.31491470336914
605.2439444065094,167.99331665039062,-1.9591411352157595,-127.66343688964844,-3.475410461425781,2.093132495880127,-8.482633590698242,-160.86007690429688,-45.94929504394531,-77.05834197998047,-2.635535717010498,-3.526000499725342,1.940524101257324,-72.1850357055664,-49.32479476928711,35.64781951904297,1.634702444076538,-0.7002636194229126,-1.777461051940918,102.6339340209961,41.53800582885742,95.95901489257812,10.818511962890623,6.8032732009887695,-14.338945388793944,-177.7149658203125,-78.62263488769531,107.0852508544922,2.836711406707764,2.1628217697143555,4.4896745681762695
605.2733836174011,170.36111450195312,-6.645290851593018,-128.02896118164062,-3.4834375381469727,2.616046905517578,-13.268180847167969,-159.62545776367188,-46.84475326538086,-79.28218078613281,-8.305557250976562,6.699317932128906,0.5615425109863281,-80.90753936767578,-58.407318115234375,32.111080169677734,0.6949754953384399,-3.6676411628723145,0.7407016754150391,84.80780792236328,45.39296722412109,104.45204162597656,3.015357494354248,10.034690856933594,-6.284751892089844,175.39266967773438,-79.41995239257812,112.36277770996094,4.765024185180664,1.749490737915039,-0.6265878677368164
605.3033990859985,169.46690368652344,-15.75917911529541,-128.245361328125,-5.598252296447754,-1.381000518798828,-19.123992919921875,-159.3953857421875,-42.8459358215332,-80.43021392822266,-2.8016395568847656,0.4874811768531799,-7.569958686828613,-91.10125732421876,-69.37102508544922,32.334598541259766,-6.117759704589844,-6.000347137451172,0.3474483489990234,68.49154663085938,48.49475860595703,119.71544647216795,-5.454968452453613,-0.1779346168041229,-3.390162944793701,167.15037536621094,-79.45291900634766,117.6888427734375,1.9084177017211916,0.7262073755264282,-7.013059616088867
605.3335063457489,165.9525146484375,-28.44277000427246,-128.61782836914062,-6.741194725036621,-4.070795059204102,-17.899459838867188,-162.80935668945312,-41.319602966308594,-82.48049926757812,2.0500917434692383,-8.904308319091797,-20.684886932373047,-112.45951080322266,-79.61354064941406,52.20799255371094,-8.315446853637695,1.0650737285614014,-4.174605369567871,59.43206024169922,51.09477615356445,134.98475646972656,9.380817413330078,-2.4168272018432617,-8.065326690673828,163.9889373779297,-79.42337036132812,117.64363098144533,-1.2678730487823486,0.1324522197246551,-11.139589309692385
605.3638150691986,161.94784545898438,-44.08307266235352,-129.54981994628906,-6.172615051269531,-3.736127376556397,-10.80345344543457,-171.7518310546875,-40.32701110839844,-82.9000015258789,1.0681979656219482,-5.236521720886231,3.191136360168457,-177.22276306152344,-81.9906005859375,119.27137756347656,-5.884309768676758,3.99262809753418,-7.386716842651367,65.41082763671875,50.17472076416016,149.14303588867188,3.72365665435791,-3.543219566345215,-5.8469085693359375,162.1009979248047,-80.22984313964844,116.52174377441406,-0.1929450333118438,1.9287769794464111,-8.177509307861328
605.3938174247742,158.88369750976562,-62.3117561340332,-132.1651153564453,-5.399247169494629,-1.259446620941162,0.173680305480957,-176.63584899902344,-38.63952255249024,-83.05216979980469,-1.363250494003296,-4.984433174133301,-6.590886116027832,148.44631958007812,-75.51483154296875,155.0037078857422,-3.7726216316223145,3.37670373916626,-5.924778938293457,75.19744873046875,44.85251998901367,159.53424072265625,-5.000615119934082,-3.0304160118103027,-4.464414596557617,155.3544464111328,-82.05720520019531,119.2313232421875,1.630998134613037,3.1147704124450684,-10.452077865600586
605.4234228134155,162.01483154296875,-82.2923812866211,-139.6837615966797,-1.323392391204834,-0.8950401544570923,17.332538604736328,-179.704345703125,-36.09021759033203,-83.84814453125,-3.712576389312744,-5.137775421142578,-5.631418228149414,136.3961639404297,-68.17742919921875,167.8440704345703,-4.900888442993164,4.265751838684082,-5.076712608337402,80.79148864746094,35.18517303466797,167.36036682128906,-12.806657791137695,-0.9869470596313475,-7.111442565917969,148.33383178710938,-81.71800231933594,121.45648956298828,3.164487361907959,-3.01558780670166,-6.534314155578613
605.4554431438446,-18.50530815124512,-78.23804473876953,45.926734924316406,18.145652770996094,8.774906158447266,25.05223846435547,178.17889404296875,-33.734161376953125,-84.56328582763672,-4.347169876098633,-10.483022689819336,-2.170461654663086,126.01901245117188,-61.44868469238281,173.95164489746094,-4.15750789642334,4.430488586425781,-3.316962718963623,81.60684204101562,22.13016700744629,173.6444091796875,-33.49302673339844,3.978916645050049,-12.57196044921875,143.5181121826172,-82.98591613769531,124.18594360351562,-4.339341163635254,-0.612720251083374,-0.2806930541992187
605.5138790607452,-6.213388919830322,-66.18558502197266,38.09972381591797,16.837261199951172,22.260406494140625,-25.118549346923828,177.4278564453125,-32.413551330566406,-85.46548461914062,0.1592967808246612,-9.143877029418944,0.2857866287231445,113.4147491455078,-55.90190887451172,177.69573974609375,-6.75826358795166,2.681635856628418,-5.056939125061035,82.4134292602539,15.585627555847168,177.99612426757812,-11.567146301269531,-3.0328798294067383,2.1235790252685547,146.578369140625,-85.13554382324219,122.01836395263672,-4.911018371582031,-2.5808072090148926,-3.0602264404296875
605.5433123111725,-14.417293548583984,-64.82296752929688,36.04636764526367,18.97692108154297,4.808689117431641,-8.110980987548828,178.16383361816406,-32.290008544921875,-86.79498291015625,-1.7940924167633057,-12.798349380493164,0.9523286819458008,102.3724136352539,-52.296875,179.74520874023438,-7.58574104309082,2.4878382682800293,-7.934316635131836,82.39974212646484,21.170825958251957,176.6243133544922,17.74789047241211,-3.891921043395996,-12.825698852539062,164.43020629882812,-86.176025390625,105.42686462402344,8.350753784179688,0.3643777370452881,3.2399730682373047
605.603346824646,-3.440473318099976,-71.55689239501953,27.174909591674805,14.278127670288086,-0.6507521867752075,-1.9360580444335935,-179.6225128173828,-33.214447021484375,-88.61561584472656,-1.835479736328125,-10.458747863769531,2.298765182495117,93.73403930664062,-51.10581970214844,-179.5294952392578,-8.421058654785156,0.9663166999816896,-5.953836441040039,93.40158081054688,29.856918334960938,174.35177612304688,-2.04126501083374,-6.526236534118652,-6.323397636413574,178.35205078125,-86.72010040283203,92.4314193725586,8.132551193237305,1.5930602550506592,8.319124221801758
605.6073400974274,32.029029846191406,-80.54339599609375,0.9348925948143004,15.02515983581543,4.940656661987305,3.63143253326416,-175.982666015625,-36.162384033203125,-90.58757019042967,-2.639528751373291,-10.812973022460938,0.4266166687011719,88.67902374267578,-52.67454147338867,178.42752075195312,-12.011451721191406,3.0194854736328125,-1.567178726196289,93.56211853027344,43.021751403808594,169.34864807128906,-15.927047729492188,4.3978681564331055,-4.955565452575684,-172.80535888671875,-86.275634765625,83.84203338623047,0.2320837676525116,2.6794657707214355,3.7471628189086914
605.6330926418304,105.50301361083984,-80.99442291259766,-65.62661743164062,-6.242166519165039,2.841349601745605,9.351430892944336,-167.90185546875,-41.601524353027344,-93.5158462524414,-3.610872745513916,-3.327142238616944,-6.168983459472656,91.0357666015625,-55.89646911621094,174.408447265625,-11.707624435424805,6.308428764343262,2.491443634033203,84.80305480957031,57.62491226196289,158.63729858398438,-6.651668548583984,8.216856002807617,-15.54054069519043,-165.72042846679688,-84.85726928710938,79.02316284179688,0.5944064855575562,0.0838166773319244,4.373688697814941
605.6631598472595,125.9156723022461,-79.12123107910156,-88.97274017333984,-14.766546249389648,-30.257293701171875,0.1640968322753906,-157.50706481933594,-42.942344665527344,-97.15949249267578,-9.11819076538086,-8.140220642089844,-6.067533493041992,99.35440826416016,-60.41699981689453,169.35874938964844,-6.371420860290527,4.047432899475098,4.404499053955078,72.52483367919922,69.89688873291016,137.42953491210938,4.33910083770752,7.14674186706543,-5.388651847839356,-163.5023956298828,-83.12448120117188,81.29637908935547,-1.138643741607666,-0.8198962211608887,-0.337890625
605.693502664566,137.01661682128906,-79.43435668945312,-95.75511932373048,0.4847732186317444,8.655092239379883,6.524940490722656,-142.49940490722656,-42.89552688598633,-99.35466003417967,-17.687179565429688,6.136146545410156,11.287679672241213,108.97669219970705,-65.41709899902344,162.49156188964844,1.948134422302246,4.985780715942383,2.525618553161621,42.40768814086914,75.03117370605469,95.20923614501952,8.225656509399414,-4.895880699157715,1.9646501541137693,-163.30990600585938,-79.59380340576172,87.18478393554688,-2.901012420654297,-5.298520088195801,-5.520720481872559
605.7232766151428,149.87615966796875,-80.0262451171875,-103.82506561279295,1.4695301055908203,0.970161199569702,-1.0300779342651367,-130.600830078125,-38.55501937866211,-96.33084106445312,-24.842918395996094,3.928221225738525,7.177839279174805,115.88143157958984,-68.89875030517578,155.69583129882812,5.395937919616699,7.807928085327148,-0.2295970916748047,22.565019607543945,69.31724548339844,55.76974487304688,5.732967376708984,-14.304380416870115,-0.963698387145996,-166.01853942871094,-73.95948791503906,96.0174331665039,-2.5417490005493164,-2.978391170501709,-4.695435523986816
605.7533271312714,162.89785766601562,-80.54682922363281,-113.93482971191406,1.47466778755188,-1.437154769897461,1.179279327392578,-128.8701629638672,-30.586061477661133,-88.73674774169922,-13.013957977294922,-0.4958701729774475,-1.863481044769287,118.09954833984376,-71.22259521484375,152.04380798339844,3.5013723373413086,5.985599517822266,-6.849143981933594,26.096834182739254,58.95492172241211,35.798583984375,9.089452743530272,-7.038023948669434,-5.874300003051758,-169.25123596191406,-68.80690002441406,105.3486099243164,-0.5753006935119629,1.9309821128845213,-1.9029512405395508
605.8133265972137,173.1732635498047,-80.4078598022461,-122.83413696289062,-0.6418102979660034,-0.7203103303909302,-0.0205287933349609,-132.42507934570312,-22.08602905273437,-79.95127868652344,-5.276994705200195,-0.2424728870391845,-7.444457054138184,123.1096420288086,-72.72232818603516,150.69943237304688,-0.8663899898529053,2.245319366455078,-2.4944252967834477,47.05594253540039,51.659305572509766,29.58643341064453,3.434070587158203,-13.576284408569336,-10.524948120117188,-174.06637573242188,-66.3991470336914,111.49272918701172,3.102633476257324,2.009473323822021,4.400280952453613
605.8434944152832,178.81178283691406,-79.865234375,-126.9560089111328,2.91508150100708,-1.524991750717163,0.5896415710449219,-137.10671997070312,-14.980121612548828,-71.6184310913086,0.1648352444171905,-0.49136883020401,-9.752769470214844,128.7776336669922,-74.138916015625,150.85011291503906,3.3935279846191406,-3.930665969848633,4.740950584411621,72.58988189697266,44.722755432128906,30.12240219116211,-2.26659631729126,29.28569793701172,3.736823081970215,-177.52503967285156,-65.84722900390625,114.57072448730467,-2.858767032623291,2.215782165527344,2.661349296569824
605.8734958171844,-178.5352325439453,-79.47127532958984,-126.57804870605467,0.478286862373352,0.7075338363647461,-0.1285305023193359,-141.02932739257812,-10.703438758850098,-64.53622436523438,1.9125630855560305,-0.7900511026382446,-9.80855941772461,132.5109405517578,-75.79279327392578,147.20706176757812,0.6310533285140991,-4.185885429382324,4.873934745788574,72.27397155761719,38.90785217285156,24.98472213745117,4.529828071594238,11.886978149414062,11.396440505981444,-178.64047241210938,-65.07783508300781,117.64662170410156,-6.030722618103027,2.757016181945801,0.4687623977661133
605.9334287643433,-176.8036346435547,-79.04718780517578,-126.69109344482422,-1.3645203113555908,1.0582773685455322,0.5451536178588867,-145.3417205810547,-9.71599578857422,-59.17529296875,0.0044320384040474,-5.103273391723633,-8.878288269042969,139.41604614257812,-77.78731536865234,138.8826446533203,-2.471101760864258,-3.344137191772461,3.4555702209472656,74.190185546875,33.49843215942383,21.0683708190918,4.310648918151856,-8.390329360961914,-7.881543159484863,-178.53335571289062,-64.69457244873047,119.25099182128906,-2.611783981323242,2.0100889205932617,-0.0072870254516601
605.9395725727081,-174.95089721679688,-78.4715576171875,-127.99949645996094,-0.6249574422836304,-0.4692302346229553,-0.2258358001708984,-150.939453125,-11.566516876220703,-55.10353469848633,7.333091735839844,-9.656465530395508,-9.16924285888672,152.8330535888672,-79.76068878173828,124.91242980957033,-0.1698637008666992,-2.9186697006225586,2.2384796142578125,87.84017944335938,26.95477867126465,18.759780883789062,4.779736518859863,5.69664478302002,-0.0599994659423828,-179.7672119140625,-63.98369598388672,120.55412292480467,0.9659429788589478,1.6309547424316406,0.9549160003662108
605.9636385440826,-175.2734832763672,-77.17430877685547,-127.29631042480467,-0.4794330596923828,-1.637467622756958,-1.1208114624023438,-156.06451416015625,-15.70615005493164,-53.76847076416016,14.982498168945312,-8.845762252807617,-18.054054260253903,169.63369750976562,-81.14778137207031,106.72712707519533,-1.0223491191864014,1.6964330673217771,-2.12600040435791,93.86937713623048,17.713008880615234,17.727794647216797,9.239784240722656,3.5972766876220703,2.4381103515625,177.6171112060547,-63.803619384765625,122.20996856689452,0.977806806564331,-0.3822892904281616,-3.3103723526000977
605.9937312602997,-178.6466827392578,-74.84637451171875,-124.8092803955078,-1.2628014087677002,-2.368353366851806,-0.991424560546875,-155.19387817382812,-18.893598556518555,-53.589351654052734,-10.801664352416992,-13.838970184326172,35.458526611328125,-174.01235961914062,-82.11009216308594,88.74462890625,-0.93368661403656,3.2975125312805176,-4.745835304260254,87.95228576660156,5.171863079071045,19.437503814697266,10.300397872924805,3.2402591705322266,-2.751401424407959,174.91468811035156,-63.947872161865234,124.62667846679688,-2.2251763343811035,-1.396759271621704,-6.258925437927246
606.0232379436493,178.46995544433594,-71.71620178222656,-122.46363830566406,-0.8956038951873779,0.6921951770782471,0.9252309799194336,-157.29736328125,-17.81806755065918,-52.58483505249024,1.5164613723754885,-0.6756324768066406,-9.508895874023438,-157.8388214111328,-82.76025390625,70.34597778320312,-0.2298686504364013,3.669126510620117,-6.841353416442871,76.37317657470703,-9.706896781921388,23.996967315673828,17.60595703125,5.9335222244262695,-1.712053298950195,171.15609741210938,-64.15778350830078,128.66128540039062,-2.711428165435791,0.2511538863182068,-7.122933387756348
606.0532462596893,175.52984619140625,-67.7723617553711,-118.20791625976562,-0.0041848327964544,-0.1237705200910568,-0.3987054824829101,-154.23782348632812,-20.26318359375,-51.75265502929688,9.288034439086914,-15.389732360839844,-6.256870269775391,-139.38023376464844,-82.69782257080078,48.095890045166016,-1.865916728973389,4.093648910522461,-6.50495719909668,62.30215835571289,-21.103269577026367,30.1597900390625,29.202342987060547,10.680086135864258,9.665475845336914,166.54034423828125,-63.97483825683594,133.6334686279297,1.8328914642333984,-0.3818358182907104,-2.6306309700012207
606.1135349273682,174.3646697998047,-63.14432144165039,-115.20793151855467,0.3822978734970093,-0.3650973439216614,-0.5986299514770508,-151.66665649414062,-22.076196670532227,-51.99993133544922,10.116527557373049,-17.57162094116211,1.805728912353516,-120.57257843017578,-81.66365814208984,26.30758285522461,-5.961912155151367,5.405550003051758,-3.775092601776123,53.43625259399414,-22.161046981811523,30.768688201904297,11.879842758178713,3.809112071990967,-7.497933387756348,161.41102600097656,-64.01001739501953,138.8335723876953,3.199230670928955,4.100419044494629,-0.120920181274414
606.1430609226227,174.04478454589844,-58.13369369506836,-113.56851959228516,0.0562924072146415,-0.2743235826492309,-0.4186296463012695,-150.7671356201172,-19.78062438964844,-52.13420104980469,4.063132286071777,-20.203998565673828,2.614230155944824,-101.73609161376952,-78.65617370605469,6.67659854888916,-11.794622421264648,9.273323059082031,3.5637340545654297,57.04215240478516,-18.089975357055664,28.40209197998047,25.83304977416992,-2.5510058403015137,-11.775638580322266,156.50550842285156,-63.72127914428711,142.43905639648438,-2.81313419342041,0.6198760271072388,3.308094024658203
606.1734554767609,174.831298828125,-54.04111099243164,-113.58495330810548,4.025463104248047,0.1629200279712677,0.3062725067138672,-148.52932739257812,-15.3333158493042,-51.66169738769531,9.430994033813477,-27.25702667236328,4.35113525390625,-74.6369857788086,-71.65127563476562,-13.072781562805176,-12.685586929321287,16.59723663330078,25.515026092529297,70.71355438232422,-12.243600845336914,29.995141983032227,15.110349655151367,13.152864456176758,-3.458038330078125,156.5936737060547,-62.89997863769531,142.54127502441406,-6.515320777893066,-1.620856523513794,9.259244918823242
606.2034571170807,176.3050079345703,-52.060916900634766,-114.0739288330078,1.0744481086730957,1.2210805416107178,2.046548843383789,-141.79127502441406,-10.929980278015137,-51.696075439453125,10.779962539672852,-15.841781616210938,-0.4184951782226562,-63.01158142089844,-57.34950637817383,-22.1769962310791,-14.228157043457031,15.135791778564451,18.045040130615234,74.95423889160156,-7.971770763397217,32.20439910888672,16.245994567871094,21.23033905029297,-1.9441957473754885,157.9521026611328,-62.026615142822266,141.9391632080078,-0.984827160835266,1.9935262203216555,11.53199577331543
606.2339038848877,177.7276611328125,-51.93906021118164,-114.52008819580078,1.0590107440948486,1.3389978408813477,1.8917903900146484,-145.94288635253906,-3.1918084621429443,-50.38853454589844,-0.1257269382476806,-21.53119659423828,-4.219568252563477,-56.70981979370117,-37.971317291259766,-23.37294578552246,-2.85988998413086,19.930984497070312,17.78170394897461,76.0858383178711,-7.011346340179443,34.59614562988281,15.167232513427734,14.466392517089844,-6.389152526855469,156.905517578125,-62.22514724731445,141.5237274169922,1.3514811992645264,0.9270123243331908,9.206024169921877
606.2639088630676,178.93603515625,-53.24021911621094,-114.6697769165039,-0.6667028665542603,1.4584462642669678,1.4798355102539062,-150.11402893066406,0.8248250484466553,-49.78702926635742,8.360633850097656,-5.573446273803711,-1.8503613471984863,-45.74972915649414,-15.799202919006348,-22.50984764099121,9.664054870605469,11.692205429077148,11.265207290649414,82.70884704589844,-10.656088829040527,38.868770599365234,5.501317977905273,14.223697662353516,2.3953733444213867,155.51083374023438,-62.744667053222656,141.5972137451172,-2.689705371856689,-0.682903528213501,5.393827438354492
606.2939116954803,-179.57223510742188,-55.26952362060547,-115.80318450927734,-1.0446827411651611,1.132317304611206,1.219721794128418,-149.6861572265625,0.4053657352924347,-51.65084838867188,5.284863471984863,0.4005472660064697,-4.313996315002441,-32.38539123535156,3.9488816261291504,-19.84894371032715,7.178408622741699,6.815200805664063,6.325492858886719,87.02452087402344,-18.64075088500977,43.37379837036133,0.3103637099266052,9.168081283569336,4.567851066589356,154.9735870361328,-63.79574966430664,142.0852508544922,-6.75691032409668,-2.079330444335937,7.451314926147461
606.3266935348511,-177.86643981933594,-58.080116271972656,-117.82207489013672,0.6851614713668823,1.158388614654541,2.4822311401367188,-148.65869140625,-3.89249038696289,-55.62275695800781,5.067593574523926,3.0789451599121094,-5.72808837890625,-17.263532638549805,17.686771392822266,-17.8660888671875,3.9389681816101074,-2.1403822898864746,8.051044464111328,92.9774398803711,-29.31012725830078,47.58939743041992,2.9242329597473145,8.959482192993164,4.685754776000977,155.68431091308594,-65.77742004394531,143.21861267089844,-6.081855773925781,-0.3949437737464905,4.232383728027344
606.3537180423737,-176.8131561279297,-62.23387145996094,-118.6822280883789,1.0511982440948486,0.6177144050598145,3.8870038986206055,-146.2048797607422,-11.247559547424316,-61.54125595092773,4.5054121017456055,2.7069091796875,-6.745616912841797,-4.957848072052002,26.916868209838867,-17.434642791748047,1.152085781097412,-7.766161918640137,3.7100582122802734,103.11474609375,-40.15580368041992,49.59098815917969,3.54138708114624,2.0535120964050293,13.89845848083496,157.76065063476562,-68.32667541503906,144.4759063720703,-2.500296115875244,0.7279528379440308,2.835345268249512
