Timestamp,D4:22:CD:00:05:5D_EulerX,D4:22:CD:00:05:5D_EulerY,D4:22:CD:00:05:5D_EulerZ,D4:22:CD:00:05:5D_FreeAccX,D4:22:CD:00:05:5D_FreeAccY,D4:22:CD:00:05:5D_FreeAccZ,D4:22:CD:00:05:5E_EulerX,D4:22:CD:00:05:5E_EulerY,D4:22:CD:00:05:5E_EulerZ,D4:22:CD:00:05:5E_FreeAccX,D4:22:CD:00:05:5E_FreeAccY,D4:22:CD:00:05:5E_FreeAccZ,D4:22:CD:00:05:6B_EulerX,D4:22:CD:00:05:6B_EulerY,D4:22:CD:00:05:6B_EulerZ,D4:22:CD:00:05:6B_FreeAccX,D4:22:CD:00:05:6B_FreeAccY,D4:22:CD:00:05:6B_FreeAccZ,D4:22:CD:00:05:6E_EulerX,D4:22:CD:00:05:6E_EulerY,D4:22:CD:00:05:6E_EulerZ,D4:22:CD:00:05:6E_FreeAccX,D4:22:CD:00:05:6E_FreeAccY,D4:22:CD:00:05:6E_FreeAccZ,D4:22:CD:00:49:AA_EulerX,D4:22:CD:00:49:AA_EulerY,D4:22:CD:00:49:AA_EulerZ,D4:22:CD:00:49:AA_FreeAccX,D4:22:CD:00:49:AA_FreeAccY,D4:22:CD:00:49:AA_FreeAccZ
1577.3901937007904,-158.85601806640625,-67.02977752685547,-130.80609130859375,-6.969431877136231,0.2226229310035705,-3.701831817626953,161.9864501953125,-53.681941986083984,23.39685821533203,4.369161605834961,10.206233978271484,-4.311521530151367,-50.18783950805664,-66.1781234741211,-72.84521484375,-3.5063419342041016,1.9794983863830569,-5.360040664672852,138.04022216796875,-69.8016128540039,9.98198699951172,2.982740879058838,-5.9219255447387695,-7.537951469421387,167.82920837402344,-62.1079216003418,136.77723693847656,1.8475241661071775,1.0846259593963623,-4.979519844055176
1577.4563701152802,-178.67510986328125,-56.13014602661133,-58.9210090637207,-2.9526286125183105,0.8620883226394653,1.8564224243164065,-174.8880615234375,-41.60453796386719,-37.42323684692383,2.979356288909912,3.849163055419922,0.2616243362426758,-16.242528915405273,33.18610763549805,-56.02791595458984,5.189688682556152,-17.698162078857422,12.592123031616213,-145.16310119628906,-85.37437438964844,-77.95917510986328,-3.7850093841552734,-0.6021178960800171,11.458763122558594,170.3136444091797,-67.26566314697266,115.79114532470705,-1.946416139602661,1.4330296516418457,7.505638122558594
1577.4865889549255,-178.14859008789062,-56.90649032592773,-59.33599853515625,-2.145021438598633,1.283754825592041,1.7913246154785156,-166.0865478515625,-41.07748031616211,-42.34301376342773,1.7494475841522217,6.2570085525512695,-0.7004127502441406,8.800386428833008,36.123294830322266,-43.40845489501953,2.400075435638428,-12.707666397094728,5.580686569213867,173.48643493652344,-83.73593139648438,-34.4321174621582,-3.8970932960510254,-2.438950538635254,11.288219451904297,176.84771728515625,-70.95771789550781,108.8328628540039,-1.527850866317749,3.3124241828918457,4.932673454284668
1577.516762971878,-177.5736846923828,-59.26660919189453,-60.36241912841797,-2.237858295440674,0.7793691158294678,2.2041406631469727,-147.90480041503906,-39.238807678222656,-52.178016662597656,1.224548578262329,5.65543270111084,-4.463814735412598,23.332712173461918,38.99835586547852,-33.76348876953125,-2.135852813720703,-8.123485565185547,-1.1800174713134766,139.7443389892578,-79.69792938232422,2.1984031200408936,-0.7244892120361328,-4.105737686157227,8.861471176147461,-174.48074340820312,-74.03553771972656,101.2973861694336,-2.530740261077881,2.567084312438965,1.9927291870117188
1577.5463483333588,-177.0806884765625,-63.16617202758789,-61.68868637084961,-2.000800132751465,1.13893723487854,3.1891746520996094,-133.25735473632812,-39.133331298828125,-61.18840026855469,2.57596206665039,4.899326324462891,-8.336996078491211,30.057462692260746,42.40396118164063,-27.009565353393555,-3.321686267852783,-8.552469253540039,-6.048850059509277,129.7860565185547,-79.69082641601562,16.916088104248047,-3.756507396697998,-2.2726597785949707,4.482149124145508,-162.40179443359375,-77.24993133544922,91.67176055908205,-1.6513452529907229,-0.9081418514251708,-3.7714390754699703
1577.576648235321,-179.7206268310547,-70.16392517089844,-66.65257263183594,-3.949859619140625,-5.068928718566895,2.909531593322754,-120.04150390625,-40.50260162353516,-71.7705307006836,3.818780899047852,3.920419692993164,-9.64273452758789,32.630313873291016,45.34202194213867,-22.94921875,-3.4879636764526367,-4.415888786315918,-8.290189743041992,152.2882843017578,-81.51504516601562,2.103787422180176,-5.558249473571777,-5.243802070617676,-1.8040246963500977,-146.09323120117188,-78.72114562988281,78.86782836914062,-0.7198166847229004,0.2940410375595093,-9.720476150512695
1577.6065039634705,174.09033203125,-73.06449127197266,-62.71266555786133,1.5868284702301023,-2.380740165710449,-1.122114181518555,-108.48707580566406,-41.70841979980469,-84.54756164550781,1.0447351932525637,3.277937412261963,-12.550542831420898,30.24145126342773,46.79496383666992,-22.13684844970703,-2.3307361602783203,-1.983370304107666,-9.023880004882812,-167.34088134765625,-80.3547592163086,-31.150440216064453,-4.572883605957031,-7.794588088989258,-7.111163139343262,-132.7452850341797,-78.54920959472656,68.55128479003906,1.0703003406524658,1.5444414615631104,-10.390892028808594
1577.6364450454712,167.40626525878906,-73.0461654663086,-53.65214157104492,4.397957801818848,3.9076762199401855,-5.975107192993164,-99.43135833740234,-42.38017654418945,-98.8740692138672,0.3909270167350769,1.7034175395965576,-9.477960586547852,23.74933433532715,47.11836624145508,-25.52541923522949,-0.5842275619506836,-0.1490320861339569,-10.53020477294922,-144.88352966308594,-76.96101379394531,-49.127235412597656,4.653736114501953,-6.470765113830566,-7.970412254333496,-123.56839752197266,-78.70729064941406,61.3893928527832,0.8862192630767822,1.3080427646636963,-8.046794891357422
1577.6664440631866,168.38633728027344,-71.81417083740234,-44.84349822998047,5.554838180541992,0.9049323797225952,-9.52336311340332,-90.80988311767578,-42.14348983764648,-114.7504425048828,-5.567624092102051,-1.751235008239746,-6.92021369934082,16.184181213378906,46.26972961425781,-34.037506103515625,0.0190792083740234,-2.245698928833008,-12.920534133911133,-128.10415649414062,-76.9073257446289,-58.26762008666992,0.7128468751907349,-11.42911148071289,-11.637176513671877,-111.38189697265624,-79.05204010009766,51.22748565673828,-0.8425589799880981,0.010622676461935,-7.121051788330078
1577.7265455722809,166.37559509277344,-71.75639343261719,-37.2769889831543,0.1200137138366699,6.121611595153809,-2.975677013397217,-88.98741149902344,-40.69650268554688,-129.0425567626953,-17.64984130859375,-5.920721054077148,-8.690301895141602,10.523945808410645,43.97690200805664,-47.3157958984375,1.9095633029937744,2.0243782997131348,-11.840896606445312,-128.39010620117188,-79.06663513183594,-56.29207229614258,0.2706552147865295,-8.773420333862305,-10.206348419189451,-101.44371795654295,-78.86187744140625,44.00556564331055,-0.5311968326568604,-0.3085306882858276,-4.658855438232422
1577.7561700344086,165.0363006591797,-70.2082290649414,-32.42053985595703,-0.1118132472038269,-0.1404395401477813,-2.120078086853028,-96.74478912353516,-39.20783233642578,-137.5071563720703,-29.210033416748047,-0.0181921645998954,-8.572044372558594,3.565652847290039,37.99864959716797,-65.4908218383789,3.0636954307556152,-0.2019562721252441,-16.76435089111328,-146.428466796875,-82.79554748535156,-38.0199089050293,2.101022720336914,-3.3282761573791504,-6.974648475646973,-97.59122467041016,-78.50920104980469,42.33430862426758,-1.090794563293457,-0.5369844436645508,-0.4071435928344726
1577.7861630916595,163.04388427734375,-67.41466522216797,-28.17123413085937,0.2994455099105835,-0.7770628929138184,-0.6181831359863281,-115.97257995605467,-37.971622467041016,-134.25599670410156,-30.77230453491211,36.86388397216797,10.422243118286133,-1.442826747894287,28.91985511779785,-82.56649017333984,-6.807070732116699,-23.54175567626953,-14.873071670532228,163.2705535888672,-85.0274429321289,15.904640197753906,1.8116230964660645,-1.3180932998657229,-2.4637250900268555,-93.96730041503906,-78.18872833251953,38.06478118896485,2.3850831985473637,1.094693660736084,0.9534168243408204
1577.816462278366,161.4540252685547,-64.55585479736328,-23.941221237182617,-0.2237143218517303,-1.6505563259124756,1.521169662475586,-129.67068481445312,-37.58342742919922,-123.7917709350586,-2.954906463623047,-10.396322250366213,-0.2896795272827148,3.889868259429932,25.918561935424805,-92.20277404785156,3.014037132263184,12.939563751220703,-22.240333557128903,120.5867156982422,-82.87076568603516,63.6982421875,1.0467472076416016,-0.8386603593826294,2.3759536743164062,-89.81383514404297,-78.46607208251953,31.35727310180664,3.254837989807129,-1.6176276206970217,0.1260709762573242
1577.846069574356,158.87403869628906,-61.8938102722168,-20.197633743286133,3.078895092010498,-1.4201688766479492,4.650076866149902,-130.65435791015625,-38.92389678955078,-117.23347473144533,-9.389408111572266,-21.79985809326172,-18.270671844482425,-4.731539249420166,25.54745864868164,-84.9593734741211,-18.773452758789062,-3.5067834854125977,0.711186408996582,108.4069595336914,-79.98130798339844,80.33153533935547,0.6057937145233154,-2.7636795043945312,-0.3621492385864258,-92.65157318115234,-79.12945556640625,31.50983238220215,-2.025571346282959,-0.914466142654419,6.400539398193359
1577.8762233257294,156.02581787109375,-59.75046920776367,-16.796354293823242,-2.617889881134033,-0.3220879435539245,2.4212236404418945,-142.6455078125,-39.07851028442383,-110.81689453125,-2.517188549041748,-9.891807556152344,7.845003128051758,2.140302419662476,24.39748764038086,-77.44418334960938,-3.339670181274414,5.896650314331055,-6.511556625366211,112.46961212158205,-78.06498718261719,79.23652648925781,3.1427254676818848,1.3252806663513184,-0.6890192031860352,-96.36666107177734,-79.37669372558594,32.16157150268555,-0.4691608548164367,-1.897369146347046,6.699316024780273
1577.9068350791931,151.6551055908203,-59.45147705078125,-13.549549102783203,-2.036832332611084,1.5630297660827637,2.001199722290039,-149.7979278564453,-40.163604736328125,-106.44235229492188,2.0022759437561035,-9.131317138671877,5.265893936157227,6.036078453063965,21.02741241455078,-64.21199035644531,-9.479660034179688,-10.283702850341797,-8.287836074829102,123.91099548339844,-76.13908386230469,72.99044799804688,13.892112731933594,0.9937026500701904,5.595180511474609,-94.43011474609376,-78.83824157714844,28.337665557861328,1.681415319442749,-1.8808262348175049,2.63698673248291
1577.936505317688,145.58035278320312,-60.69136047363281,-9.745272636413574,0.7482538223266602,1.110572338104248,4.2481689453125,-154.20361328125,-41.88365936279297,-102.7289047241211,-0.3990331888198852,-3.40633487701416,0.6793327331542969,8.737714767456055,17.33102035522461,-49.52263641357422,-6.3550872802734375,-8.781087875366211,-4.093874931335449,124.9090805053711,-74.88399505615234,75.47320556640625,13.331466674804688,-4.820766448974609,6.904455184936523,-94.6808624267578,-77.38185119628906,26.847509384155277,6.056053161621094,1.3992557525634766,1.009561538696289
1577.9815740585327,138.45738220214844,-62.5469856262207,-5.252856731414795,2.7601394653320312,-0.8940037488937378,4.328055381774902,-157.54896545410156,-43.84379577636719,-99.95362091064452,-3.576718807220459,-3.990808486938477,-2.189932346343994,10.450011253356934,14.136027336120604,-35.54408645629883,-3.59000015258789,-2.355275154113769,-1.9158239364624023,113.52792358398438,-73.66290283203125,78.48590850830078,3.752429485321045,0.6561998128890991,6.245977401733398,-99.06295776367188,-76.1936264038086,28.07240295410156,9.003988265991211,1.6478238105773926,-2.587879180908203
1578.0288724899292,128.32798767089844,-65.52326202392578,-0.2618054151535034,3.693188190460205,1.4479286670684814,2.7991151809692383,-160.64088439941406,-45.57911682128906,-97.76250457763672,-5.957612991333008,-6.1835479736328125,-2.7792391777038574,10.229061126708984,12.28526210784912,-22.90978240966797,-3.078829765319824,1.6776063442230225,3.82647705078125,102.86459350585938,-72.01177215576172,80.06151580810547,0.6314709186553955,5.306506156921387,2.3713483810424805,-105.0752944946289,-76.07749938964844,30.151826858520508,4.159589767456055,0.4461763501167297,-2.047552585601806
1578.056215763092,120.3848876953125,-66.65897369384766,0.0650000125169754,-4.532652854919434,17.571414947509766,-0.226907730102539,-162.79331970214844,-47.36173248291016,-95.91934204101562,-2.0054845809936523,-4.751123428344727,-0.4057159423828125,4.343717575073242,11.699790000915527,-11.583824157714844,-6.545681953430176,12.417352676391602,-1.7113409042358398,99.23918914794922,-69.97565460205078,80.4450912475586,-1.6270508766174316,3.313544273376465,0.6693649291992188,-111.54438018798828,-76.06036376953125,33.87778091430664,-0.2978634238243103,2.018211841583252,1.1884536743164062
1578.0856170654297,127.91046905517578,-63.15502548217773,-12.36573600769043,-2.20613956451416,22.05477523803711,4.049880027770996,-164.289794921875,-49.45167922973633,-94.37853240966795,-3.0196409225463867,-4.688393592834473,-1.6756582260131836,-7.2510085105896,9.31855297088623,-2.981138229370117,-9.747125625610352,15.391414642333984,-10.830522537231444,97.28445434570312,-68.05007934570312,79.54459381103516,-4.10536003112793,1.7301430702209473,-1.929671287536621,-117.64148712158205,-75.72532653808594,39.255558013916016,1.8733677864074707,2.25679874420166,-0.1325225830078125
1578.115935087204,139.8960418701172,-56.13250732421875,-28.0598201751709,0.949420928955078,11.399406433105469,2.3614940643310547,-166.04310607910156,-51.25295639038086,-92.86735534667967,-3.13498592376709,-6.029468536376953,-1.89786958694458,-26.004674911499023,2.8646183013916016,4.228228569030762,-6.857226371765137,1.1167197227478027,-7.984580039978027,95.21540069580078,-66.64165496826172,78.36746978759766,-5.189835548400879,2.492680549621582,-2.5971951484680176,-125.12312316894533,-75.60176086425781,47.02592086791992,5.012869834899902,2.509678840637207,-0.927520751953125
1578.147445678711,147.06809997558594,-47.68258285522461,-41.32874298095703,3.582674026489258,2.999385356903076,-1.3926706314086914,-166.49179077148438,-52.28932189941406,-91.73511505126952,-2.4673080444335938,-4.818742752075195,-4.054497718811035,-39.25988006591797,-5.975802898406982,10.279261589050291,-0.157477855682373,-4.732392311096191,0.0260086059570312,94.1265640258789,-65.86813354492188,78.17691040039062,-4.527886390686035,3.865190505981445,-3.3948841094970703,-130.2916717529297,-75.86941528320312,52.35048675537109,3.809861660003662,0.7320313453674316,-1.1276559829711914
1578.1764509677887,150.82627868652344,-39.35945129394531,-51.72616195678711,2.9274134635925293,-1.9216012954711916,-6.145820617675781,-166.61231994628906,-51.7403564453125,-91.11962890625,-3.870153427124024,-5.224470138549805,-4.916054725646973,-47.17364883422852,-16.786924362182617,16.9449520111084,0.1128740310668945,5.857338905334473,-6.374967575073242,95.3602066040039,-65.52606964111328,78.34026336669922,-3.791948795318604,2.030546188354492,-3.902210235595703,-132.81910705566406,-76.80611419677734,55.324554443359375,0.4392968416213989,-0.3790055513381958,-1.4058208465576172
1578.206439256668,153.0542755126953,-32.160682678222656,-59.45013046264648,0.5671548843383789,-4.07122802734375,-10.246213912963867,-165.69569396972656,-49.2296142578125,-91.2503890991211,-3.734099864959717,-7.334697723388672,-6.118803024291992,-58.63080978393555,-29.290611267089844,24.627979278564453,5.611412048339844,9.414995193481444,-2.0128087997436523,97.56415557861328,-65.57444763183594,78.09953308105469,-2.5804758071899414,-0.1291534900665283,-3.4022140502929688,-135.0714874267578,-77.48450469970703,58.19416809082031,2.217670440673828,0.2894832491874695,-3.952674388885498
1578.2371034622192,156.2110595703125,-26.982440948486328,-64.70050811767578,1.4298384189605713,-3.174281597137451,-11.11434555053711,-164.36512756347656,-45.28629302978516,-91.67196655273438,-2.840198516845703,-4.760957717895508,-2.5601253509521484,-68.19554901123047,-43.24497985839844,30.835128784179688,8.328903198242188,10.181968688964844,6.533895492553711,99.1058349609375,-65.93775939941406,77.2626953125,0.0645676106214523,0.3214922547340393,-4.237860679626465,-135.17022705078125,-78.05665588378906,58.56011581420898,2.6852593421936035,0.5402852296829224,-5.736302375793457
1578.2661681175232,161.9932861328125,-25.08932304382324,-68.67072296142578,0.4549283981323242,-7.35231876373291,-9.038215637207031,-162.862060546875,-40.78439712524414,-92.03021240234376,-2.938387870788574,-3.4192686080932617,-1.605544090270996,-77.88628387451172,-58.69880294799805,36.80924224853516,8.932144165039062,12.72170639038086,14.57697296142578,101.08253479003906,-65.90570068359375,76.78569030761719,1.737612009048462,-1.083728313446045,-3.925678253173828,-136.9564971923828,-79.07640075683594,60.495853424072266,1.23429274559021,0.2329653203487396,-5.452425956726074
1578.3267607688904,165.58197021484375,-27.44200325012207,-71.7497787475586,-1.2447476387023926,-13.44094467163086,-11.160301208496094,-162.08740234375,-36.8175048828125,-91.94794464111328,-3.381955146789551,-4.655783653259277,-0.4999017715454101,-88.46029663085938,-70.70805358886719,46.8989486694336,-5.145120620727539,9.659002304077148,25.078266143798828,99.08678436279295,-65.0788345336914,77.210205078125,1.2630913257598877,-5.579833030700684,-1.9274539947509768,-149.82351684570312,-80.28971099853516,72.0564193725586,3.6991782188415527,0.391493558883667,-0.487070083618164
1578.356663942337,167.15867614746094,-30.62877082824707,-73.47277069091797,-9.110845565795898,-1.6502337455749512,21.46319580078125,-162.3260498046875,-33.96636199951172,-91.7293472290039,-3.782693862915039,-5.2803239822387695,0.4008741378784179,-83.11436462402344,-73.94033813476562,49.2431526184082,5.485454559326172,10.791425704956056,4.37413501739502,91.0928955078125,-63.5494270324707,77.69264221191406,1.1238844394683838,-2.77445125579834,-0.9555435180664062,-154.7913055419922,-82.57730865478516,74.09330749511719,4.422512054443359,2.7587265968322754,3.6846017837524414
1578.386078119278,162.82395935058594,-31.040815353393555,-73.70136260986328,2.8072609901428223,-20.286407470703125,2.490814208984375,-163.08447265625,-32.45164489746094,-91.44689178466795,-2.347930431365967,-5.522451400756836,-0.0762948989868164,-82.7690658569336,-69.93959045410156,45.07772064208984,6.746059417724609,10.722723007202148,11.132638931274414,83.06419372558594,-60.96464538574219,78.29151153564453,4.349275588989258,-0.4984005689620971,2.653135299682617,-148.09291076660156,-82.36170196533203,67.11927795410156,0.2150284051895141,1.3669791221618652,2.979054450988769
1578.4162662029266,164.87803649902344,-29.457761764526367,-71.37565612792969,-1.548906326293945,-22.83648681640625,11.14249038696289,-163.6063995361328,-32.10758590698242,-90.76646423339844,-3.940876483917236,-5.008188247680664,-0.8957891464233398,-85.11764526367188,-63.395015716552734,36.90696334838867,5.109471321105957,4.237624168395996,13.634008407592772,78.892822265625,-55.78593444824219,82.6253433227539,5.591990470886231,3.739457607269287,7.743898391723633,-156.28517150878906,-79.22908782958984,74.81019592285156,2.718705654144287,-4.6968994140625,7.218175888061523
1578.4461069107056,164.96653747558594,-24.65413856506348,-68.2665786743164,4.2571306228637695,-15.505035400390623,9.849533081054688,-163.98666381835938,-32.80571365356445,-90.67967987060548,-3.971651077270508,-4.577236175537109,0.0417385101318359,-84.05435943603516,-57.921966552734375,26.18545913696289,6.777815818786621,2.157169818878174,5.970782279968262,78.58191680908203,-46.91107940673828,88.47864532470703,6.206029891967773,1.252369403839111,25.877918243408203,-160.23397827148438,-79.50200653076172,76.58747863769531,1.90897274017334,2.165746688842773,7.217222213745117
1578.476104259491,164.87222290039062,-18.716045379638672,-66.29975128173828,4.611674308776856,-11.758146286010742,9.31760025024414,-164.37258911132812,-34.74327087402344,-91.3458480834961,-3.0884323120117188,-4.616387367248535,0.1846523284912109,-82.78912353515625,-54.36689758300781,14.758413314819336,6.568133354187012,-1.3535618782043457,0.2668209075927734,87.80170440673828,-34.10768508911133,95.22965240478516,13.139602661132812,12.034788131713867,16.424083709716797,-164.62579345703125,-80.59970092773438,79.48870849609375,1.6304724216461182,3.3405885696411133,4.187789916992188
1578.5062630176544,161.37359619140625,-14.09517765045166,-66.02985382080078,1.6366183757781982,-6.221324920654297,2.602767944335937,-164.94839477539062,-37.870513916015625,-92.0619125366211,-1.9704890251159668,-4.905662536621094,0.1109962463378906,-83.24423217773438,-53.83965301513672,3.83866286277771,2.951901435852051,-4.240062713623047,-1.3174705505371094,102.7595443725586,-16.42508888244629,103.85430145263672,8.420907974243164,-4.404796600341797,22.639625549316406,-170.3098602294922,-81.1153793334961,84.03531646728516,3.281588077545166,1.803133487701416,1.4263696670532229
1578.5360851287842,159.50897216796875,-11.62072467803955,-67.42637634277344,-0.2134955525398254,-2.130942821502685,-4.3302412033081055,-165.30140686035156,-41.96561050415039,-92.4149398803711,-2.244839191436768,-5.217216491699219,-0.8590269088745117,-83.39903259277344,-57.37938690185547,-6.272434711456299,-1.666926622390747,-3.619470596313477,-1.3491687774658203,107.96046447753906,4.749911785125732,111.9131317138672,11.561569213867188,9.244556427001951,16.013858795166016,-176.10800170898438,-81.09325408935547,89.10602569580078,3.489081859588623,1.3932130336761477,-0.5212688446044922
1578.5660946369171,159.28421020507812,-11.795198440551758,-69.1069107055664,-2.531506061553955,-1.603759765625,-9.956817626953123,-165.2668914794922,-46.4715690612793,-92.48268127441406,-3.24576473236084,-4.787639617919922,-2.0492372512817383,-79.94540405273438,-65.19625091552734,-16.610179901123047,-3.0643296241760254,-1.561493158340454,-2.3350071907043457,107.87543487548828,26.34439468383789,119.6728286743164,3.04805326461792,13.947633743286133,1.9865732192993164,178.00538635253906,-80.81954193115234,94.79413604736328,1.2962884902954102,1.1262314319610596,-3.1596755981445312
1578.626354455948,158.53314208984375,-15.025721549987791,-70.32503509521484,-4.311764717102051,-2.431828498840332,-13.126178741455078,-165.39346313476562,-50.66581726074219,-92.44058990478516,-2.1513924598693848,-4.921626091003418,-2.6524906158447266,-72.46987915039062,-75.17578887939453,-30.06766700744629,-5.090244293212891,0.3746447563171386,-0.9246854782104492,108.57502746582033,44.65671920776367,126.3378448486328,-4.528777122497559,5.649901390075684,-3.169921875,174.59942626953125,-80.23725128173828,98.33528900146484,-0.7630329132080078,0.7434202432632446,-5.426161766052246
1578.6563160419464,156.33135986328125,-21.61728858947754,-70.81387329101562,-3.3155789375305176,-4.788332939147949,-15.895950317382812,-165.2587127685547,-53.84588241577149,-92.47850036621094,-3.0847339630126958,-4.420828819274902,-4.738707542419434,-36.54401397705078,-83.91653442382812,-70.7385482788086,-5.975380897521973,2.581840991973877,-1.882162094116211,109.93956756591795,56.92593765258789,130.45155334472656,-8.580463409423828,-1.684504747390747,-2.7714428901672363,172.25595092773438,-79.243408203125,100.57693481445312,0.1480159759521484,0.5724853277206421,-6.067020416259766
1578.6861073970797,154.07725524902344,-31.298864364624023,-70.15184020996094,-0.632790207862854,-6.883295059204102,-14.1436767578125,-165.49266052246094,-55.510780334472656,-92.99378204345705,-4.688014030456543,-4.798405647277832,-5.284707069396973,49.28282928466797,-81.23980712890625,-159.8473358154297,-6.942925453186035,1.9913663864135744,-4.178483963012695,110.17507934570312,63.49567794799805,132.75975036621094,-7.278506278991699,-4.157042503356934,-6.572405815124512,170.52793884277344,-78.43058776855469,101.89096069335938,1.3215408325195312,0.01974843069911,-5.192878723144531
1578.7163453102112,151.75917053222656,-43.60886764526367,-67.84011840820312,0.3334303498268127,-7.133984565734863,-9.117870330810549,-165.80284118652344,-56.01392364501953,-93.7060775756836,-1.792764663696289,-6.782483100891113,-1.757986068725586,68.57679748535156,-72.20625305175781,176.44122314453125,-6.187015533447266,2.6531190872192383,-7.169191360473633,111.07867431640624,65.46382141113281,137.03993225097656,-10.823238372802734,-1.931128978729248,-8.431072235107422,171.37791442871094,-77.64383697509766,100.7538604736328,1.8319425582885744,-0.068791925907135,-3.706833839416504
1578.746015548706,146.8076934814453,-57.78739547729492,-62.47610855102539,1.8257100582122805,-4.492155075073242,-1.8141765594482424,-165.889404296875,-55.89790725708008,-94.1552276611328,-1.962114334106445,-5.358990669250488,-1.7893104553222656,73.97872161865234,-62.41585922241211,165.85751342773438,-6.434661865234375,4.560136795043945,-8.288095474243164,106.37339782714844,63.25514602661133,142.74569702148438,-9.361648559570312,-4.256967544555664,-10.463855743408203,175.86862182617188,-77.05216217041016,96.2990493774414,2.8006248474121094,-0.6413489580154419,0.1062078475952148
1578.776026248932,135.48304748535156,-72.10626220703125,-47.77632522583008,2.401891231536865,2.780975818634033,10.151042938232422,-166.05859375,-55.43550491333008,-94.64339447021484,-3.729879379272461,-5.092556953430176,-2.6330246925354004,76.50675964355469,-51.97128677368164,157.64964294433594,-9.11907958984375,5.781451225280762,-5.627710342407227,95.71851348876952,56.12693405151367,149.66537475585938,-5.042462348937988,-4.7024335861206055,-13.604455947875977,-171.441650390625,-77.21904754638672,86.00617980957031,2.5079479217529297,-2.9782309532165527,3.670866012573242
1578.8061101436615,97.3813705444336,-80.30000305175781,1.0936226844787598,4.161994934082031,17.38393783569336,15.28391456604004,-165.09133911132812,-54.65221405029297,-95.8019027709961,-3.0747528076171875,-5.5035505294799805,-2.793661117553711,76.06480407714844,-42.09041595458984,150.9919891357422,-11.432231903076172,7.417675971984863,-3.023993492126465,81.23822784423828,45.46585464477539,157.8744354248047,-12.283416748046877,2.605325698852539,-17.997825622558594,-152.61911010742188,-78.69131469726562,71.35724639892578,3.641201496124268,-0.2984808683395386,-1.0226144790649414
1578.83580160141,70.25662994384766,-78.3165054321289,40.42613983154297,-6.9719438552856445,32.15071105957031,-1.5952472686767578,-162.33914184570312,-53.79595184326172,-98.13799285888672,-4.262066841125488,-5.590272903442383,-1.9033598899841309,69.33289337158203,-37.868614196777344,144.93734741210938,-9.668411254882812,6.187387466430664,-6.691812515258789,68.5584945678711,38.48842239379883,165.27268981933594,-7.969634056091309,-3.5956430435180664,-15.768587112426758,-141.85702514648438,-78.26172637939453,62.834354400634766,8.399694442749023,3.0609536170959477,-2.055098533630371
1578.8668043613434,81.25686645507812,-78.08311462402344,31.35522079467773,1.5144126415252686,17.895793914794922,-2.957245349884033,-158.23509216308594,-53.31967926025391,-101.6525421142578,-1.1213643550872805,-4.677947998046875,-0.1344470977783203,59.827423095703125,-40.83088684082031,141.8103790283203,-5.417892456054688,15.092414855957031,0.7099771499633789,62.15603256225586,40.25873565673828,161.8262939453125,16.113853454589844,3.8461642265319824,-12.738309860229492,-139.64988708496094,-76.09574127197266,60.67556381225586,1.42712664604187,0.4480238556861877,4.952005386352539
1578.9264674186709,99.03976440429688,-78.59458923339844,7.662822723388672,11.00064468383789,-37.30707550048828,29.2615966796875,-153.81613159179688,-53.14640426635742,-105.67910766601562,-2.872999668121338,-6.253002166748047,-0.1398897171020507,63.11954879760742,-44.29986572265625,139.427734375,-2.900244235992432,17.73984146118164,-2.5469799041748047,74.20540618896484,46.01880645751953,154.5811004638672,-3.284374237060547,-0.8043863773345947,-8.074817657470703,-137.9895782470703,-76.19563293457031,58.19991302490234,1.520362138748169,0.384930670261383,1.5303850173950195
1578.956184387207,122.64795684814452,-76.08734893798828,-11.4213228225708,1.4139878749847412,2.8625617027282715,-5.133525848388672,-147.11221313476562,-53.78212356567383,-110.68360900878906,-5.069727897644043,-10.606212615966797,-1.8183670043945312,80.38702392578125,-45.660743713378906,137.275146484375,-1.616204023361206,6.846081733703613,-1.9808268547058103,75.99931335449219,55.01214218139648,141.4088592529297,-14.558042526245115,0.6730102300643921,-3.208400249481201,-140.63137817382812,-77.82566833496094,59.614349365234375,0.565758228302002,0.5747076272964478,-2.005427837371826
1578.9861779212952,138.7018280029297,-74.599609375,-23.32370948791504,-20.470932006835938,-4.642539024353027,3.68425178527832,-138.1060333251953,-53.221710205078125,-116.05845642089844,-7.442583084106445,-9.602304458618164,-4.801902770996094,96.1470947265625,-47.43785858154297,136.94439697265625,-0.9989161491394044,-0.0840933322906494,2.8969850540161133,62.69913101196289,63.04354095458984,116.30934143066406,-4.974241256713867,6.725321769714356,-8.265035629272461,-147.47401428222656,-77.78430938720703,68.76500701904297,-5.254150390625,-0.7392623424530029,-0.8707914352416992
1579.016116142273,145.50003051757812,-73.33792114257812,-30.491737365722656,4.36219596862793,1.4471282958984375,2.481700897216797,-124.41911315917967,-50.40684509277344,-118.51434326171876,-17.072410583496094,2.899106979370117,4.041172027587891,100.99862670898438,-50.75459289550781,136.1951141357422,-1.4858498573303225,-1.076873540878296,5.826328277587891,44.57735824584961,66.30593872070312,83.68247985839844,-6.417631149291992,2.3158836364746094,0.0095376968383789,-156.02301025390625,-76.45128631591797,80.99199676513672,-5.021083831787109,-1.3577392101287842,2.411914825439453
1579.0461847782135,154.50990295410156,-72.8048324584961,-38.26116943359375,-0.321876049041748,1.134837627410889,0.4470272064208984,-118.20436096191406,-44.68777847290039,-113.11852264404295,-26.10336303710937,4.785335540771484,4.887954711914063,97.86112213134766,-54.36867904663086,134.38662719726562,-3.06281852722168,2.071483612060547,0.5974912643432617,24.322242736816406,63.4693489074707,52.760250091552734,-1.5127689838409424,-3.479208469390869,-0.8488588333129883,-164.98788452148438,-75.25753784179688,93.5740966796875,-0.2341742813587188,1.3232555389404297,-0.5648689270019531
1579.076399564743,162.17343139648438,-72.49574279785156,-44.32871627807617,-1.7514009475708008,0.6193172931671143,1.263723373413086,-120.08045196533205,-37.265846252441406,-103.58850860595705,-14.470787048339844,-3.0401864051818848,0.8547372817993164,94.7816390991211,-57.16529846191406,132.83233642578125,-3.490074157714844,4.419820785522461,-3.4084839820861816,15.973089218139648,56.71544647216797,32.15826416015625,-0.7330509424209595,-7.997476577758789,-4.9921722412109375,-174.12258911132812,-74.12272644042969,103.46623992919922,1.6841561794281006,0.7234336137771606,2.18405818939209
1579.1067504882812,167.12591552734375,-72.26846313476562,-48.67402267456055,-0.0808345675468444,0.4490589499473572,0.7950983047485352,-123.9698486328125,-30.264196395874023,-93.63026428222656,-7.906088829040527,-4.433820724487305,-7.159791946411133,95.41447448730467,-58.77191925048828,133.3323974609375,-6.973409652709961,2.478729248046875,-0.9305906295776368,22.545679092407227,49.8875617980957,21.41783142089844,0.1655714511871338,-9.287668228149414,-6.402666091918945,179.7848358154297,-74.25474548339844,109.12806701660156,-1.47704815864563,1.944709062576294,3.026966094970703
1579.1356093883514,171.9639129638672,-72.5276870727539,-52.315956115722656,0.1709606945514679,0.4238151907920837,0.4343376159667969,-128.07420349121094,-24.378990173339844,-84.31717681884766,-1.7346923351287842,-3.3236899375915527,-9.549272537231444,95.73741149902344,-60.843379974365234,134.77609252929688,-7.823711395263672,0.0861504077911377,2.901007652282715,44.03484344482422,44.83821868896485,19.504100799560547,-3.315277099609375,-5.9417266845703125,-9.036479949951172,175.43089294433594,-74.22522735595703,114.26244354248048,-4.351287841796875,1.0922329425811768,0.3295049667358398
1579.166600227356,177.47769165039062,-73.08084106445312,-56.22023010253906,-1.28590989112854,-0.8630204200744629,0.5623798370361328,-132.28948974609375,-19.928367614746094,-76.21440887451172,0.8423691987991333,-1.0636439323425293,-10.472667694091797,92.16018676757812,-64.53389739990234,136.63916015625,-4.825510025024414,1.069582223892212,3.602980613708496,65.30950927734375,38.9162483215332,21.949352264404297,1.8309986591339111,18.18999481201172,7.215950012207031,171.65780639648438,-74.35289764404297,118.91909790039062,-3.250004291534424,1.2369036674499512,-1.337289810180664
1579.2259058952332,-177.02963256835938,-73.59728240966797,-60.910980224609375,-1.300983190536499,-0.6942660808563232,0.4448509216308594,-137.6545867919922,-17.3808536529541,-69.52288818359375,1.545891046524048,-0.8616293668746948,-10.443229675292969,84.37940216064453,-69.55177307128906,140.377685546875,-3.8544321060180655,2.929210662841797,0.273045539855957,72.12413787841797,30.30929946899414,24.759201049804688,6.366957664489746,0.9894779920578004,5.196681976318359,167.73696899414062,-74.23824310302734,122.5404815673828,-0.3986058235168457,1.9433488845825195,-1.946486473083496
1579.2559497356417,-172.2138214111328,-73.92167663574219,-66.10150909423828,1.010063409805298,-0.5382236242294312,-0.2455606460571289,-143.9922332763672,-17.25639533996582,-63.98347854614258,0.5373654365539551,-1.7603917121887207,-7.954043388366699,74.31507873535156,-74.17829132080078,148.64613342285156,-3.7944202423095694,2.840641021728516,-2.422123908996582,80.38849639892578,18.314950942993164,26.768634796142575,7.496986389160156,-0.0020674946717917,-0.4052553176879883,162.8330535888672,-73.38977813720703,126.39441680908205,0.4404691457748413,1.1097049713134766,-3.065293312072754
1579.2859745025637,-168.0227813720703,-73.89253997802734,-69.96797180175781,0.9718241691589355,-1.5039660930633545,-0.4878377914428711,-148.55435180664062,-20.186599731445312,-59.62385559082031,7.111441612243652,-3.966408252716065,-8.647821426391602,61.149658203125,-77.26692962646484,163.3813018798828,-3.194770336151123,2.070639610290528,-4.3578081130981445,91.3243637084961,3.0447819232940674,26.29635429382324,14.014795303344728,4.553000450134277,2.366914749145508,157.76541137695312,-72.20626831054688,129.38702392578125,0.272197425365448,-0.0050987768918275,-3.691763877868652
1579.3166053295135,-166.5462646484375,-73.09066772460938,-71.28631591796875,2.6009984016418457,-1.7146492004394531,-1.1284265518188477,-147.08815002441406,-26.977245330810547,-57.70125961303711,14.13881492614746,-4.928495407104492,-5.825887680053711,41.93495941162109,-78.69275665283203,-175.0659942626953,-1.8835115432739256,1.2902171611785889,-5.411985397338867,96.65702056884766,-14.465341567993164,26.40585327148437,18.691421508789062,6.389469146728516,9.146718978881836,153.45672607421875,-71.28246307373047,131.63662719726562,-0.3207112550735473,-0.0216349363327026,-3.5347800254821777
1579.3463468551636,-169.24842834472656,-71.20406341552734,-69.22415161132812,3.801588535308838,-1.0640323162078855,-1.137507438659668,-137.60548400878906,-31.80908203125,-57.43637847900391,-18.809200286865234,-10.45547866821289,42.37467193603516,17.275821685791016,-78.2874755859375,-149.4581298828125,-2.079557418823242,2.3301963806152344,-5.977156639099121,94.64369201660156,-30.660520553588867,30.491270065307617,18.74246597290039,6.752781867980957,12.580331802368164,149.73934936523438,-70.95912170410156,133.69461059570312,-0.974872350692749,0.1766054034233093,-2.3253302574157715
1579.3764719963074,-173.03106689453125,-68.23442840576172,-65.54069519042969,2.604295253753662,-1.1481637954711914,-1.1166057586669922,-137.6639862060547,-30.851821899414062,-58.52616882324219,12.793743133544922,-7.053738594055176,0.3130102157592773,-9.19530200958252,-75.62969970703125,-122.9573974609375,-5.591153144836426,6.258459091186523,-3.474714756011963,89.9517593383789,-39.83002853393555,35.0582275390625,4.062763214111328,1.197700023651123,4.396932601928711,146.14645385742188,-71.3117904663086,136.48809814453125,-3.729861736297608,0.0951820909976959,-1.00146484375
1579.4065690040588,-176.2686004638672,-64.76029968261719,-61.81530380249024,-0.957650899887085,-0.7348748445510864,-0.2994108200073242,-143.4873809814453,-27.04023742675781,-59.84413146972656,8.250587463378906,-17.579635620117188,1.4838008880615234,-34.36674499511719,-69.63096618652344,-96.75479125976562,-11.096601486206056,14.823118209838867,0.5798540115356445,86.53872680664062,-40.776668548583984,33.490291595458984,8.049285888671875,-1.060521125793457,-0.3753767013549804,143.6814422607422,-71.32981872558594,139.1206512451172,-4.628490447998047,-0.5926148891448975,1.1815309524536133
1579.4366011619568,-178.4843292236328,-61.454349517822266,-58.71063995361328,-0.704398512840271,0.8295828104019165,0.946096420288086,-149.6507568359375,-23.137853622436523,-60.21816635131836,12.210758209228516,-16.37895965576172,4.385919570922852,-52.04942321777344,-59.77278137207031,-74.54597473144531,-9.47419548034668,23.106765747070312,0.6441268920898438,88.13854217529297,-38.9777946472168,32.73993682861328,8.303632736206055,1.9774298667907717,-0.7658052444458008,145.26568603515625,-70.48719024658203,139.0191650390625,-1.198251485824585,-2.6657629013061523,4.710840225219727
1579.4662504196167,179.9166717529297,-58.884552001953125,-56.22593307495117,-1.057969331741333,-0.0936964005231857,0.9343461990356444,-147.20338439941406,-19.126583099365234,-62.10970306396485,7.658418655395508,-16.30661392211914,4.703610420227051,-64.41459655761719,-45.13400268554688,-56.41322326660156,-5.9578351974487305,22.79351043701172,10.984289169311523,89.15187072753906,-36.771114349365234,33.6721305847168,8.708213806152344,8.676855087280273,3.4680137634277344,144.667724609375,-70.59796142578125,140.52780151367188,2.3971099853515625,-1.124143123626709,7.879199981689453
