Timestamp,D4:22:CD:00:05:5D_EulerX,D4:22:CD:00:05:5D_EulerY,D4:22:CD:00:05:5D_EulerZ,D4:22:CD:00:05:5D_FreeAccX,D4:22:CD:00:05:5D_FreeAccY,D4:22:CD:00:05:5D_FreeAccZ,D4:22:CD:00:05:5E_EulerX,D4:22:CD:00:05:5E_EulerY,D4:22:CD:00:05:5E_EulerZ,D4:22:CD:00:05:5E_FreeAccX,D4:22:CD:00:05:5E_FreeAccY,D4:22:CD:00:05:5E_FreeAccZ,D4:22:CD:00:05:6B_EulerX,D4:22:CD:00:05:6B_EulerY,D4:22:CD:00:05:6B_EulerZ,D4:22:CD:00:05:6B_FreeAccX,D4:22:CD:00:05:6B_FreeAccY,D4:22:CD:00:05:6B_FreeAccZ,D4:22:CD:00:05:6E_EulerX,D4:22:CD:00:05:6E_EulerY,D4:22:CD:00:05:6E_EulerZ,D4:22:CD:00:05:6E_FreeAccX,D4:22:CD:00:05:6E_FreeAccY,D4:22:CD:00:05:6E_FreeAccZ,D4:22:CD:00:49:AA_EulerX,D4:22:CD:00:49:AA_EulerY,D4:22:CD:00:49:AA_EulerZ,D4:22:CD:00:49:AA_FreeAccX,D4:22:CD:00:49:AA_FreeAccY,D4:22:CD:00:49:AA_FreeAccZ
520.5241928100586,-171.04241943359375,-59.21720123291016,-98.0958023071289,0.7175723314285278,3.851830959320069,-0.974289894104004,-121.19952392578124,-65.86524200439453,-62.1830940246582,-4.100412368774414,-6.127701759338379,10.313310623168944,-96.65756225585938,-41.264190673828125,-101.2431869506836,8.535537719726562,1.2885026931762695,8.633106231689453,-25.099016189575195,-61.400489807128906,-176.52877807617188,-12.67341423034668,-2.3255414962768555,5.386256217956543,165.62452697753906,-72.01146697998047,118.42422485351562,2.212765693664551,0.7200487852096558,10.431915283203123
520.5543565750122,-172.20706176757812,-55.97968292236328,-95.58081817626952,-1.080845594406128,2.01430892944336,2.2616872787475586,-162.33338928222656,-68.76141357421875,-22.020484924316406,0.7750982046127319,-2.20211124420166,7.538652420043945,-87.28280639648438,-34.73670959472656,-108.06775665283205,20.51586532592773,-8.29348373413086,12.5257568359375,77.9793472290039,-79.64677429199219,82.93226623535156,-4.30784797668457,-0.3470746874809265,12.978857040405272,161.84388732910156,-72.98580932617188,124.51365661621094,1.3903989791870115,-0.0491037815809249,9.212541580200195
520.6136555671692,-173.11184692382812,-54.36549377441406,-93.41800689697266,-1.3125145435333252,1.794656753540039,1.8739118576049805,174.95372009277344,-69.30891418457031,-0.4924157559871673,0.0395679399371147,0.5401629209518433,5.368643760681152,-77.59513092041016,-24.36885452270508,-111.33639526367188,9.194276809692385,4.234993934631348,12.974042892456056,108.43250274658205,-68.87934112548828,56.30618667602539,5.754310607910156,4.556888580322266,8.118396759033203,161.47491455078125,-74.23149871826172,127.71399688720705,-1.5411410331726074,2.0311989784240723,9.35210418701172
520.6437418460846,-173.38357543945312,-54.464317321777344,-91.74089050292967,-0.7774163484573364,2.3374581336975098,2.1990528106689453,161.8159942626953,-71.46531677246094,12.923799514770508,1.815415859222412,3.639214038848877,1.9693117141723635,-73.80793762207031,-12.372849464416504,-109.00751495361328,13.611225128173828,-0.7678065299987793,18.44794464111328,108.66696166992188,-71.18079376220703,63.36777877807617,2.04308557510376,0.5924563407897949,4.558496475219727,163.75518798828125,-75.64647674560547,129.4225616455078,0.0612742900848388,0.1360731124877929,7.402973175048828
520.6741783618927,-172.3449249267578,-56.360599517822266,-90.91727447509766,-4.150813102722168,1.5376479625701904,3.6692867279052734,147.50747680664062,-77.15188598632812,29.69956588745117,2.2311906814575195,5.033496856689453,0.6979179382324219,-59.312618255615234,-1.3929033279418943,-105.3476333618164,2.4687342643737797,-2.2578816413879395,14.543636322021484,103.82341766357422,-78.51652526855469,73.95929718017578,-4.925057411193848,-5.746642112731934,1.7038536071777344,169.02056884765625,-76.74860382080078,128.20921325683594,-1.5913231372833252,0.0077451709657907,7.173421859741211
520.7046976089478,-169.94705200195312,-59.54991149902344,-91.97400665283205,-7.873804092407227,-0.0790225565433502,4.3001556396484375,105.94912719726562,-82.34319305419922,74.79969024658203,-0.6521631479263306,5.402139663696289,0.4371366500854492,-43.31074142456055,6.278048992156982,-101.26968383789062,0.3097773790359497,-1.342853307723999,3.8706884384155273,115.98157501220705,-88.01683044433594,68.17078399658203,-3.764810085296631,-7.640214920043945,0.1984243392944336,176.87274169921875,-78.04498291015625,124.88260650634766,-1.7776496410369873,-1.134720802307129,3.500918388366699
520.7338228225708,-168.2953643798828,-63.55436325073242,-92.5887680053711,-7.636767387390137,-4.706335067749023,8.163400650024414,49.40386962890625,-79.15489196777344,133.92454528808594,-2.0226597785949707,4.4958343505859375,-0.2343921661376953,-30.45439338684082,11.060002326965332,-97.94680786132812,-4.037757873535156,1.266681432723999,5.138927459716797,-81.56611633300781,-80.6087875366211,-81.71237182617188,-3.2983570098876958,-12.531116485595703,-0.572270393371582,-171.06982421875,-78.98881530761719,117.29900360107422,0.643674373626709,-0.5621757507324219,-2.3182077407836914
520.7638320922852,-168.3246307373047,-68.72860717773438,-93.39842224121094,-0.1008633524179458,-9.262565612792969,4.168841361999512,28.72616004943848,-71.322265625,155.42555236816406,-3.685390472412109,3.263984203338623,-3.568328857421875,-13.261540412902832,13.357467651367188,-96.35855865478516,-3.016302585601806,3.979280471801758,0.9130611419677734,-72.54036712646484,-70.04137420654297,-73.88859558105469,-2.60599946975708,-11.827447891235352,-3.2076001167297363,-160.2613067626953,-79.20629119873047,109.96573638916016,1.5137956142425537,3.895697593688965,-6.526373863220215
520.7943403720856,-175.65699768066406,-72.94156646728516,-89.58042907714844,1.2516229152679443,-1.9625115394592283,-6.816867828369141,18.44158363342285,-63.96712493896485,163.7208251953125,-4.831303596496582,-0.2377023994922638,-6.677022933959961,0.8815720081329346,14.406078338623049,-99.05116271972656,5.70609188079834,6.588708877563477,-5.176849365234375,-57.64080047607422,-62.39411163330078,-67.0663070678711,-0.0607845708727836,-10.075277328491213,-4.320409774780273,-149.18629455566406,-80.0733413696289,100.3037338256836,1.4905831813812256,2.398895263671875,-10.337656021118164
520.8243548870087,174.4804229736328,-76.26078796386719,-75.1567611694336,4.858397483825684,4.316439628601074,-5.894338607788086,9.68500804901123,-57.81201171875,168.21034240722656,-7.385613441467285,2.624598979949951,-8.255048751831055,4.974364280700684,16.486148834228516,-107.06835174560548,4.838648796081543,1.6904489994049072,-7.890768051147461,-34.34862518310547,-56.43041610717773,-64.55496215820312,-2.2938804626464844,-16.018028259277344,-7.505203247070312,-137.72886657714844,-81.33340454101562,91.25336456298828,-2.6390013694763184,-3.39529800415039,-11.684110641479492
520.8543438911438,153.79473876953125,-80.23116302490234,-50.254207611083984,-4.0599212646484375,-2.799534797668457,-3.814650535583496,2.0730109214782715,-52.991397857666016,171.52471923828125,-10.822832107543944,-2.086432456970215,-8.709722518920898,3.855440855026245,20.942798614501957,-121.11251831054688,-1.3407273292541504,-2.3108878135681152,-13.172855377197266,-9.41999340057373,-53.00936508178711,-62.712310791015625,5.094071388244629,-13.759613037109377,-16.831253051757812,-124.66879272460938,-82.81403350830078,81.8342056274414,-3.043888092041016,-2.138221740722656,-8.282398223876953
520.8844254016876,142.6387939453125,-82.03703308105469,-38.88109970092773,10.282699584960938,19.52235412597656,-9.942432403564451,-7.284653663635254,-50.8791618347168,173.8617706298828,-14.285734176635742,-2.264037609100342,-13.38720703125,-1.8523885011672971,25.122413635253903,-142.0467071533203,-14.16181755065918,-6.827470779418945,-19.94355010986328,5.679276943206787,-52.49869918823242,-61.156864166259766,9.317544937133787,-5.816261291503906,-13.325084686279297,-105.8346710205078,-83.77609252929688,65.52669525146484,1.892664909362793,0.0555858835577964,-5.917355537414551
520.9441211223602,144.36134338378906,-81.26668548583984,-39.39685821533203,-1.5854687690734863,-1.5638556480407717,-3.725605010986328,-15.642582893371582,-52.23111724853516,175.66661071777344,-14.624906539916992,3.223755359649658,-16.295394897460938,-12.002955436706545,27.0372371673584,-166.8819580078125,-59.09764099121094,-5.341585159301758,-24.35313415527344,12.923421859741213,-53.339351654052734,-60.17855072021485,10.253549575805664,-1.6162686347961426,-6.39940071105957,-94.15145111083984,-84.33863830566406,55.36359786987305,1.2056691646575928,0.2453345656394958,-4.803389549255371
520.9740579128265,143.2617645263672,-79.70436096191406,-40.42254257202149,7.307806015014648,-1.9004111289978027,-5.567740440368652,-22.713090896606445,-57.09549331665039,179.1836700439453,-18.81708526611328,-0.902031660079956,-16.59166717529297,-25.022409439086918,32.42445755004883,-174.4151611328125,24.688373565673828,-8.100173950195312,-9.954566955566406,14.857028007507324,-53.914310455322266,-58.531436920166016,8.342771530151367,-0.8189109563827515,-4.158441543579102,-91.21648406982422,-84.99821472167969,53.64576721191406,-4.701128005981445,-2.089343547821045,-3.1116867065429688
521.0037975311279,145.14093017578125,-76.84617614746094,-39.35627746582031,3.676860809326172,-2.930572032928467,2.628890037536621,-35.794036865234375,-64.87519836425781,-172.72174072265625,-7.269400596618652,-7.190264701843262,7.93626594543457,-34.756587982177734,38.61690139770508,-160.59121704101562,1.2433490753173828,18.851497650146484,-1.3125391006469729,14.885424613952637,-54.25626754760742,-56.21145248413086,7.458330154418945,-1.0234475135803225,-6.116681098937988,-101.4451141357422,-85.93413543701172,65.20451354980469,-2.893864631652832,0.4390102624893188,4.769315719604492
521.0338637828827,146.04669189453125,-74.05121612548828,-36.50708770751953,0.6677157878875732,1.899609327316284,4.485143661499023,-30.042482376098636,-68.54882049560547,-173.78802490234375,3.773587226867676,-6.028005599975586,8.879308700561523,-21.550704956054688,44.93936538696289,-141.09971618652344,-21.42557144165039,0.6454973220825195,-19.19302749633789,13.289019584655762,-54.29015350341797,-52.942989349365234,8.429338455200195,-0.9136141538619996,-0.3355360031127929,-119.25306701660156,-86.84930419921875,83.4687728881836,-1.3872182369232178,2.401750087738037,6.050048828125
521.0639379024506,143.0183563232422,-72.47673797607422,-31.991291046142575,2.140732288360596,0.7962161302566528,4.322459220886231,-29.439468383789062,-72.45195770263672,-173.58157348632812,-4.018912315368652,-3.5722827911376958,7.10200309753418,12.747984886169434,45.91386795043945,-122.15510559082033,-1.4586145877838137,-7.395551681518555,-19.56838607788086,8.443766593933105,-54.802093505859375,-46.63804626464844,11.644397735595703,2.4172987937927246,1.7302446365356443,-134.64413452148438,-87.33207702636719,98.56951141357422,-0.2934979796409607,-1.7941017150878906,3.547612190246582
521.0947830677032,137.389404296875,-70.75908660888672,-26.79637336730957,0.9547929763793944,-2.485121726989746,4.807884216308594,-44.20075225830078,-76.41795349121094,-165.2533721923828,-3.4388766288757324,6.976960182189941,3.1168365478515625,32.19804763793945,42.40848922729492,-102.29678344726562,1.4632272720336914,-12.312349319458008,-6.14632511138916,-4.075220108032227,-55.47922134399414,-36.6704330444336,17.717304229736328,9.62912368774414,3.346273422241211,-142.77691650390625,-87.07129669189453,106.30948638916016,0.6497592926025391,-4.087023735046387,4.470650672912598
521.1246981620789,130.62461853027344,-68.9214859008789,-21.599721908569336,0.2697738409042358,-0.970425009727478,4.771318435668945,-40.824832916259766,-78.75112915039062,-169.50994873046875,-3.2614426612854004,4.422242164611816,5.947680473327637,36.34233474731445,35.05095672607422,-85.43618774414062,-5.169957160949707,-6.6249284744262695,4.13126277923584,-27.01511001586914,-56.18873977661133,-28.63700485229492,16.010860443115234,6.671564102172852,0.406015396118164,-139.0814208984375,-86.01783752441406,101.66322326660156,1.6907386779785156,0.1404430270195007,2.2739362716674805
521.1539602279663,122.73890686035156,-67.0666732788086,-16.662935256958008,4.474069595336914,-1.4078328609466553,1.4798088073730469,-21.61777114868164,-79.14795684814453,173.7393798828125,-4.101149559020996,-0.1328566670417785,-0.639857292175293,36.36561584472656,28.559886932373047,-71.13619232177734,-3.7279186248779297,-2.1531615257263184,5.244131088256836,-52.31106185913086,-59.3072509765625,-26.470504760742188,12.252433776855469,-1.6477954387664795,0.6250724792480469,-138.55714416503906,-84.53729248046875,97.51393127441406,6.125988006591797,7.845922470092773,-2.437624931335449
521.1842968463898,114.55596923828124,-66.2817153930664,-12.943416595458984,1.419736623764038,2.482433319091797,3.864081382751465,-6.8380045890808105,-79.52195739746094,160.33816528320312,-4.886311531066895,-0.7375028133392334,-1.287923812866211,32.33567428588867,22.51596069335937,-58.2917366027832,1.8524718284606931,4.50352954864502,2.806058883666992,-72.99889373779297,-66.25791931152344,-28.34053039550781,2.397234916687012,-4.24629020690918,5.68585205078125,-145.44601440429688,-82.64051818847656,98.62769317626952,7.997109413146973,3.0249505043029785,-1.3757171630859375
521.2438952922821,101.96376037597656,-66.88961029052734,-9.765711784362791,6.758419036865234,14.774959564208984,-5.32745361328125,5.541872978210449,-79.34024047851562,149.19798278808594,-5.778525352478027,-1.143251657485962,-1.2825183868408203,23.90760803222656,15.88689422607422,-45.99940872192383,6.034095764160156,10.725561141967772,6.987733840942383,-77.45973205566406,-72.58148956298828,-32.90000915527344,-13.77025032043457,4.371173858642578,4.988590240478516,-150.4558563232422,-80.06900024414062,99.38702392578124,3.577106475830078,-1.9369256496429443,2.028047561645508
521.2741241455078,106.6016616821289,-65.44198608398438,-22.84310340881348,7.527034759521484,25.48308563232422,2.879286766052246,13.160165786743164,-78.91887664794922,141.14520263671875,-5.051874160766602,-1.197753667831421,-0.8903541564941406,3.523726463317871,9.392001152038574,-35.71127700805664,7.336304664611816,24.42654037475586,-1.0221099853515625,-70.45000457763672,-72.76719665527344,-41.11289978027344,-2.9960594177246094,-1.423703670501709,-5.893008232116699,-150.98135375976562,-79.23893737792969,97.99512481689452,-1.059682846069336,0.1567719876766204,1.7272224426269531
521.3039011955261,121.20277404785156,-59.97027206420898,-44.36134719848633,6.475772857666016,16.609664916992188,4.681406021118164,18.00316047668457,-78.19428253173828,135.81398010253906,-2.332146644592285,0.4014234542846679,0.3314828872680664,-20.664417266845703,2.949688196182251,-29.3284912109375,-9.904325485229492,-9.36622428894043,-2.3784799575805664,-64.92864227294922,-68.12251281738281,-44.17402267456055,-2.5052943229675293,-9.265689849853516,-2.6575698852539062,-151.2471160888672,-78.51677703857422,96.3635711669922,2.380332946777344,4.439741134643555,0.2646656036376953
521.3335728645325,133.29359436035156,-50.52033996582031,-61.34317398071289,3.776253700256348,4.489928245544434,-0.8243551254272461,22.877418518066406,-77.27780151367188,132.0090789794922,-3.456979274749756,-0.693371057510376,-1.0248489379882812,-23.72090721130371,-4.019911289215088,-26.310680389404297,-9.321489334106444,-8.768320083618164,4.512699127197266,-67.14872741699219,-64.05622863769531,-42.86823272705078,6.869450569152832,-13.44369888305664,-3.1117606163024902,-151.0153350830078,-78.19585418701172,94.2203598022461,4.887643814086914,3.3637609481811523,1.524129867553711
521.3641538619995,143.5218963623047,-40.08346939086914,-71.90567016601562,0.4004822373390198,-1.362596035003662,-8.852075576782227,27.08539581298828,-77.35253143310547,128.96726989746094,-1.421176195144653,-0.5704474449157715,0.2363471984863281,-18.859983444213867,-10.891192436218262,-25.538101196289062,-1.6902062892913818,1.7541260719299316,-1.5041522979736328,-73.5092544555664,-62.38531112670898,-41.39552307128906,4.735560417175293,-10.022993087768556,-2.40956974029541,-155.5548095703125,-78.28333282470703,96.7711181640625,2.466439723968506,2.87109375,-2.7901501655578613
521.3941271305084,153.40928649902344,-31.254301071166992,-78.35118103027344,-4.214409828186035,-0.6440918445587158,-12.610294342041016,32.9871711730957,-79.3121109008789,126.25686645507812,-1.0023581981658936,-1.2893579006195068,-1.5488576889038086,-17.146596908569336,-17.791738510131836,-26.37373161315918,-1.3887996673583984,-3.3786330223083496,-0.7592191696166992,-79.0316390991211,-62.69890213012695,-40.12351989746094,2.146467685699463,-4.590815544128418,-2.984472274780273,-158.46847534179688,-77.90251922607422,97.3487777709961,0.4811563491821289,-0.0923098474740982,-3.761618137359619
521.4243197441101,161.9744873046875,-25.61958122253418,-83.4542007446289,-6.0970306396484375,-1.7760841846466064,-6.815631866455078,43.96234130859375,-84.13920593261719,118.52106475830078,-2.713419914245605,-3.2169108390808105,-0.0803213119506836,-12.138017654418944,-25.835187911987305,-30.339561462402344,2.4219603538513184,0.0438518524169921,-5.119532585144043,-78.97600555419922,-64.26605987548828,-40.65877532958984,1.5141146183013916,-0.0829049795866012,-4.917189598083496,-159.13079833984375,-78.36741638183594,96.56138610839844,-0.557542085647583,-0.4160792827606201,-4.445902824401856
521.4539632797241,165.2550811767578,-25.17708778381348,-88.58563232421875,-4.8381195068359375,-8.679433822631836,-11.639999389648438,-174.76197814941406,-87.41609191894531,-26.20434188842773,-0.5203201770782471,3.176638126373291,-2.171017646789551,-3.940675973892212,-36.38703918457031,-39.73394012451172,9.828998565673828,2.139294147491455,-7.654975891113281,-73.0320053100586,-66.16400909423828,-43.78007507324219,1.7736735343933103,-0.244335800409317,-6.004477500915527,-160.50816345214844,-78.74667358398438,96.85045623779295,1.9786391258239744,0.1092664152383804,-7.797261238098144
521.4842598438263,164.83746337890625,-30.050769805908203,-92.51084899902344,-4.714581489562988,-9.949342727661133,-12.913984298706056,-152.69570922851562,-79.67124938964844,-55.18535232543945,-8.732902526855469,1.9474780559539795,-6.972796440124512,9.09177303314209,-47.20455932617188,-55.68575286865234,9.81085205078125,-6.58416748046875,10.68876838684082,-62.942508697509766,-68.1247787475586,-49.343505859375,2.0183238983154297,0.0271921381354331,-7.700432777404785,-162.60411071777344,-79.04100799560547,96.07079315185548,3.744802474975586,1.2851183414459229,-7.106928825378418
521.5441248416901,169.7219696044922,-30.818639755249023,-94.25100708007812,-8.221382141113281,-11.627052307128906,10.579099655151367,-152.79811096191406,-73.46568298339844,-61.67858123779297,-9.308528900146484,-15.306024551391602,-1.561685562133789,25.366134643554688,-51.45629119873047,-73.08265686035156,2.905099868774414,-8.9049072265625,16.425662994384766,-48.86458587646485,-69.73699951171875,-58.39767456054688,5.276762962341309,-0.4455463886260986,-8.373559951782227,-162.08058166503906,-80.03907012939453,91.44313049316406,-1.6434955596923828,1.519644260406494,1.2047758102416992
521.5742790699005,174.83583068847656,-33.23698425292969,-95.4495849609375,-8.907291412353516,-21.369815826416016,-1.2726306915283203,-152.13246154785156,-70.51429748535156,-64.09700012207031,-1.494873046875,7.428534507751465,3.78515625,32.27350616455078,-50.65617370605469,-76.7896499633789,3.839279174804688,-14.928951263427734,7.900075912475586,-36.02876663208008,-71.28260040283203,-73.47712707519531,18.73770523071289,-9.41499137878418,-5.249937057495117,-160.2862091064453,-80.27635192871094,86.86557006835938,-5.428851127624512,-0.877159595489502,6.565582275390625
521.6038789749146,177.12034606933594,-34.73953628540039,-95.22391510009766,-2.5186824798583984,-15.539592742919922,8.835807800292969,-151.9205322265625,-68.79732513427734,-66.43513488769531,-3.552945137023926,-0.1106753349304199,1.9903068542480469,25.882455825805664,-48.160003662109375,-66.98064422607422,18.657005310058597,-14.670246124267578,7.559810638427734,-28.57775115966797,-72.75852966308594,-98.30534362792967,9.389833450317385,-13.264253616333008,9.36977195739746,-161.26861572265625,-78.88123321533203,87.16426849365234,1.74408221244812,1.711456537246704,11.861648559570312
521.6343252658844,176.61395263671875,-33.1950569152832,-94.0410614013672,0.6959433555603027,-12.697399139404297,12.136831283569336,-151.41314697265625,-69.18592071533203,-67.90435028076172,-3.497096538543701,1.5431790351867676,1.299117088317871,9.70567798614502,-44.62335205078125,-56.32778930664063,7.443011283874512,-16.64789581298828,3.4399490356445312,-5.231230735778809,-70.28829193115234,-134.01683044433594,16.942241668701172,-3.393110752105713,22.316883087158203,-160.23175048828125,-79.6808090209961,85.0820083618164,7.497244834899902,6.071398735046387,8.891355514526367
521.6638250350952,173.76670837402344,-29.8041934967041,-94.03540802001952,-2.821279525756836,-12.197038650512695,13.787841796875,-151.10189819335938,-70.70917510986328,-69.83617401123047,-4.682045936584473,-0.5448110103607178,-0.2305011749267578,-5.249816417694092,-40.29122543334961,-51.2750358581543,0.9271721839904784,-13.400793075561523,6.137311935424805,16.315013885498047,-60.74840545654297,-161.36878967285156,16.902629852294922,-13.361814498901367,21.682483673095703,-167.11865234375,-79.87626647949219,88.4921646118164,1.6164984703063965,1.130781650543213,4.307921409606934
521.6939656734467,167.60984802246094,-26.876678466796875,-94.95265197753906,-4.370882034301758,-21.185226440429688,5.646050453186035,-151.51661682128906,-73.69636535644531,-70.13480377197266,-4.676953315734863,1.106736421585083,2.53128719329834,-16.352094650268555,-38.051856994628906,-52.80354309082031,-3.701893329620361,-9.088966369628906,4.067512512207031,26.6479434967041,-46.0634880065918,-178.85630798339844,6.569918632507324,-3.421321392059326,18.64083480834961,-173.865966796875,-79.63932800292969,92.37474822998048,0.411590576171875,-0.4170912504196167,4.466346740722656
521.7239706516266,160.12026977539062,-23.362340927124023,-95.7469482421875,0.7801777124404907,-5.956913948059082,8.479928970336914,-148.4443359375,-77.51306915283203,-74.97637176513672,-4.212029457092285,0.948428511619568,5.106077194213867,-24.172435760498047,-39.81382751464844,-58.92049789428711,-3.3830113410949707,-4.543735504150391,1.2795019149780271,29.560400009155277,-27.46855926513672,169.8069305419922,1.0276999473571775,2.8183035850524902,14.001827239990234,179.93663024902344,-79.96732330322266,96.30826568603516,3.0960497856140137,1.7502775192260742,3.646950721740722
521.7552499771118,159.99847412109375,-19.98480224609375,-98.06103515625,-5.448901176452637,-4.841892242431641,5.837506294250488,-136.26593017578125,-81.19583129882812,-88.74047088623047,-3.8061928749084473,-4.90114688873291,5.267106056213379,-29.760377883911133,-44.6187629699707,-68.22097778320312,-4.017441749572754,-2.0344443321228027,2.9380245208740234,25.955242156982425,-8.263540267944336,161.8552703857422,-2.120923519134521,6.634038925170898,4.124346733093262,171.0392608642578,-80.38912963867188,102.59504699707033,1.6808927059173584,1.131739616394043,3.271503448486328
521.78449010849,158.13339233398438,-18.168392181396484,-101.3204574584961,-4.498259544372559,-1.9376673698425293,-0.712855339050293,-79.34890747070312,-84.2220230102539,-142.13880920410156,4.194954872131348,-1.920604228973389,-1.9237523078918457,-34.809268951416016,-50.03047943115234,-79.34237670898438,-8.712118148803711,2.450911521911621,5.190874099731445,18.85224723815918,8.03777027130127,155.44068908691406,0.0650971084833145,5.859406471252441,-0.4918622970581054,162.62684631347656,-80.67586517333984,108.4657211303711,0.9620035886764526,-0.6810568571090698,-0.5672330856323242
521.8443341255188,156.98728942871094,-18.91183280944824,-104.01921081542967,-2.729494094848633,-0.5618224143981934,-10.15028953552246,-60.05220413208008,-82.5152587890625,-159.59213256835938,-4.142070770263672,0.1793787479400634,-6.482481002807617,-36.54317855834961,-55.03759765625,-92.09867095947266,-6.856581687927246,6.725741386413574,1.8132667541503904,12.066286087036133,19.762022018432617,150.23385620117188,1.6020138263702393,-0.5930681228637695,-0.4820556640625,154.69203186035156,-80.63961791992188,114.39923095703124,2.6801061630249023,0.2687631845474243,-4.337614059448242
521.904040813446,157.81182861328125,-23.27546119689941,-105.51335906982422,-5.609099388122559,-2.13356876373291,-18.9995231628418,-65.72332000732422,-81.16682434082031,-158.8454132080078,-4.232834815979004,0.524642825126648,-5.387387275695801,-33.697391510009766,-59.129127502441406,-107.0179214477539,-3.518397331237793,7.095981597900391,-1.470977783203125,8.171967506408691,27.176000595092773,145.5059051513672,1.2340950965881348,-8.476175308227539,-1.9135379791259768,149.2419891357422,-80.12012481689453,117.85920715332033,1.1237916946411133,1.1543941497802734,-5.754096984863281
521.9091136455536,158.32298278808594,-32.62301254272461,-106.05931854248048,-7.199580192565918,-4.681166648864746,-20.92294311523437,-74.6188735961914,-79.9597396850586,-156.2480926513672,-5.449846267700195,2.588631629943848,-5.798213005065918,-27.95729255676269,-61.88193130493164,-123.01012420654295,-3.3076720237731934,7.398374557495117,-4.240025520324707,10.45317268371582,31.9997615814209,143.6392822265625,5.062018394470215,-3.46231460571289,-6.525883674621582,142.99560546875,-79.58720397949219,122.26283264160156,-0.3392624855041504,1.6775496006011963,-7.336095809936523
521.9341385364532,157.05838012695312,-46.54034805297852,-106.20700073242188,-6.616352081298828,-4.814203262329102,-12.382257461547852,-79.21546173095703,-79.26535034179688,-154.95176696777344,-6.025897979736328,3.16300630569458,-5.755919456481934,-20.74092674255371,-63.21479415893555,-138.7696990966797,-0.6001482009887695,4.689413070678711,-6.8899126052856445,15.462369918823242,35.33894348144531,146.14633178710938,-4.067610740661621,-11.488605499267578,-9.726062774658203,138.8672332763672,-79.19032287597656,124.46603393554688,-1.222632646560669,1.526986837387085,-8.490287780761719
521.9644362926483,154.837158203125,-63.2923583984375,-105.61444091796876,-2.9014430046081543,-2.7726922035217285,-0.5601987838745117,-80.66527557373047,-78.81977844238281,-153.5175323486328,-2.9827442169189453,2.2211484909057617,-6.736363410949707,-14.801870346069336,-63.45292282104492,-152.35939025878906,0.2772047519683838,6.822070121765137,-6.582797050476074,9.87898063659668,36.48165512084961,152.68894958496094,-3.393709182739258,-8.340024948120117,-9.124534606933594,141.9439697265625,-78.77112579345703,120.19457244873048,-0.4600408673286438,0.5991940498352051,-7.057188987731934
521.9941916465759,150.7549591064453,-80.8827133178711,-99.71139526367188,2.451970100402832,-0.2150833904743194,13.865793228149414,-85.71508026123047,-77.78410339355469,-147.34188842773438,-4.024348258972168,-5.484869956970215,-6.359063148498535,-7.18488883972168,-62.666690826416016,-164.59619140625,3.2291994094848637,2.3168435096740723,-6.429225921630859,3.2638792991638184,35.690059661865234,162.37786865234375,-1.5220580101013184,-2.138474464416504,-12.12333869934082,147.74423217773438,-78.92410278320312,115.12894439697266,-0.031310811638832,-0.582707405090332,-4.105432510375977
522.024352312088,9.9119291305542,-81.93038940429688,50.5428352355957,13.946821212768556,15.35980987548828,19.36709213256836,-100.2956085205078,-76.16009521484375,-134.7401123046875,-3.774974822998047,-2.3322300910949707,1.9008941650390625,-1.8280203342437744,-61.44942474365234,-174.18661499023438,1.2925283908843994,2.5295510292053223,-6.297628402709961,3.3634064197540283,33.430023193359375,175.45616149902344,-11.373371124267578,2.0408201217651367,-15.901399612426758,150.44528198242188,-80.17423248291016,114.93417358398438,-1.2854375839233398,-1.1670351028442385,-4.117192268371582
522.054425239563,17.000415802001953,-74.20430755615234,55.461952209472656,-10.148216247558594,35.962745666503906,-21.083118438720703,-108.5969467163086,-73.64244842529297,-128.938720703125,-4.601095199584961,-1.6824548244476318,4.419818878173828,1.2474900484085083,-60.40409851074219,178.45211791992188,1.5111844539642334,2.950245857238769,-3.847743034362793,9.306459426879885,32.63396072387695,-171.0004425048828,-24.69308090209961,-7.272310256958008,-16.492843627929688,156.39608764648438,-80.44042205810547,111.49420928955078,3.046207427978516,0.2736611366271972,-4.937255859375
522.0844433307648,26.51866340637207,-77.03585815429688,42.97336959838867,15.850021362304688,14.258100509643556,-7.80795955657959,-106.09851837158205,-71.3583984375,-131.53172302246094,-5.358150482177734,-2.616135597229004,7.576364517211914,3.237846612930298,-59.69699478149414,173.0012969970703,1.819303035736084,3.2225804328918457,-3.760164260864258,16.492216110229492,34.87138366699219,-166.02615356445312,6.72737979888916,-7.011853218078613,-9.072723388671877,163.03367614746094,-79.35005950927734,105.8969955444336,9.773380279541016,1.8200654983520508,8.383974075317383
522.1442346572876,83.17461395263672,-80.05671691894531,-5.0385422706604,12.82233428955078,-22.406513214111328,19.24905014038086,-93.82212829589844,-70.15731048583984,-141.33604431152344,-4.227066040039063,-7.086742401123047,11.84621238708496,4.417566776275635,-61.22583770751953,169.02024841308594,0.2435965538024902,4.649596214294434,-1.589024543762207,14.547796249389648,37.38584518432617,-173.97679138183594,0.0984098464250564,10.40920639038086,-5.747980117797852,164.68833923339844,-78.68455505371094,105.59982299804688,4.130187034606934,0.3558220863342285,7.752918243408203
522.1742351055145,114.18453979492188,-79.78446197509766,-35.265045166015625,0.9669653177261353,-2.0471200942993164,7.553472518920898,-77.39230346679688,-67.37834167480469,-150.81735229492188,-8.163202285766602,-5.415993690490723,-2.659078598022461,8.588136672973633,-66.24830627441406,162.99937438964844,-0.722686767578125,5.4933929443359375,4.711434364318848,19.18299674987793,40.59437561035156,169.85299682617188,2.323204040527344,-0.5008294582366943,-10.862144470214844,166.2635955810547,-77.05716705322266,105.53652954101562,-0.1811192333698272,-1.5778660774230957,7.115243911743164
522.2037580013275,133.7786865234375,-79.07231903076172,-56.33698654174805,-7.076197624206543,-3.2529869079589844,9.765878677368164,-65.16517639160156,-64.46880340576172,-149.83041381835938,-21.959793090820312,11.151851654052734,-1.2636842727661133,20.4971981048584,-73.32424926757812,149.53868103027344,-4.953644752502441,4.132311820983887,9.969045639038086,22.839889526367188,40.57524490356445,149.21749877929688,-0.4967279434204101,-1.397881031036377,-8.84964370727539,167.68214416503906,-75.89469909667969,106.70755004882812,-1.7643160820007324,-2.8546180725097656,4.703790664672852
522.2347609996796,150.51483154296875,-78.0849609375,-69.43219757080078,-6.637235641479492,4.919292449951172,0.564366340637207,-65.1690444946289,-63.60154724121094,-131.4488983154297,-37.20696258544922,-3.468595027923584,-3.667770385742188,48.343074798583984,-78.24910736083984,121.36820220947266,-1.3718602657318115,2.979433536529541,8.87929916381836,28.11232185363769,36.13282012939453,130.92202758789062,-1.0482850074768066,-11.606164932250977,-11.180362701416016,166.63218688964844,-74.68338012695312,109.96881866455078,-5.545388221740723,0.8978955745697021,-2.5126261711120605
522.2640898227692,163.3491973876953,-77.50032043457031,-80.82061004638672,-0.975709080696106,0.48180091381073,2.0652475357055664,-86.40450286865234,-63.16790390014648,-101.00969696044922,-12.354393005371094,-8.611898422241211,-3.758970260620117,80.53630828857422,-76.88633728027344,94.81719970703124,3.3084464073181152,0.145120620727539,0.1032085418701171,32.57405090332031,27.891128540039062,116.12843322753906,4.534018516540527,-7.431783676147461,-11.76675796508789,163.09988403320312,-73.99469757080078,115.41179656982422,-4.032528877258301,-0.170879453420639,-3.75020170211792
522.2941401004791,173.85452270507812,-76.51062774658203,-91.46438598632812,-1.4874250888824463,-0.9250026941299438,0.2140254974365234,-105.81565856933594,-61.3170280456543,-74.86888885498047,-0.0373006239533424,-8.100082397460938,-12.449886322021484,90.96438598632812,-75.54847717285156,96.25411224365234,-1.35764479637146,-3.9589920043945312,-4.568016052246094,42.3475227355957,17.62838363647461,102.95709991455078,1.5812439918518066,-8.409204483032227,-9.608760833740234,154.80848693847656,-74.54253387451172,123.72150421142578,1.579850196838379,0.7073690891265869,1.0533332824707031
522.3242793083191,-177.8505401611328,-74.89187622070312,-98.68004608154295,2.7627196311950684,-1.4669430255889893,-0.1060543060302734,-122.7531967163086,-58.49628829956055,-55.3352165222168,3.5168652534484863,-3.7356438636779785,-13.620214462280272,83.69113159179688,-78.06441497802734,107.7305145263672,-2.29400634765625,-17.072479248046875,5.58270263671875,54.385868072509766,7.62349796295166,89.56488037109375,4.571658134460449,2.049561023712158,-7.717452049255371,149.14874267578125,-74.14366912841797,129.40565490722656,-1.643842697143555,1.6630809307098389,0.5780000686645508
522.3542792797089,-173.76597595214844,-73.23214721679688,-101.20455169677734,1.7482707500457764,-0.3304169774055481,0.1888561248779297,-138.77174377441406,-55.81002426147461,-41.37051773071289,3.560573101043701,-0.4476385116577148,-12.905305862426758,58.70294952392578,-79.70700073242188,127.23910522460938,-5.784143447875977,-4.19322395324707,0.9138965606689452,64.6726303100586,1.4818159341812134,80.23323059082031,15.544353485107422,7.565069198608398,24.1311149597168,146.5434112548828,-73.91069793701172,132.4823455810547,-5.811189651489258,-0.6027764081954956,1.122549057006836
522.3844571113586,-172.75892639160156,-71.62254333496094,-100.23785400390624,-0.2840612530708313,-0.671985387802124,0.3562250137329101,-154.55020141601562,-54.013458251953125,-31.528703689575195,-0.0313717052340507,-0.917966604232788,-7.8860673904418945,36.41751480102539,-80.26225280761719,146.54403686523438,-2.846348285675049,0.5796533823013306,0.6133871078491211,64.1856689453125,-1.5110182762145996,78.41083526611328,19.91802978515625,-10.306402206420898,-11.42770767211914,144.5888671875,-74.14239501953125,135.40330505371094,-5.672229766845703,-0.3818444013595581,-2.3806490898132324
522.4438462257385,-172.84567260742188,-69.94207000732422,-98.7324447631836,-0.6087563037872314,-1.8219518661499023,-0.3162794113159179,-168.9345703125,-54.327632904052734,-23.18765640258789,-1.947709560394287,2.9984097480773926,0.8676872253417969,19.387460708618164,-79.9385986328125,164.29605102539062,-2.9558634757995605,-0.2131710052490234,-1.065415382385254,73.76945495605469,-7.452744007110596,80.9388656616211,-2.33450984954834,-6.915437698364258,-7.3726911544799805,142.87786865234375,-74.17706298828125,138.23348999023438,-1.9574244022369385,0.0886086970567703,-4.624014854431152
522.4738447666168,-173.70823669433594,-67.7632827758789,-97.0691146850586,-0.6634637117385864,-1.758753776550293,-0.6234111785888672,179.6016082763672,-56.2921257019043,-15.519685745239258,3.0741004943847656,7.287937164306641,2.6931095123291016,2.5145273208618164,-78.79996490478516,-178.35154724121094,-3.329644203186035,-0.3793137073516845,-3.868821144104004,83.42041778564453,-15.728835105895996,83.06224060058594,-7.299515724182129,-4.400123596191406,10.64231300354004,140.8289337158203,-74.06705474853516,140.8615264892578,-0.3348087668418884,-0.164786696434021,-4.429257392883301
522.5044422149658,-175.41238403320312,-65.03578186035156,-95.47344207763672,-1.1558091640472412,-1.0413763523101809,-0.4812068939208984,179.95367431640625,-59.62818908691406,-12.312746047973633,6.472213745117188,12.050540924072266,9.079200744628906,-14.507545471191406,-76.35858154296875,-162.45384216308594,-2.6757211685180664,0.9956488609313964,-4.926531791687012,80.22930145263672,-26.51378631591797,82.6847152709961,-4.743378639221191,-1.0298261642456057,-1.2932071685791016,137.35792541503906,-74.0401611328125,144.84625244140625,-1.685359239578247,-1.442291498184204,-4.385026931762695
522.5345826148987,-177.9678192138672,-61.63813400268555,-93.0947723388672,5.380546569824219,-3.027538299560547,-2.667858600616455,-175.73605346679688,-61.15985107421875,-14.147582054138184,7.631621360778809,-6.448498725891113,4.307809829711914,-29.13299369812012,-72.19795989990234,-149.64645385742188,-1.5954694747924805,3.555527687072754,-3.3671231269836426,68.22633361816406,-40.04098892211914,82.8470230102539,4.871977806091309,3.3454737663269043,7.958871841430664,132.30331420898438,-74.1088638305664,151.67727661132812,-2.8388562202453613,-1.251946210861206,-3.810366153717041
522.5645844936371,-179.40008544921875,-58.07353210449219,-91.18781280517578,-4.784960746765137,0.5035442113876343,1.1146001815795898,-176.2014923095703,-61.930965423583984,-12.663321495056152,10.03342056274414,5.3868913650512695,12.997922897338867,-39.10611343383789,-66.32491302490234,-139.67587280273438,-2.1191701889038086,7.474469184875488,-0.5938606262207031,44.14826583862305,-53.759674072265625,95.4839324951172,20.269058227539062,26.321014404296875,7.400238037109375,129.43673706054688,-73.76847076416016,156.3526153564453,0.6301361322402954,0.8084880113601685,0.0790834426879882
522.5942721366882,178.50001525878906,-54.55863571166992,-89.83827209472656,0.2865579128265381,-0.6510390043258667,-0.4606256484985351,-175.51303100585938,-60.99793243408203,-11.373519897460938,6.389898300170898,1.6964998245239258,15.681995391845703,-43.54595184326172,-59.188323974609375,-130.22544860839844,-3.904757022857666,7.635210037231445,7.617240905761719,57.63372421264648,-62.87459564208984,110.48114776611328,-6.876823425292969,9.137889862060549,11.040731430053713,130.47593688964844,-73.35484313964844,156.038330078125,4.606442451477051,2.2746028900146484,3.51142692565918
522.6236510276794,177.800537109375,-51.51529693603516,-89.10311889648438,-0.7791426181793213,0.1204817444086074,1.0582704544067385,-174.9624786376953,-57.31135177612305,-12.14468479156494,2.908705234527588,-4.059978485107422,13.51254653930664,-47.207984924316406,-49.29018783569336,-120.93293762207033,-1.8684310913085935,9.414665222167969,13.218130111694336,83.16150665283203,-62.26316452026367,108.36837005615234,21.476505279541016,2.6100616455078125,9.396764755249023,131.10997009277344,-73.00450134277344,155.42416381835938,-2.200955867767334,-0.6863094568252563,9.728704452514648
