Timestamp,D4:22:CD:00:05:5D_EulerX,D4:22:CD:00:05:5D_EulerY,D4:22:CD:00:05:5D_EulerZ,D4:22:CD:00:05:5D_FreeAccX,D4:22:CD:00:05:5D_FreeAccY,D4:22:CD:00:05:5D_FreeAccZ,D4:22:CD:00:05:5E_EulerX,D4:22:CD:00:05:5E_EulerY,D4:22:CD:00:05:5E_EulerZ,D4:22:CD:00:05:5E_FreeAccX,D4:22:CD:00:05:5E_FreeAccY,D4:22:CD:00:05:5E_FreeAccZ,D4:22:CD:00:05:6B_EulerX,D4:22:CD:00:05:6B_EulerY,D4:22:CD:00:05:6B_EulerZ,D4:22:CD:00:05:6B_FreeAccX,D4:22:CD:00:05:6B_FreeAccY,D4:22:CD:00:05:6B_FreeAccZ,D4:22:CD:00:05:6E_EulerX,D4:22:CD:00:05:6E_EulerY,D4:22:CD:00:05:6E_EulerZ,D4:22:CD:00:05:6E_FreeAccX,D4:22:CD:00:05:6E_FreeAccY,D4:22:CD:00:05:6E_FreeAccZ,D4:22:CD:00:49:AA_EulerX,D4:22:CD:00:49:AA_EulerY,D4:22:CD:00:49:AA_EulerZ,D4:22:CD:00:49:AA_FreeAccX,D4:22:CD:00:49:AA_FreeAccY,D4:22:CD:00:49:AA_FreeAccZ
2315.7613396644592,174.48342895507812,-48.45292663574219,-65.59658813476562,0.2939637303352356,1.4924728870391846,-0.3162689208984375,-142.10337829589844,-37.08126449584961,-67.12711334228516,7.237260818481445,-19.045982360839844,5.373411178588867,-88.96304321289062,-56.41286849975586,-42.35105895996094,-0.4536328315734863,17.462371826171875,10.90220832824707,75.38247680664062,-48.660064697265625,24.509876251220703,43.28871154785156,-6.649206161499023,5.143553733825684,128.0901336669922,-75.7520751953125,146.80300903320312,2.245884418487549,0.7545938491821289,1.8850584030151367
2315.764347553253,174.545166015625,-45.76806640625,-63.230594635009766,0.1550085246562957,1.06663179397583,1.179731369018555,-136.94471740722656,-33.4199104309082,-67.42031860351562,4.909453392028809,-17.632369995117188,3.350022315979004,-83.50093078613281,-44.23590469360352,-53.44857406616211,1.523940086364746,24.87946319580078,20.48140335083008,71.23065948486328,-46.95684814453125,32.95891189575195,29.602088928222656,2.9886550903320312,1.8784599304199217,116.20489501953124,-76.28724670410156,157.1029815673828,-4.550336837768555,-3.4437594413757324,1.3663759231567385
2315.8759083747864,-179.68226623535156,-68.7179183959961,-120.31397247314452,0.4955604076385498,-3.309830665588379,-0.6079339981079102,-68.37811279296875,-61.71311569213867,-102.18856811523438,-38.65026092529297,-11.250404357910156,7.234384536743164,-79.29205322265625,-47.71232223510742,-88.51722717285156,-0.1652799844741821,-2.1675610542297363,-5.451086044311523,106.25032806396484,-48.39790725708008,15.75527286529541,-0.1910259127616882,-0.7128002643585205,5.708982467651367,75.75814056396484,-82.92742919921875,-145.77392578125,0.6824153661727905,0.8304297924041748,-4.030696868896484
2315.9064297676086,-177.4423370361328,-69.07146453857422,-120.7955322265625,-0.1227667182683944,-2.3234987258911133,-1.6164836883544922,-158.94537353515625,-62.790470123291016,-22.181049346923828,17.257484436035156,-6.980695724487305,1.8448638916015625,-82.4560546875,-50.560333251953125,-94.70289611816406,-1.86628532409668,-1.241138935089111,-7.910870552062988,104.18148803710938,-58.11727523803711,17.327356338500977,-1.0196034908294678,2.0431137084960938,7.962343215942383,73.98152160644531,-81.10852813720703,-145.1027069091797,0.304729700088501,-0.1616780757904052,-3.5612564086914062
2315.936436414718,-177.78831481933594,-68.1873550415039,-117.57791137695312,-1.7826452255249023,1.666642427444458,-1.075117111206055,171.53932189941406,-64.90824127197266,4.867458343505859,9.721635818481444,-7.52001953125,10.195379257202148,-90.55252075195312,-52.98027038574219,-99.9850082397461,-2.4382872581481934,2.14533805847168,-9.022834777832031,104.69771575927734,-66.53533172607422,11.700969696044922,-0.7571885585784912,-7.868340492248535,15.685258865356444,74.2203140258789,-79.52841186523438,-147.0839080810547,-1.3372838497161863,-2.8196253776550293,-2.848388671875
2315.965436458588,178.56932067871094,-65.57269287109375,-111.64976501464844,0.1759098172187805,-0.1456861793994903,0.5155000686645508,155.42935180664062,-66.72734832763672,22.024696350097656,8.276426315307617,6.192291259765625,14.913896560668944,-97.21639251708984,-54.05733108520508,-105.33169555664062,8.200637817382812,7.879406929016113,-1.0535783767700195,86.8193130493164,-70.0811538696289,18.774995803833008,9.488536834716797,-6.178646087646484,12.052040100097656,74.88955688476562,-80.42618560791016,-148.98788452148438,-3.269761085510254,-3.233895301818848,-2.313507080078125
2315.995972633362,175.145263671875,-61.98532485961914,-107.4005355834961,-0.6465816497802734,0.3408677577972412,1.2013063430786133,160.4267120361328,-67.80245971679688,21.92711067199707,7.495976448059082,0.166395902633667,16.786746978759766,-97.9886474609375,-51.94506072998047,-113.5550537109375,15.895671844482422,2.0972142219543457,2.0545883178710938,71.70342254638672,-70.71150207519531,26.918598175048828,8.798633575439453,-2.924004554748535,6.735599517822266,71.59093475341797,-82.29390716552734,-146.49737548828125,-0.034560240805149,-2.30823278427124,-2.0530343055725098
2316.0259721279144,173.1295623779297,-58.2664680480957,-104.60377502441406,-0.6803776025772095,4.090660095214844,-1.596235275268555,166.6044464111328,-67.39225769042969,16.81910514831543,4.709697723388672,-1.8390154838562007,16.553550720214844,-91.72212982177734,-47.43786239624024,-124.20577239990234,9.904178619384766,0.923088312149048,0.3301773071289062,66.02782440185547,-70.41373443603516,35.52351379394531,7.179286003112793,5.469991683959961,9.39073371887207,69.71084594726562,-82.89350891113281,-145.22592163085938,2.1047263145446777,-0.7205145359039307,0.0849514007568359
2316.085514307022,172.9316864013672,-55.48640060424805,-102.66203308105467,1.56773042678833,3.287567138671875,-0.7955970764160156,166.92559814453125,-67.052978515625,15.779081344604492,1.374528408050537,3.745009899139404,10.06572723388672,-88.97795104980469,-39.07108688354492,-130.42091369628906,15.846878051757812,2.661118984222412,10.589738845825195,64.9986801147461,-69.32482147216797,39.904205322265625,1.501990556716919,10.249338150024414,12.535083770751951,75.2310562133789,-83.00072479248047,-150.8815460205078,-0.8356692790985107,-3.629638671875,5.684637069702148
2316.1165149211884,174.3623046875,-54.2578010559082,-101.66071319580078,4.754164695739746,1.4579617977142334,1.2704877853393557,164.73388671875,-68.81430053710938,18.596473693847656,-1.5599603652954102,7.092121124267578,0.8786811828613281,-89.61170959472656,-25.331899642944336,-132.78988647460938,22.893836975097656,-1.4756231307983398,22.752716064453125,67.71002197265625,-67.62300872802734,40.983978271484375,0.6511702537536621,11.034749984741213,11.316156387329102,88.34697723388672,-83.69773864746094,-163.4378662109375,1.1819303035736084,-4.7075042724609375,7.272529602050781
2316.146506547928,175.60292053222656,-54.61024475097656,-101.30976104736328,-4.259027481079102,0.9115233421325684,5.340386390686035,158.78591918945312,-73.27281188964844,24.350133895874023,-0.9774036407470704,7.573205947875977,-6.393948554992676,-85.42620086669922,-6.792136669158936,-133.1640625,12.820114135742188,-5.9320068359375,27.40391540527344,69.89270782470703,-66.69837188720703,47.79233551025391,-5.369674682617188,8.125577926635742,8.21607780456543,105.13929748535156,-84.1540756225586,-179.71331787109375,1.0431461334228516,-1.9028105735778809,9.023887634277344
2316.2051389217377,176.39559936523438,-55.8884162902832,-101.55650329589844,-4.114357948303223,2.962157726287842,3.891715049743652,146.06919860839844,-79.66917419433594,34.832313537597656,-1.0304818153381348,6.682045936584473,-8.527908325195312,-78.6650619506836,12.00348663330078,-131.8784637451172,-0.6273078918457031,-17.648876190185547,14.373504638671877,64.40478515625,-66.838623046875,63.662574768066406,-11.214738845825195,2.126890182495117,3.993091583251953,113.9260711669922,-84.87654113769531,172.88864135742188,-4.801962852478027,-1.1424760818481443,13.44093132019043
2316.209139585495,177.203857421875,-59.1841926574707,-102.63517761230467,1.3964879512786863,3.089161872863769,4.455278396606445,106.10418701171876,-86.15717315673828,69.02584838867188,-4.582727432250977,5.205668449401856,-10.030767440795898,-74.30384063720703,26.788461685180664,-134.83460998535156,-13.975814819335938,-22.68752670288086,7.599155426025391,54.046329498291016,-65.83251953125,84.16197204589844,-5.802896499633789,0.2508668899536133,-2.7808995246887207,122.44937896728516,-87.08866119384766,167.12399291992188,-2.49977970123291,1.387281894683838,10.54184341430664
2316.236227750778,177.10231018066406,-65.19585418701172,-102.45001983642578,-1.8545339107513428,0.4021029472351074,8.667745590209961,0.4526262879371643,-84.5386962890625,168.5135498046875,-5.773837089538574,5.672520637512207,-12.573844909667969,-70.79102325439453,38.27330780029297,-142.8828887939453,-18.04691696166992,-4.221458435058594,2.310628890991211,46.35628509521485,-63.00662612915039,106.09078216552734,-5.996315956115723,-0.8141553401947021,-8.304681777954102,149.2159423828125,-89.61947631835938,143.91929626464844,0.8227394819259644,2.142444133758545,5.800844192504883
2316.2663145065308,174.2311248779297,-73.46538543701172,-100.68077087402344,-2.7831811904907227,-12.929559707641602,11.24408721923828,-20.09416389465332,-77.70467376708984,-174.6638641357422,-4.319211006164551,2.8896846771240234,-10.322137832641602,-68.4070053100586,46.67709732055664,-151.18080139160156,-11.592824935913086,8.963197708129883,-1.8591232299804688,42.075626373291016,-59.06671905517578,126.84093475341795,-7.891061782836914,-3.579046726226806,-12.569494247436523,-60.13175582885742,-87.35847473144531,-3.3053910732269287,-2.717522144317627,0.4670748114585876,-0.6297626495361328
2316.2958569526672,165.28785705566406,-80.04158020019531,-96.28196716308594,6.372052192687988,-3.2126259803771973,-3.9318127632141113,-24.593446731567383,-70.09456634521484,-171.97109985351562,-3.9628963470458975,1.418912649154663,-7.835780143737793,-64.63912963867188,54.42721176147461,-155.5452880859375,-5.392366409301758,15.203020095825195,-3.7788491249084473,39.09873580932617,-55.427581787109375,143.41671752929688,-5.009591102600098,-7.051810264587402,-14.065025329589844,-66.56663513183594,-84.42391967773438,6.929559230804443,-3.4475064277648926,-0.8907185792922974,-9.154062271118164
2316.3258559703827,159.88031005859375,-80.3795394897461,-89.500732421875,16.844127655029297,1.2622499465942385,-11.090856552124023,-24.863431930541992,-62.4941635131836,-171.90625,-8.994653701782227,-0.9901505708694458,-8.18674087524414,-60.83073043823242,62.00079727172852,-156.43930053710938,-6.3818864822387695,10.577619552612305,-7.613030433654785,36.70375442504883,-52.91738128662109,156.02178955078125,-1.0725224018096924,-6.392616271972656,-11.551578521728516,-81.06722259521484,-83.25061798095703,25.127180099487305,4.220698356628418,1.1324915885925293,-11.717132568359377
2316.3864057064056,169.42849731445312,-79.42247772216797,-91.07174682617188,4.988285064697266,-9.67302703857422,-7.690032958984375,-26.92622375488281,-56.56095123291016,-172.02288818359375,-12.97663116455078,-4.555202484130859,-7.290611267089844,-55.49622344970703,68.55010223388672,-157.65431213378906,-1.4393346309661863,6.346785545349121,-12.086679458618164,35.4290657043457,-51.568241119384766,165.25741577148438,0.5221048593521118,-6.335643768310547,-10.078594207763672,-80.87139129638672,-83.29896545410156,27.097354888916016,5.229025840759277,0.8863407373428345,-8.720771789550781
2316.415405988693,-179.54327392578125,-81.43246459960938,-99.0737075805664,3.0989460945129395,-3.9972739219665527,-9.780607223510742,-33.503929138183594,-53.867801666259766,-171.01678466796875,-15.98814582824707,-3.3698105812072754,-11.818273544311523,-54.68568801879883,72.48214721679688,-164.3852996826172,3.879166603088379,1.3402109146118164,-12.509225845336914,33.38734817504883,-51.37067413330078,171.6399688720703,0.2033918797969818,-6.480521202087402,-9.016519546508787,-65.6890640258789,-83.57471466064453,11.46137237548828,1.5250041484832764,0.7705655097961426,-9.915252685546877
2316.4454066753387,-161.42642211914062,-82.53728485107422,-118.9879379272461,-8.094497680664062,12.441904067993164,-5.25642204284668,-40.31454849243164,-54.90196990966797,-169.18618774414062,-14.378290176391602,1.3455314636230469,-11.307544708251951,-68.99138641357422,72.03781127929688,174.58596801757812,2.635016441345215,-2.4725613594055176,-12.28736686706543,29.99135398864746,-52.38948059082031,176.5194854736328,-2.6816720962524414,-6.326311111450195,-5.15238094329834,-57.53384780883789,-83.71843719482422,3.0047411918640137,-0.7576688528060913,0.0115792863070964,-10.364328384399414
2316.476420640945,-172.06973266601562,-79.51908111572266,-112.94580841064452,-15.02895736694336,13.024591445922852,-1.763636589050293,-48.01237487792969,-58.48540115356445,-162.3031463623047,-20.26431655883789,-8.463756561279297,-4.551222801208496,-80.10904693603516,62.57584381103516,153.30047607421875,2.350133419036865,5.9295759201049805,-15.77431869506836,26.68194007873535,-54.23558044433594,-179.0432891845703,-2.9072489738464355,-6.612536430358887,-3.0246124267578125,-53.62228393554688,-83.66475677490234,-0.7839805483818054,0.1651704907417297,-1.4515480995178225,-4.857693672180176
2316.5061802864075,176.23391723632812,-76.04826354980469,-98.53147888183594,-8.726724624633789,-1.0623884201049805,0.6122360229492188,-54.188385009765625,-63.42969131469727,-154.33331298828125,-2.57928466796875,-15.944122314453123,2.5168609619140625,-69.82682037353516,45.35577774047852,143.7791290283203,-16.720317840576172,18.40882110595703,-19.02849578857422,23.919042587280277,-56.75787353515625,-174.2687530517578,-2.2610177993774414,-7.073776245117188,-3.632885456085205,-47.04987335205078,-83.70001220703125,-8.687280654907227,2.6284914016723637,0.3951035141944885,-2.1922354698181152
2316.5363943576813,170.9001007080078,-73.37754821777344,-88.16552734375,3.8414931297302246,0.128657191991806,3.053550720214844,-61.95157241821289,-68.13549041748047,-145.8210906982422,-8.826934814453125,-2.538236141204834,5.665508270263672,-49.84487915039063,37.50629806518555,138.6014862060547,17.123977661132812,-12.156030654907228,-25.490760803222656,21.692646026611328,-60.234893798828125,-169.4254913330078,-2.5782999992370605,-11.376897811889648,2.604781150817871,-45.17007827758789,-84.29106140136719,-13.750975608825684,1.4283764362335205,-0.266530692577362,-0.7643585205078125
2316.5653936862946,166.26039123535156,-72.0238265991211,-81.85380554199219,6.428570747375488,-0.4907043576240539,5.316584587097168,-78.83893585205078,-71.15687561035156,-132.93478393554688,-2.7998275756835938,9.375177383422852,6.587894439697266,-41.48973083496094,38.25117111206055,142.24533081054688,11.006414413452148,-9.980785369873049,-12.282804489135742,17.657276153564453,-63.99797821044922,-167.47410583496094,-1.6209981441497805,-15.854793548583984,9.852291107177734,-49.483917236328125,-86.07270050048828,-13.389947891235352,-4.325187683105469,-2.4870409965515137,5.7798357009887695
2316.5959355831146,159.39117431640625,-71.0906982421875,-75.1179428100586,-2.6595349311828613,-0.7230478525161743,3.036282539367676,-90.08528137207033,-73.46117401123047,-124.51201629638672,-5.568794250488281,3.174445152282715,-0.0361270904541015,-40.11237335205078,41.97336196899414,154.07839965820312,0.4254753589630127,8.200088500976562,-11.690561294555664,13.309626579284668,-68.07392883300781,-173.9495086669922,-2.211825370788574,-9.312700271606444,7.430639266967773,-74.85612487792969,-88.31658172607422,7.444962501525879,-4.073528289794922,-3.1616768836975098,7.007488250732422
2316.6259367465973,152.6564178466797,-70.2093505859375,-68.62322235107422,-3.624597549438477,-0.3744964003562927,6.132126808166504,-96.21104431152344,-75.94920349121094,-120.50141143798828,-6.420076370239258,-2.636262893676758,-0.9338321685791016,-36.50430679321289,47.20319747924805,174.4697723388672,-20.3670654296875,13.725664138793944,-18.887279510498047,6.974790096282959,-69.18587493896484,-179.4792022705078,5.449891090393066,5.6225786209106445,13.983510971069336,-141.16012573242188,-88.01151275634766,68.90545654296875,1.7320520877838137,-1.664417028427124,2.855417251586914
2316.685484647751,145.4120330810547,-70.11556243896484,-63.63918685913086,-2.367341995239258,-0.4110237956047058,5.901411056518555,-97.66407775878906,-79.19197845458984,-119.16397857666016,-4.618988037109375,-1.7758822441101074,3.9204235076904297,-28.936182022094727,48.42487335205078,-164.6523895263672,-11.97450828552246,3.103431701660156,0.2744607925415039,-3.1526098251342773,-69.35279083251953,175.03929138183594,-4.641449928283691,3.335536479949951,5.089221000671387,-153.7387237548828,-87.03852844238281,77.92718505859375,3.522745132446289,-2.715006828308105,4.275724411010742
2316.715474843979,134.81704711914062,-71.83935546875,-57.87483596801758,3.860098361968994,-3.2103304862976074,5.374317169189453,-97.16047668457033,-81.95416259765625,-119.8749542236328,-5.928123474121094,-0.4682098031044006,1.936251640319824,-22.648283004760746,46.03773880004883,-148.6538543701172,-9.446203231811523,4.583192825317383,12.063817977905272,1.6644667387008667,-69.63571166992188,165.49325561523438,-7.682604789733887,4.362339973449707,2.034958839416504,-161.7484588623047,-85.65332794189453,81.64657592773438,3.912774562835693,0.6795297861099243,0.339756965637207
2316.7454743385315,123.76203155517578,-74.0326156616211,-58.32896423339844,12.50849723815918,9.36009407043457,-0.4276494979858398,-81.6544418334961,-84.22138214111328,-135.370849609375,-4.679247856140137,-0.3430152535438537,2.1334400177001958,-16.141691207885742,41.6983757019043,-136.62022399902344,-0.5526725053787231,4.711325645446777,18.855525970458984,11.867905616760254,-68.91331481933594,158.4078826904297,-12.521995544433594,-0.1278840899467468,-3.981199264526367,-167.16934204101562,-83.27873992919922,81.94239044189453,4.589137077331543,-2.073748588562012,-1.1067237854003906
2316.7754888534546,127.30247497558594,-73.63756561279297,-78.04244995117188,14.332771301269531,15.576454162597656,6.649299621582031,-42.187381744384766,-84.78526306152344,-173.70953369140625,-2.688235282897949,0.1737515926361084,2.4165563583374023,-4.671826362609863,32.940853118896484,-125.016845703125,-3.291145801544189,7.454834938049316,5.154384613037109,13.36705207824707,-68.18746185302734,157.7373504638672,-11.623239517211914,-1.544665813446045,-4.955291748046875,-169.5460662841797,-81.82260131835938,80.91374969482422,0.6289998292922974,0.5717809200286865,2.990107536315918
2316.8060166835785,136.97711181640625,-67.02645111083984,-100.09400939941406,12.595266342163086,5.425806045532227,4.105464935302734,-1.6466221809387207,-81.52715301513672,150.31065368652344,1.017404556274414,-1.1752161979675293,-1.9828510284423828,6.815839767456055,20.11160469055176,-114.50057983398438,13.009136199951172,-9.444454193115234,-2.753142833709717,9.380491256713867,-68.35427856445312,160.90359497070312,-9.217613220214844,-0.9105848073959352,-5.0060319900512695,-171.84036254882812,-81.51306915283203,82.93936157226562,0.6234809160232544,1.668240308761597,7.109722137451172
2316.836017847061,147.18309020996094,-56.9970703125,-113.21388244628906,4.8870954513549805,0.6530512571334839,-1.7097091674804688,7.288177967071533,-79.9715576171875,146.3936309814453,-6.628085136413574,-2.011634349822998,-8.955251693725586,0.5974270701408386,5.384358882904053,-106.56725311279295,12.345998764038086,-7.355476379394531,-3.4620141983032227,4.504636764526367,-69.15766906738281,164.68116760253906,-6.279721260070801,-0.5729531049728394,-4.6748552322387695,-173.94204711914062,-81.23307800292969,86.21619415283203,5.374029159545898,3.252305507659912,3.4909820556640625
2316.8660168647766,155.62290954589844,-46.7915153503418,-120.31049346923828,-4.341232299804688,1.0162832736968994,-6.274312973022461,6.350887775421143,-80.12781524658203,152.286865234375,-2.520036220550537,4.276174545288086,-6.374429702758789,-12.545416831970217,-8.210761070251465,-99.94623565673828,-11.99544906616211,-3.4440083503723145,2.91976261138916,2.849308729171753,-69.90664672851562,165.91131591796875,-4.152353286743164,-0.3176001310348511,-4.791471481323242,-177.97401428222656,-81.13689422607422,90.8811492919922,5.413236618041992,1.0478360652923584,1.0216140747070312
2316.8955664634705,160.4700469970703,-38.33651351928711,-123.92279052734376,-6.666145324707031,1.2124228477478027,-7.884931564331055,4.4913649559021,-80.87155151367188,162.1545867919922,-6.332100868225098,-4.642592430114746,-10.771942138671877,-16.20431137084961,-18.97638320922852,-95.2089385986328,1.6093072891235352,-2.979381561279297,-1.3426008224487305,7.107994556427002,-70.28608703613281,162.2865753173828,-2.199678421020508,-0.1703450679779052,-6.598940849304199,178.57899475097656,-80.63655853271484,94.67412567138672,1.3104262351989746,0.6881082057952881,-2.7070202827453613
2316.925927877426,160.97573852539062,-33.28523254394531,-125.61432647705078,-7.046953201293945,0.0122552141547203,-10.658876419067385,-8.687274932861328,-85.00801849365234,168.5732421875,-6.848840713500977,1.830557346343994,-2.874917507171631,-19.48859596252441,-28.5682430267334,-92.81310272216795,5.378849983215332,-2.94388484954834,-4.739006042480469,17.7977352142334,-69.9715576171875,153.5308074951172,-0.3005321621894836,0.0235128067433834,-7.524433135986328,177.3881378173828,-79.96466064453125,97.10164642333984,-0.4007185697555542,-0.2498739659786224,-5.780651092529297
2316.9857535362244,159.20790100097656,-30.92597770690918,-126.21837615966795,-4.329663276672363,-0.1189977377653122,-11.792400360107422,-124.4211196899414,-86.35298919677734,-83.0454330444336,0.1620874404907226,-4.563373565673828,-2.50337028503418,-24.735010147094727,-38.12199020385742,-91.50357055664062,3.0730409622192383,-2.392488956451416,-5.347066879272461,34.6239013671875,-67.8763198852539,142.0216064453125,1.2534234523773191,1.07263445854187,-7.119963645935059,177.1930389404297,-79.8863525390625,99.28892517089844,0.199760764837265,-1.219407320022583,-9.317001342773438
2317.01575255394,158.55201721191406,-31.0664119720459,-126.10244750976562,-4.819577217102051,-5.46622371673584,-14.279705047607422,-151.28091430664062,-79.94498443603516,-59.58161926269531,-1.6559042930603027,-2.109692096710205,6.49774169921875,-30.79633331298828,-48.33042144775391,-91.01004028320312,2.471110820770264,-2.808548927307129,-5.462472915649414,54.55197525024414,-62.594852447509766,132.79373168945312,0.8245470523834229,-0.2410665154457092,-1.9251604080200195,177.00146484375,-79.86753845214844,100.8459930419922,1.5336432456970217,1.1441271305084229,-11.498483657836914
2317.0457525253296,160.11441040039062,-34.49074935913086,-124.87023162841795,-5.143121719360352,-8.391168594360352,-14.22620964050293,-156.01072692871094,-74.98695373535156,-55.92094421386719,-4.319167137145996,0.7417593002319336,2.998349189758301,-35.91618728637695,-59.18400573730469,-92.9972686767578,3.139860153198242,-2.847571849822998,1.7209835052490234,78.28564453125,-52.708045959472656,128.52845764160156,-6.673331260681152,0.3809355497360229,-0.6592426300048828,178.15809631347656,-79.62796783447266,99.32699584960938,3.757416248321533,1.6889841556549072,-8.189888000488281
2317.075872898102,166.21971130371094,-37.854400634765625,-123.53727722167967,8.66032600402832,16.27281951904297,41.31314849853516,-159.6145782470703,-72.69422149658203,-52.21153259277344,-4.559059143066406,3.464682579040528,4.518289566040039,-27.20946502685547,-67.88947296142578,-106.53244018554688,-1.162881851196289,-0.3807854056358337,14.46710205078125,92.84671783447266,-37.46733093261719,126.3307876586914,0.640859842300415,-24.522655487060547,37.05718994140625,-175.59661865234375,-79.60484313964844,92.26416778564452,1.0668420791625977,-2.630863666534424,-1.3759126663208008
2317.105630874634,172.87515258789062,-35.775367736816406,-120.05641174316406,-9.459970474243164,-18.921703338623047,-3.1621594429016118,-162.7992401123047,-72.65953063964844,-48.51939392089844,-5.520744323730469,0.9257785081863404,1.4127845764160156,-4.6213459968566895,-70.71781158447266,-126.99929809570312,-4.929783821105957,-9.740682601928713,15.594121932983398,90.17047882080078,-20.21378517150879,124.55233764648438,0.762869119644165,1.085484743118286,21.594257354736328,-168.87216186523438,-79.46759796142578,85.52513885498047,-4.00462532043457,-1.788161277770996,1.3718833923339844
2317.1357760429382,170.65103149414062,-32.64649200439453,-117.11568450927734,-16.338817596435547,-15.187030792236328,16.879772186279297,-163.04278564453125,-74.44571685791016,-48.06893157958984,-7.178889274597168,-0.4627392888069153,0.5277624130249023,-9.997997283935549,-68.09910583496094,-121.73296356201172,-2.066536903381348,-21.401336669921875,7.125482559204102,87.60011291503906,-1.804277777671814,121.87152862548828,8.582950592041016,3.0343832969665527,21.059467315673828,-167.31857299804688,-79.62286376953125,85.09441375732422,1.1798930168151855,0.0951601862907409,6.953117370605469
2317.1667671203613,166.31832885742188,-24.42866897583008,-115.30086517333984,-9.689949035644531,-12.110702514648438,19.84162139892578,-158.15762329101562,-77.4690170288086,-54.2950439453125,-6.807886123657227,-1.144505739212036,3.314241409301758,-34.047325134277344,-62.19454956054688,-106.7765884399414,-6.489631652832031,-14.266931533813477,6.426946640014648,80.94657897949219,12.17353057861328,114.03553771972656,-1.2817537784576416,6.646233558654785,13.282804489135742,-166.31182861328125,-79.61334991455078,84.48431396484375,5.903300285339356,2.646806240081787,10.439886093139648
2317.1963229179382,164.117431640625,-14.64083480834961,-116.4632797241211,-12.17555046081543,-14.53425407409668,17.744140625,-145.48602294921875,-80.944580078125,-69.74327850341797,-3.217251777648926,-2.1748452186584477,9.72528839111328,-52.95017623901367,-55.13858795166016,-100.5185546875,-11.703275680541992,-1.0339326858520508,14.015508651733398,74.71247863769531,17.450407028198242,105.55956268310548,-4.966476440429688,-1.1271202564239502,8.253158569335938,-168.82171630859375,-79.46826934814453,85.93539428710938,4.478350639343262,1.3801515102386477,8.455820083618164
2317.226322889328,160.43292236328125,-6.413717746734619,-119.51497650146484,-9.324552536010742,-5.644464492797852,5.048097610473633,-95.32787322998048,-84.82869720458984,-120.38148498535156,4.897801399230957,-10.952459335327148,8.700687408447266,-54.98128890991211,-51.20035552978516,-102.58391571044922,-4.693037033081055,-2.648877620697021,8.033687591552734,67.428955078125,16.294055938720703,101.35725402832033,-15.345008850097656,-8.324560165405273,8.115961074829102,-174.4173583984375,-79.5793685913086,91.09025573730467,6.319811820983887,2.769773483276367,11.727239608764648
2317.285938978195,159.399658203125,-1.6598572731018066,-122.55602264404295,-6.937158584594727,1.4828181266784668,-6.498262405395508,-30.67179107666016,-83.04570770263672,-176.6973876953125,-9.48491668701172,0.8093938827514648,-9.855321884155272,-55.55073928833008,-50.42159271240234,-106.10905456542967,-0.4537739753723144,-3.479193687438965,3.1176462173461914,52.4800033569336,14.175684928894045,100.45626831054688,-18.000286102294922,-7.24180793762207,-4.802942276000977,175.64173889160156,-80.0947036743164,99.39578247070312,5.123353004455566,2.1374874114990234,9.586965560913086
2317.3161985874176,159.86024475097656,-1.9574419260025024,-124.2943344116211,-7.503625869750977,4.541438102722168,-15.28243637084961,-21.592334747314453,-83.47917175292969,175.99630737304688,-13.48605728149414,-3.875391006469727,-10.642793655395508,-62.36806869506836,-51.13753128051758,-109.09178924560548,-0.4109525680541992,0.2846705913543701,4.0488481521606445,40.26541519165039,14.87580394744873,101.60027313232422,-1.3642823696136477,-2.878378868103028,-10.265933990478516,160.95816040039062,-80.2380142211914,111.8728256225586,1.2859060764312744,1.3336358070373535,4.309605598449707
2317.346291303634,159.82244873046875,-7.721089363098144,-125.0505599975586,-6.801020622253418,1.9668681621551516,-23.56644821166992,-20.051475524902344,-84.93353271484375,171.44094848632812,3.1496357917785645,-2.5282745361328125,-11.08538818359375,-67.18608093261719,-52.80083847045898,-112.45438385009766,1.594804048538208,3.518018245697021,2.3936424255371094,34.58990859985352,18.9334659576416,104.22276306152344,-4.280709266662598,-0.2400207221508026,-9.517427444458008,147.68089294433594,-79.4415512084961,123.74542236328124,-1.016355276107788,0.1252191066741943,-1.0475969314575195
2317.3763802051544,159.0782012939453,-18.874452590942383,-125.24266815185548,-7.260309219360352,-2.70102596282959,-22.877086639404297,-5.693587303161621,-83.09689331054688,156.79725646972656,-5.1088972091674805,11.11992645263672,-9.02586555480957,-68.67415618896484,-54.49649810791016,-115.78540802001952,4.113052368164063,1.543365240097046,-3.833995342254639,29.044269561767575,25.91238784790039,107.79397583007812,-5.236320495605469,-0.1263025403022766,-9.296337127685549,145.80238342285156,-78.32825469970703,125.9200439453125,-3.787668704986572,0.8463027477264404,-4.259517669677734
2317.405905008316,154.97164916992188,-34.60750198364258,-125.22457885742188,-9.272357940673828,-6.132257461547852,-12.586437225341797,2.64211106300354,-82.83406829833984,151.93421936035156,-2.5674538612365723,6.652037620544434,-2.77578067779541,-69.97606658935547,-54.81089401245117,-118.2132568359375,5.763636589050293,4.680644989013672,-4.416455268859863,24.45474624633789,35.83366394042969,113.9037628173828,-3.6973447799682617,2.2846102714538574,-11.401641845703123,150.0633087158203,-78.05057525634766,123.3142318725586,-2.0494933128356934,0.6978880167007446,-10.449298858642578
2317.4359052181244,148.3245086669922,-53.6913948059082,-124.26286315917967,-5.35478401184082,-4.499289512634277,-1.1488170623779297,4.152894496917725,-83.41548919677734,150.8494415283203,2.6813230514526367,-6.734952926635742,-1.179673194885254,-68.12586212158203,-52.52043914794922,-119.10948181152344,7.021617889404297,3.815020084381104,-5.589016914367676,25.309350967407227,46.9907341003418,126.77081298828124,-6.31866455078125,1.3967435359954834,-20.120983123779297,153.3346405029297,-77.85082244873047,121.32921600341795,1.784874677658081,2.1030101776123047,-11.712926864624023
2317.465904951096,136.88218688964844,-74.2310562133789,-118.62060546875,1.21917724609375,2.372607707977295,10.887092590332031,-5.777088642120361,-85.76802825927734,157.33990478515625,-0.7243077754974365,-6.035850524902344,1.9233531951904297,-66.02644348144531,-48.89304733276367,-119.16073608398438,5.278494834899902,1.8869357109069824,-7.588489532470703,32.71457290649414,54.43194580078125,146.70550537109375,-12.754449844360352,-5.500138282775879,-28.788612365722656,152.8667449951172,-77.93190002441406,121.29947662353516,1.817183494567871,0.4487932324409485,-8.107358932495117
2317.4954516887665,11.2774019241333,-84.55619049072266,5.049051761627197,9.07437515258789,0.5629631280899048,16.469844818115234,-34.40892028808594,-87.9102554321289,-174.6436309814453,-4.590624809265137,-3.0799074172973637,4.796242713928223,-62.16550827026367,-45.29425811767578,-119.51455688476562,3.910125255584717,1.1386091709136963,-8.908695220947266,27.69408416748047,56.97197723388672,151.86366271972656,-5.734841346740723,-2.8813118934631348,-3.70724105834961,150.39198303222656,-78.39949798583984,122.6168975830078,2.196634292602539,-0.6083649396896362,-7.607536315917969
2317.5255641937256,-3.0606746673583984,-71.37644958496094,32.62284851074219,24.120040893554688,3.204148292541504,3.28963565826416,-86.1068115234375,-86.84632110595703,-124.68199157714844,-6.422327995300293,-0.2486885488033294,2.3422412872314453,-57.123680114746094,-42.85059356689453,-120.41941833496094,1.8819146156311035,0.40276700258255,-9.197288513183594,10.229623794555664,57.8721809387207,141.02059936523438,-3.3779540061950684,-3.156003952026367,-13.249614715576172,148.1837158203125,-79.25010681152344,124.19363403320312,0.5446194410324097,-1.1468956470489502,-5.603972434997559
2317.586126089096,13.77399730682373,-67.5237808227539,30.903661727905277,4.502965927124023,35.939414978027344,-17.769367218017578,-79.14240264892578,-84.62042999267578,-133.6818389892578,-6.088123321533203,1.1043107509613037,3.5518360137939453,-51.09592819213867,-41.88742446899414,-122.66873931884766,1.2234842777252195,0.3371414542198181,-6.33665657043457,-4.935074806213379,58.01345443725586,129.22879028320312,-0.1304092109203338,-4.3880109786987305,-7.224448204040527,151.17037963867188,-80.45721435546875,123.63567352294922,-2.4845356941223145,-2.2919182777404785,-1.2734708786010742
2317.6161258220677,36.22057342529297,-70.73416137695312,14.756132125854492,18.114261627197266,6.8750104904174805,-5.403024673461914,-63.6805534362793,-82.21810150146484,-148.87564086914062,-1.4479703903198242,2.0560202598571777,7.774852752685547,-45.58047103881836,-43.26974487304688,-126.15442657470705,-3.0438122749328613,-1.3206543922424316,-8.444784164428711,-23.93131828308105,55.03414916992188,113.20059204101562,-1.8998606204986568,3.3864760398864746,-3.990079879760742,167.64051818847656,-80.70288848876953,110.25926208496094,3.6513705253601074,0.3940051794052124,1.989474296569824
2317.646125793457,83.07654571533203,-71.10585021972656,-19.72878074645996,11.588682174682615,9.82052993774414,3.5725221633911133,-55.39926528930664,-79.42145538330078,-155.3504638671875,-1.0934216976165771,-5.396663665771484,3.031956672668457,-44.86441802978516,-48.486061096191406,-127.16883850097656,-4.753403663635254,4.1260833740234375,1.3487892150878906,-36.891300201416016,48.4288215637207,94.92644500732422,-4.289701461791992,9.796024322509766,-9.166215896606444,177.13339233398438,-79.05223846435547,101.87438201904295,9.861215591430664,3.907304286956787,8.444459915161133
2317.676139831543,118.96867370605467,-66.55756378173828,-46.08161163330078,2.651887893676758,-3.443614959716797,8.727550506591797,-52.28415298461914,-76.76167297363281,-155.4805450439453,-2.214144706726074,-9.08206558227539,5.0587005615234375,-38.1995849609375,-58.70008087158203,-125.79846954345705,-3.3094944953918457,-5.376999855041504,6.114130973815918,-39.28522872924805,39.65907669067383,78.02367401123047,1.4680638313293457,10.744504928588867,-6.42897891998291,175.8363800048828,-79.41938781738281,103.786376953125,6.448789596557617,0.3495668768882751,9.494998931884766
2317.7106757164,125.9802703857422,-66.91869354248047,-56.16643905639648,-7.913309097290039,-2.326714515686035,-3.771780014038086,-54.596710205078125,-77.12567901611328,-145.9903564453125,-29.46091079711914,-4.461345672607422,-4.153504371643066,-36.848182678222656,-68.74066925048828,-122.1503677368164,6.631047248840332,-17.586658477783203,20.021080017089844,-26.51466178894043,31.225814819335938,63.67159271240234,11.738086700439451,-1.2722830772399902,-2.402583122253418,177.30979919433594,-81.16597747802734,104.2437744140625,-2.117062568664551,-3.43835973739624,4.720848083496094
2317.7356832027435,130.65423583984375,-70.49308013916016,-65.67697143554688,-0.2463385462760925,-8.256423950195312,2.545967102050781,-92.93212890625,-78.42134094238281,-104.05166625976562,-23.638072967529297,0.1909269988536834,0.7646474838256836,-42.86777877807617,-72.21903991699219,-116.92321014404295,0.2389078140258789,11.25432014465332,12.042524337768556,2.2116363048553467,25.735231399536133,53.54100036621094,9.59646224975586,-18.279342651367188,-14.73891830444336,-174.8369598388672,-82.6712646484375,101.52796173095705,-1.4709889888763428,-2.583918571472168,-1.2855443954467771
2317.7656762599945,138.71803283691406,-74.11075592041016,-76.12078094482422,-4.931194305419922,-5.842368125915527,5.060776710510254,-131.40147399902344,-74.34046173095703,-63.60400772094727,-9.488348007202148,-6.179592132568359,-8.437398910522461,-44.694480895996094,-73.20390319824219,-106.41939544677734,-3.732246398925781,-4.821821212768555,1.4063053131103516,41.01692581176758,22.7775821685791,50.11236953735352,-9.085147857666016,-6.56934928894043,-21.94558334350586,-166.99221801757812,-81.41973114013672,100.48385620117188,0.8228660821914673,-1.91117000579834,-1.9465527534484863
2317.8252079486847,148.381591796875,-74.54804229736328,-84.49556732177734,-3.9439735412597656,-5.570487976074219,5.506501197814941,-152.10211181640625,-68.60176849365234,-42.40119934082031,-3.8937020301818848,-2.633216381072998,-14.777332305908203,-51.76375198364258,-71.42153930664062,-94.41975402832033,-2.124096393585205,-3.168785095214844,-4.925882339477539,68.73489379882812,19.691743850708008,51.74520111083984,-8.516622543334961,3.759141445159912,-0.4374675750732422,-165.0052947998047,-79.2972183227539,103.25837707519533,-2.5505642890930176,-0.3615348935127258,-2.846409320831299
2317.8282074928284,159.8263702392578,-73.3572998046875,-91.15204620361328,-0.0298546254634857,4.231819152832031,1.359222412109375,-163.50364685058594,-63.833377838134766,-29.67879867553711,-2.728292942047119,2.668626308441162,-15.265878677368164,-58.32798385620117,-69.2207260131836,-87.39228820800781,-5.370122909545898,-0.5274608135223389,-7.447894096374512,89.06964111328125,14.177656173706056,59.04316711425781,-6.646502494812012,-2.996954917907715,-2.4712491035461426,-169.57949829101562,-77.78170013427734,108.17543029785156,-1.4208149909973145,1.478776931762695,-1.1665115356445312
2317.8857560157776,165.01220703125,-73.76641845703125,-96.4785614013672,-1.184868097305298,2.255061149597168,2.7702550888061523,-169.7869110107422,-60.6875228881836,-19.908035278320312,-2.4681687355041504,3.2509765625,-11.049497604370115,-60.12434768676758,-68.98247528076172,-86.56905364990234,-6.817530632019043,2.574657917022705,-3.322706699371338,106.91710662841795,4.529435157775879,65.58583068847656,-15.893951416015623,0.8781845569610596,19.454662322998047,-172.88856506347656,-77.07298278808594,110.17435455322266,-0.9268478155136108,5.774456024169922,0.6655826568603516
2317.915755987168,168.30935668945312,-75.93455505371094,-103.0909652709961,-0.9143487215042114,1.4767372608184814,0.6563215255737305,-174.9155731201172,-58.72786712646485,-11.989041328430176,-1.1210012435913086,1.156338453292847,-7.362846374511719,-55.425819396972656,-70.20941162109375,-92.41934204101562,-6.933292388916016,0.9804847240447998,0.1784925460815429,117.77717590332033,-6.701089859008789,65.95829772949219,-10.861824035644531,-0.6358411312103271,13.97308349609375,-171.6182098388672,-75.2632827758789,110.62995147705078,-2.520735263824463,1.4231374263763428,3.7304515838623047
2317.945756673813,172.40428161621094,-77.59867095947266,-109.97953033447266,-0.950186848640442,1.6685383319854736,0.3965368270874023,-178.81451416015625,-58.18228530883789,-5.0581231117248535,2.6466503143310547,1.0892465114593506,-4.579197883605957,-56.69451141357422,-70.83187866210938,-96.09638214111328,-3.955770492553711,0.4375315904617309,3.066718101501465,125.0823745727539,-18.63356208801269,60.20988082885742,-3.803412437438965,-1.220123529434204,9.24262237548828,-172.49795532226562,-73.80758666992188,111.51738739013672,-2.0826101303100586,2.1233181953430176,-0.4773464202880859
2317.9757702350616,176.06100463867188,-78.42864227294922,-116.66363525390624,-3.508233070373535,1.204151630401611,-0.622960090637207,-179.0703887939453,-60.89188766479492,1.082146167755127,7.235572814941406,3.5742149353027344,-2.717259407043457,-64.7533187866211,-69.44268035888672,-96.58937072753906,-2.3973889350891118,3.2914743423461914,1.6675662994384766,128.77313232421875,-30.05766868591309,48.74927520751953,0.3113687038421631,-2.6407699584960938,7.108257293701172,-175.2811279296875,-72.81038665771484,112.26271057128906,-0.8253171443939209,2.4524130821228027,-3.560001373291016
2318.006303071976,175.92437744140625,-77.87974548339844,-121.60101318359376,-1.9229462146759035,-3.275247573852539,-2.012891292572021,179.90313720703125,-66.85777282714844,9.844305992126465,-3.5644173622131348,3.1046853065490723,7.180517196655273,-69.34304809570312,-67.2657699584961,-99.19708251953124,-0.6506587266921997,1.7742323875427246,-3.0925235748291016,123.9983139038086,-40.36662673950195,34.276512145996094,2.1134257316589355,-4.628578186035156,0.5875692367553711,-179.69190979003906,-71.98358917236328,114.46930694580078,-2.1030282974243164,1.3750667572021484,-3.743536949157715
2318.036303043365,173.400146484375,-75.6130142211914,-121.78135681152344,5.335335731506348,-6.871366500854492,-1.7315120697021484,175.19100952148438,-69.91383361816406,17.03008270263672,13.179069519042969,0.6540930271148682,19.063480377197266,-67.31676483154297,-64.97402954101562,-105.82069396972656,4.687813758850098,1.2231500148773191,-3.175610065460205,110.20294189453124,-51.03311538696289,17.61949348449707,-4.032486915588379,0.2073639035224914,1.3409833908081057,174.88095092773438,-71.1940689086914,117.264404296875,-1.471485614776611,0.628209114074707,-5.228588104248047
2318.066304206848,170.86851501464844,-71.44145965576172,-117.33479309082033,0.8423746824264526,-2.422905445098877,-2.0197672843933105,175.1219482421875,-68.60860443115234,12.256518363952637,11.325559616088867,6.100139617919922,13.280231475830078,-63.30875015258789,-61.9980583190918,-114.61994934082033,2.7695512771606445,-0.8126966953277588,-4.828089714050293,81.2828140258789,-60.61844253540039,1.9897726774215696,8.299798965454102,14.041391372680664,6.692760467529297,168.6934051513672,-70.59400939941406,120.49935913085938,1.6062400341033936,-0.3333383798599243,-4.6046247482299805
2318.0958523750305,169.75393676757812,-65.21925354003906,-112.34752655029295,-1.7560491561889648,1.4104101657867432,0.7130641937255859,-177.68576049804688,-64.3696060180664,3.385337829589844,10.036623001098633,-0.2841620445251465,21.343997955322266,-60.57409286499024,-58.28185272216797,-122.80450439453124,3.428457260131836,3.865097999572754,-0.4453620910644531,44.087039947509766,-67.68949127197266,-3.022594928741455,23.27939224243164,2.6261420249938965,8.053260803222656,161.62168884277344,-70.69992065429688,125.47380065917967,-0.5569077730178833,0.6851872205734253,-1.643754005432129
2318.125853538513,168.2141876220703,-59.08873748779297,-107.96212768554688,-1.946448564529419,2.0940141677856445,0.4780960083007812,-168.193603515625,-58.0125732421875,-3.5107245445251465,8.283210754394531,-4.880937576293945,16.610187530517578,-57.279762268066406,-52.323368072509766,-129.26345825195312,1.7558176517486572,7.845298767089844,9.037090301513672,21.36795425415039,-69.95741271972656,10.22541046142578,19.468971252441406,-21.10168838500977,6.4116058349609375,155.42808532714844,-72.03435516357422,131.56787109375,-4.219643592834473,-2.233278751373291,1.1801233291625977
2318.185411930084,167.77102661132812,-54.35506820678711,-103.80744171142578,2.546939849853516,3.2209386825561523,1.107069969177246,-166.45892333984375,-52.26634216308594,-7.08906364440918,6.674593925476074,-4.003900527954102,8.545595169067383,-56.7230339050293,-43.4388313293457,-130.95773315429688,-3.217463493347168,7.544633865356445,4.554469108581543,28.849449157714844,-68.08099365234375,25.32603073120117,10.590564727783203,9.474714279174805,14.28513526916504,150.27928161621094,-73.18958282470703,137.4361114501953,-3.222893714904785,0.3987133502960205,-0.1843137741088867
