Timestamp,D4:22:CD:00:05:5D_EulerX,D4:22:CD:00:05:5D_EulerY,D4:22:CD:00:05:5D_EulerZ,D4:22:CD:00:05:5D_FreeAccX,D4:22:CD:00:05:5D_FreeAccY,D4:22:CD:00:05:5D_FreeAccZ,D4:22:CD:00:05:5E_EulerX,D4:22:CD:00:05:5E_EulerY,D4:22:CD:00:05:5E_EulerZ,D4:22:CD:00:05:5E_FreeAccX,D4:22:CD:00:05:5E_FreeAccY,D4:22:CD:00:05:5E_FreeAccZ,D4:22:CD:00:05:6B_EulerX,D4:22:CD:00:05:6B_EulerY,D4:22:CD:00:05:6B_EulerZ,D4:22:CD:00:05:6B_FreeAccX,D4:22:CD:00:05:6B_FreeAccY,D4:22:CD:00:05:6B_FreeAccZ,D4:22:CD:00:05:6E_EulerX,D4:22:CD:00:05:6E_EulerY,D4:22:CD:00:05:6E_EulerZ,D4:22:CD:00:05:6E_FreeAccX,D4:22:CD:00:05:6E_FreeAccY,D4:22:CD:00:05:6E_FreeAccZ,D4:22:CD:00:49:AA_EulerX,D4:22:CD:00:49:AA_EulerY,D4:22:CD:00:49:AA_EulerZ,D4:22:CD:00:49:AA_FreeAccX,D4:22:CD:00:49:AA_FreeAccY,D4:22:CD:00:49:AA_FreeAccZ
424.7395849227905,-143.01844787597656,-61.77221298217773,-87.8753433227539,-3.016449451446533,0.2129150927066803,-1.5282907485961914,-163.27601623535156,-25.251264572143555,-52.81084442138672,7.385034561157227,4.314506530761719,-1.281963348388672,-29.89439010620117,2.7798736095428467,-56.026981353759766,-1.9113218784332275,-2.436328887939453,13.01628303527832,106.31561279296876,-47.35126876831055,57.25791931152344,0.7533015012741089,-4.830028533935547,6.594030380249023,154.21279907226562,-74.191162109375,133.97315979003906,-1.0844979286193848,1.5513665676116943,2.148916244506836
424.7950060367584,178.0292205810547,-55.88776016235352,-54.29236602783203,-0.8836802244186401,0.3679733872413635,1.6986026763916016,178.12307739257812,-79.50125885009766,-38.23233413696289,-5.101905822753906,0.5812405347824097,-0.9278860092163086,-43.90494537353516,-1.3943785429000854,-14.702146530151367,5.290470123291016,-1.3019897937774658,9.548812866210938,171.24070739746094,-43.04068374633789,-18.54389762878418,-4.562933921813965,-1.1935198307037354,0.845489501953125,-129.07798767089844,-81.42167663574219,59.008182525634766,-1.3253183364868164,-0.8461911678314209,2.539486885070801
424.8249788284302,178.02879333496094,-58.61808395385742,-54.4741325378418,-0.6999119520187378,-0.2368180155754089,1.8313894271850584,142.76251220703125,-78.19286346435547,-5.400740146636963,-3.852783203125,7.430851936340332,3.399264335632324,-34.73027420043945,-2.3690826892852783,-14.450332641601562,-3.4184646606445312,-11.805904388427734,3.15896224975586,179.48243713378906,-50.88155746459961,-23.486684799194336,-10.596837997436523,-7.26255989074707,-1.6938362121582031,-113.36019134521484,-79.02732849121094,46.98580551147461,-0.6100624799728394,-1.4364089965820312,-0.0657787322998046
424.8547163009644,177.8513946533203,-62.24056243896485,-54.78173828125,0.5900790691375732,-0.4436407685279846,3.033937454223633,146.24717712402344,-77.71276092529297,-7.708379745483398,-6.783427238464356,6.06472110748291,5.167479515075684,-27.22238540649414,0.1088801100850105,-16.520370483398438,-6.996003150939941,-14.189094543457031,-3.1180195808410645,-173.73312377929688,-59.784324645996094,-31.750080108642575,-4.382044792175293,-5.275988578796387,3.388334274291992,-108.19406127929688,-77.43637084960938,45.84127807617188,0.6091145277023315,0.0313150584697723,-0.2529525756835937
424.9147791862488,177.7765350341797,-66.48255920410156,-56.11750030517578,0.2887483239173889,-1.951157569885254,1.7137937545776367,150.0198516845703,-76.47105407714844,-10.93350601196289,-10.678327560424805,8.278701782226562,1.661090850830078,-23.64128875732422,5.143249034881592,-19.396224975585938,-3.177053451538086,-6.259603500366211,-9.536262512207031,-143.85162353515625,-67.04541778564453,-52.82661056518555,-3.4303841590881348,-6.523677825927734,6.989524841308594,-106.59990692138672,-77.1165542602539,46.88522720336914,2.9589905738830566,0.3074662089347839,-2.88402795791626
424.94790482521057,176.8451690673828,-70.68319702148438,-57.44301223754883,0.2995346188545227,-2.2718958854675293,-0.6105031967163086,155.7648468017578,-74.09980773925781,-17.006471633911133,-7.245901107788086,5.805986404418945,-2.541822910308838,-23.258390426635746,11.201111793518066,-23.729677200317383,-0.3748371601104736,-4.891890525817871,-9.525739669799805,-103.58683776855467,-67.56122589111328,-72.16824340820312,-2.270432472229004,-15.164876937866213,-0.4795007705688476,-102.50033569335938,-77.61931610107422,44.24946212768555,2.713986873626709,-0.094633087515831,-5.2859392166137695
424.97488379478455,174.2826385498047,-74.57847595214844,-56.17689895629883,1.313157320022583,0.2152926921844482,-2.020015239715576,156.0335235595703,-71.12703704833984,-21.26122093200684,-10.839353561401367,0.2714517712593078,-2.735750198364258,-22.26366233825684,16.69489860534668,-30.90580368041992,0.6886117458343506,0.462861955165863,-11.838903427124023,-83.667236328125,-68.18724822998047,-81.63793182373047,0.9507579803466796,-15.693801879882812,-6.330805778503418,-98.80380249023438,-78.39423370361328,41.113616943359375,1.5678980350494385,0.2299604713916778,-6.17465877532959
425.00449109077454,170.20999145507812,-78.00753784179688,-52.73624801635742,0.2420530915260315,1.930264234542847,-3.383200168609619,148.8250732421875,-65.71358489990234,-22.34841728210449,-9.080097198486328,5.304409980773926,-3.138754367828369,-24.86021423339844,20.692352294921875,-42.513648986816406,5.401679039001465,3.2203993797302246,-11.95964241027832,-85.7660140991211,-71.31437683105469,-83.54798889160156,-2.427608013153076,-11.069816589355469,-8.214685440063477,-96.04989624023438,-79.47611999511719,38.06954193115234,0.724211573600769,-0.246697723865509,-5.618411064147949
425.0345923900604,163.9757537841797,-80.54608154296875,-46.533199310302734,0.2004050016403198,2.5355048179626465,-4.953808784484863,149.04061889648438,-57.51163482666016,-27.80693244934082,-2.252383232116699,13.52613639831543,2.022531509399414,-31.107881546020508,22.341480255126957,-59.78523254394531,-0.8615672588348389,-6.855607986450195,-17.354320526123047,-103.7606201171875,-75.73255920410156,-77.25725555419922,-4.59166431427002,-6.149880409240723,-6.797908782958984,-92.1625747680664,-80.50261688232422,33.01515579223633,0.7629532814025879,-1.5724961757659912,-5.994602203369141
425.0641143321991,156.03829956054688,-81.67755889892578,-38.37069320678711,3.223276138305664,2.0172834396362305,-4.267289161682129,152.88101196289062,-49.54265213012695,-32.095558166503906,3.3631091117858887,-10.06231689453125,-5.387735366821289,-34.30986404418945,18.70106506347656,-78.61894226074219,-3.8427658081054688,-21.78793334960937,-15.945184707641602,-131.15626525878906,-79.64315032958984,-60.15678787231445,-1.5857257843017578,-3.3995633125305176,-5.8755598068237305,-88.80013275146484,-81.07476043701172,28.527332305908203,0.9952899217605592,-2.0831103324890137,-4.512935638427734
425.09411573410034,149.0760040283203,-81.5360336303711,-30.983381271362305,1.3160514831542969,0.7535518407821655,-2.482308387756348,154.13668823242188,-43.97589111328125,-31.598445892333984,2.397482395172119,-13.04274559020996,-1.4630460739135742,-35.157440185546875,15.298705101013184,-90.34895324707033,-2.2100839614868164,1.0648515224456787,-19.509815216064453,-160.79379272460938,-81.82764434814453,-35.83524703979492,0.8103786706924438,-1.4997777938842771,-5.740959167480469,-88.5483169555664,-81.58842468261719,27.46675491333008,-0.2897748947143554,-3.211884021759033,-0.6102333068847656
425.1247208118439,141.7834930419922,-80.73519897460938,-25.066486358642575,2.3004536628723145,-1.9379527568817136,0.731968879699707,155.47216796875,-39.70451736450195,-31.27996826171875,9.299169540405272,-11.839757919311523,0.8813362121582031,-41.63375854492188,15.54319190979004,-85.09848022460938,-15.137990951538086,5.534758567810059,3.171314239501953,175.56996154785156,-82.48428344726562,-12.169604301452637,0.4517313838005066,-1.825488567352295,-2.7616729736328125,-87.72311401367188,-82.55455780029297,25.82324981689453,-0.3739897012710571,-2.3859405517578125,1.2942705154418943
425.1579189300537,135.26019287109375,-79.21989440917969,-18.22959327697754,2.4250779151916504,-2.2887325286865234,3.088071823120117,151.47769165039062,-35.94013977050781,-30.799884796142575,10.736974716186523,-4.101341247558594,1.9897794723510744,-32.169185638427734,15.39603042602539,-70.31632995605469,-6.755484580993652,-14.448301315307615,-17.032817840576172,162.76983642578125,-81.57486724853516,4.509776592254639,0.0803711712360382,-2.972201347351074,1.2780694961547852,-93.4246826171875,-83.31417083740234,30.453399658203125,0.85455322265625,-3.1461081504821777,2.980849266052246
425.2145485877991,127.78643035888672,-77.26739501953125,-9.952584266662598,0.3332157731056213,-1.4922254085540771,5.235049247741699,148.40013122558594,-34.42271423339844,-29.04568290710449,14.02182388305664,-1.9532392024993896,-3.0028672218322754,-30.50360107421875,10.504999160766602,-51.33347702026367,-0.7922706604003906,-12.338781356811523,-15.82516098022461,162.3329620361328,-80.04007720947266,8.5384521484375,2.8072943687438965,-7.831976890563965,6.39653205871582,-101.03243255615234,-82.66492462158203,37.859561920166016,3.459782600402832,-2.6533870697021484,4.57042407989502
425.2445695400238,117.39768981933594,-75.56765747070312,-2.074789762496948,3.266784191131592,-2.0089669227600098,6.435550689697266,150.3043975830078,-33.84217071533203,-26.59464263916016,6.990191459655762,-0.3239614963531494,-1.2769012451171875,-31.639646530151367,1.1451326608657837,-36.01657485961914,-14.446361541748049,-1.6121587753295898,-7.603440284729004,158.0894775390625,-77.98722076416016,10.47102165222168,3.697272777557373,-3.8949127197265625,4.501643180847168,-110.59455108642578,-80.37802124023438,46.01215744018555,7.575045585632324,6.454398155212402,-3.1385269165039062
425.2777030467987,106.6668472290039,-73.79764556884766,4.441210746765137,10.05584716796875,5.960906982421875,2.598910331726074,150.2595977783203,-32.947509765625,-24.468141555786133,6.159775733947754,-2.024887084960937,-1.301213264465332,-37.18901443481445,-9.421615600585938,-20.564332962036133,-16.144859313964844,12.878276824951172,-17.51572036743164,148.03875732421875,-75.06095123291016,10.147207260131836,6.989046096801758,-1.9748964309692385,-1.6122322082519531,-120.07563018798828,-77.1556625366211,51.60488510131836,15.87399673461914,2.193521499633789,-3.9592905044555664
425.3038685321808,116.54891204833984,-70.1533203125,-6.2995429039001465,-13.016132354736328,32.81950378417969,4.172748565673828,149.76792907714844,-33.09541320800781,-22.493412017822266,3.363839626312256,-2.0562634468078613,0.2069110870361328,-58.68519592285156,-18.589859008789062,1.1157941818237305,-11.103403091430664,-4.510083198547363,-2.044909954071045,133.4152374267578,-73.82788848876953,14.41981029510498,7.630332946777344,4.197187423706055,-5.079672813415527,-125.06169128417967,-75.88517761230469,53.197845458984375,2.8821048736572266,0.5547816753387451,1.589435577392578
425.33471608161926,133.88925170898438,-62.79946517944336,-26.543384552001957,-5.259187698364258,26.736248016357425,5.862884521484375,148.0655975341797,-33.995052337646484,-20.68612670898437,5.816231727600098,-1.8051645755767824,-1.0467901229858398,-77.86146545410156,-24.544586181640625,27.15795516967773,6.957834243774414,7.43272590637207,1.6330289840698242,123.82686614990234,-74.1296615600586,24.164363861083984,6.116490364074707,12.431055068969728,2.7448768615722656,-131.32716369628906,-74.3807601928711,57.37493515014648,-4.32025146484375,1.0244102478027344,6.136355400085449
425.3644092082977,143.3137664794922,-52.15573120117188,-44.41754913330078,2.1451873779296875,10.516090393066406,0.2571353912353515,146.3497314453125,-35.30546951293945,-18.321483612060547,7.158085823059082,-0.8455492258071899,-1.598170280456543,-92.4276123046875,-25.25131607055664,49.98869323730469,1.528148174285889,13.701414108276367,9.158029556274414,120.75494384765624,-73.3702392578125,36.19924545288086,0.7750124931335449,7.393594741821289,5.460390090942383,-128.11532592773438,-73.4151840209961,54.49701690673828,4.987917900085449,2.894637107849121,4.145857810974121
425.3949069976807,149.6527862548828,-39.9434700012207,-56.90694427490234,2.1650214195251465,-1.5626826286315918,-7.565141677856445,146.06275939941406,-37.385719299316406,-15.490887641906738,5.773506164550781,-1.3246617317199707,-1.7059974670410156,-91.0864715576172,-24.42844009399414,61.89130401611328,-10.135175704956056,10.914440155029297,12.870412826538086,119.87528228759766,-70.65483093261719,45.15912628173828,3.422393321990967,2.656843662261963,4.383244514465332,-124.33855438232422,-73.7435073852539,52.180755615234375,7.32884407043457,4.773313522338867,-0.1462163925170898
425.425023317337,157.26992797851562,-28.7404727935791,-64.5619888305664,-2.1402220726013184,-6.520125389099121,-14.722177505493164,146.16136169433594,-39.44032669067383,-12.844429969787598,3.1667280197143555,-3.1380181312561035,-1.6550474166870115,-82.40538787841797,-23.188011169433597,62.1103744506836,-2.348285675048828,7.654220581054687,0.1006574630737304,120.95159912109376,-67.64163970947266,50.75657653808594,-1.54894757270813,-0.1055857241153717,3.128260612487793,-125.04521942138672,-74.1941909790039,53.17157745361328,1.6374351978302002,3.2462592124938965,-1.1450176239013672
425.4545760154724,166.26434326171875,-21.14700698852539,-69.27925872802734,-5.787997245788574,-5.9528656005859375,-9.73288917541504,145.50289916992188,-40.63959503173828,-11.334632873535156,2.3554892539978027,-4.803310394287109,-2.237045288085937,-78.64527130126953,-23.75988006591797,57.921268463134766,-1.134582757949829,5.915060043334961,0.933995246887207,121.94401550292967,-64.5013427734375,53.38847732543945,0.530929684638977,2.249546527862549,-1.0441827774047852,-126.64285278320312,-75.35238647460938,55.3001823425293,-0.0153316464275121,1.179062843322754,-0.5393409729003906
425.5145750045776,171.40370178222656,-18.90561294555664,-72.62811279296875,-4.441676139831543,-9.212272644042969,-3.9979476928710938,145.77249145507812,-41.336761474609375,-11.667139053344728,4.521032333374023,-3.4114484786987305,-3.206216812133789,-74.25527954101562,-26.567285537719727,56.429420471191406,-0.0827701091766357,1.976172685623169,-2.852880477905273,122.87499237060548,-61.831825256347656,54.54963684082031,0.950147271156311,-0.7495681047439575,-3.421713829040528,-124.2992935180664,-76.59260559082031,53.81354522705078,1.6579067707061768,-0.208712488412857,-2.985654830932617
425.5449757575989,169.86431884765625,-21.76591110229492,-75.02774810791016,-8.057767868041992,-12.787803649902344,-5.439647674560547,147.57562255859375,-41.3214225769043,-14.457897186279297,2.255802631378174,-4.940493583679199,-3.643767833709717,-72.22248077392578,-32.46240997314453,59.4912223815918,1.0448968410491943,3.65893030166626,-7.5108642578125,123.8498992919922,-59.759239196777344,55.13117218017578,1.291534662246704,-1.3267216682434082,-5.093059539794922,-120.71687316894533,-77.41613006591797,51.813926696777344,3.917169570922852,-1.2190017700195312,-5.222048759460449
425.5746343135834,165.9921417236328,-27.352222442626957,-75.16844940185547,-7.041069030761719,-3.0427122116088867,21.83441925048828,148.0133056640625,-40.64166641235352,-18.26352310180664,1.830017328262329,-3.356372833251953,-1.1815099716186523,-75.49949645996094,-41.63816452026367,66.92815399169922,1.944657325744629,9.033761978149414,-0.5728569030761719,125.5332489013672,-58.24775314331055,55.57490539550781,1.0164856910705566,-2.2999725341796875,-5.9199628829956055,-121.63980865478516,-78.01036071777344,53.14715576171875,3.90873384475708,-0.2177854776382446,-7.571885108947754
425.6048891544342,169.8203582763672,-30.032209396362305,-71.0416030883789,6.205544471740723,-11.873262405395508,-9.882287979125977,149.13575744628906,-39.90346908569336,-21.529949188232425,5.864825248718262,-1.146074295043945,-1.5165891647338867,-77.36883544921875,-52.287715911865234,74.67335510253906,-3.295271873474121,14.49150276184082,10.13847541809082,127.3381118774414,-56.63764190673828,56.22106170654297,1.2051362991333008,-3.48518180847168,-4.910636901855469,-124.46814727783205,-78.51216125488281,55.66471862792969,-0.4737502336502075,2.670070171356201,-3.642202377319336
425.63489174842834,179.64517211914062,-31.538593292236328,-67.81865692138672,2.380838394165039,-13.088056564331056,-2.6385154724121094,150.61944580078125,-38.989501953125,-24.154455184936523,6.685521125793457,-0.6257894039154053,-0.8142919540405273,-73.35009765625,-60.57548141479492,75.58863830566406,-2.7318148612976074,17.531204223632812,6.558010101318359,126.59538269042967,-53.5614128112793,58.27865219116211,3.892704486846924,-6.894146919250488,0.4189281463623047,-123.46243286132812,-78.49783325195312,55.088134765625,-3.958388328552246,-0.4472543001174927,1.6543569564819336
425.6948330402374,-177.38890075683594,-32.74687576293945,-66.85981750488281,-2.553653717041016,-16.63314437866211,2.374972343444824,151.46961975097656,-38.17947769165039,-25.35692405700684,5.854339599609375,-0.8659619092941284,-0.1077003479003906,-73.1382827758789,-62.21546173095703,70.88650512695312,4.274419784545898,14.602684020996094,3.816838264465332,121.99446105957033,-48.47511672973633,63.09169387817383,5.906665802001953,-6.170633316040039,10.67247200012207,-125.84544372558594,-78.08157348632812,58.09645080566406,2.5742998123168945,-0.1117059588432312,2.2050161361694336
425.6999084949493,177.83961486816406,-30.75902938842773,-66.6439437866211,13.404882431030272,-14.674108505249023,5.0612897872924805,151.90040588378906,-38.1015625,-25.56959724426269,4.418837547302246,-1.0236690044403076,0.3236112594604492,-78.5101547241211,-55.81174087524414,65.64344024658203,9.180583953857422,10.285465240478516,9.145849227905272,119.55174255371094,-39.164093017578125,70.63771057128906,14.902387619018556,-5.870169639587402,18.040225982666016,-134.69761657714844,-77.9593734741211,66.4500503540039,8.097118377685547,2.0570168495178223,5.555885314941406
425.7243564128876,172.54962158203125,-26.310291290283203,-66.7833251953125,9.488924026489258,-21.14532470703125,7.629987716674805,151.6914825439453,-38.76072311401367,-25.07692146301269,4.264125823974609,-0.8644067049026489,0.0157947540283203,-84.95256805419922,-46.22478103637695,58.967735290527344,9.462461471557615,6.789255142211914,8.997005462646484,121.92658233642578,-24.732154846191406,77.86109924316406,10.860525131225586,-14.365497589111328,23.703014373779297,-141.77032470703125,-78.52698516845703,71.67696380615234,0.5602619647979736,2.2253880500793457,4.851344108581543
425.7548818588257,167.29248046875,-22.853052139282227,-67.06208038330078,9.47890281677246,-12.784391403198242,-0.2032995223999023,150.69602966308594,-39.95381927490234,-23.687856674194336,4.676548004150391,-0.8260732889175415,-0.4740018844604492,-89.45799255371094,-39.48905944824219,52.315860748291016,4.194037437438965,2.982133388519287,4.325615882873535,121.19188690185548,-5.071736812591553,81.27727508544922,15.839736938476562,-7.42692756652832,15.975303649902344,-146.6476593017578,-79.00666046142578,75.40096282958984,-0.8578426837921143,2.024746417999268,2.4185352325439453
425.81454515457153,166.6042022705078,-19.482362747192383,-67.85150909423828,0.9267499446868896,-5.332659721374512,8.690692901611328,148.1880340576172,-41.32316589355469,-21.230283737182617,3.4237332344055176,-0.8095316886901855,0.8534069061279297,-91.47867584228516,-37.730934143066406,46.39568328857422,-0.4483593106269836,2.374478340148926,0.4869680404663086,115.5200424194336,18.48423767089844,81.61917877197266,10.223031997680664,10.600896835327148,12.30263900756836,-150.4857177734375,-79.01545715332031,79.25247955322266,3.437171459197998,3.267603874206543,1.8515748977661133
425.8447320461273,164.39161682128906,-18.4776668548584,-68.92050170898438,-5.278668403625488,-6.040678977966309,-0.1669654846191406,144.252685546875,-42.46437454223633,-19.112314224243164,3.0236921310424805,-0.911324381828308,0.8303651809692383,-94.8091278076172,-40.7465934753418,41.58359146118164,-1.3518247604370115,0.9056066274642944,-1.9830451011657717,104.59732055664062,41.32266616821289,78.41465759277344,4.861478805541992,13.133577346801758,1.0826969146728516,-155.5916748046875,-78.54564666748047,84.47277069091797,4.118922233581543,3.3990297317504883,3.781017303466797
425.87486577034,160.86773681640625,-20.317058563232425,-69.90583038330078,-3.964856147766113,0.0298899412155151,-3.6444225311279297,140.3465576171875,-44.04293823242188,-17.20493507385254,6.138439178466797,-2.007084846496582,1.3177642822265625,-100.7990264892578,-48.07343292236328,38.99038314819336,-6.763050079345703,1.362464189529419,1.8438119888305664,88.13411712646484,59.04443740844727,71.12969970703125,-2.918159008026123,11.288629531860352,-1.9810423851013184,-160.2332000732422,-78.21990203857422,88.64894104003906,2.166464328765869,1.4325084686279297,2.278971672058105
425.9044930934906,157.88848876953125,-25.200803756713867,-70.98270416259766,-4.015583038330078,1.1108460426330566,-7.544878005981445,137.5774383544922,-46.37579345703125,-14.093759536743164,7.722772598266602,-4.161449432373047,1.554213523864746,-108.76799774169922,-58.52074813842773,40.36101913452149,-8.474983215332031,3.807741641998291,0.725764274597168,66.25836944580078,69.72889709472656,59.325775146484375,-8.545331954956055,5.021493911743164,-4.997081756591797,-164.67958068847656,-77.51285552978516,92.6889877319336,1.257568597793579,0.614470362663269,2.157618522644043
425.9354226589203,155.43453979492188,-32.8431510925293,-71.49778747558594,-4.610469818115234,-0.937634825706482,-9.25503921508789,136.31495666503906,-48.794395446777344,-10.740857124328612,5.77191162109375,-1.854762077331543,-2.170015335083008,-123.66381072998048,-69.58470153808594,50.073020935058594,-8.476875305175781,3.0421833992004395,-0.7582168579101562,46.227684020996094,73.79899597167969,48.0247688293457,-0.8528695106506348,-6.24174690246582,-5.8206634521484375,-170.31805419921875,-77.22624206542969,98.00959014892578,3.312387466430664,1.1946427822113037,0.4403753280639648
425.96463918685913,153.3682861328125,-42.53317260742188,-70.09879302978516,-4.0873565673828125,-2.717474937438965,-7.514084815979004,135.04725646972656,-51.33305358886719,-7.88911771774292,2.2491888999938965,0.4145616292953491,-3.0267438888549805,-161.69142150878906,-77.27548217773438,82.93067932128906,-7.456093788146973,2.3851475715637207,-3.375133991241455,47.86669158935547,74.87956237792969,52.26788330078125,5.896176338195801,-6.738714218139648,-5.948711395263672,-175.29229736328125,-77.4344711303711,102.14749145507812,3.283367156982422,0.5459715127944946,-2.7419180870056152
425.99463057518005,150.15696716308594,-53.74415588378906,-66.0159683227539,-0.4113780260086059,-2.465758800506592,-5.71922492980957,132.87069702148438,-53.77431488037109,-5.579861164093018,0.0916395187377929,-1.224720478057861,-3.100286960601806,144.73861694335938,-74.98570251464844,130.7713623046875,-8.737293243408203,2.881631851196289,-4.745196342468262,66.46105194091797,73.34363555908203,72.55352020263672,2.3922910690307617,0.1651748120784759,-6.747649192810059,-178.05397033691406,-77.83087921142578,104.28044128417967,1.679598331451416,0.8174073696136475,-4.267082214355469
426.0258283615112,145.9215545654297,-65.54698944091797,-58.00641250610352,2.807635307312012,0.5437513589859009,-0.5363693237304688,131.2309112548828,-55.70916366577149,-3.924253702163696,-0.5320265293121338,-1.630431890487671,-3.981799602508545,120.1396026611328,-66.219970703125,150.34576416015625,-6.476116180419922,2.9153389930725098,-6.328628540039063,83.71467590332031,65.99190521240234,95.13367462158205,1.3140597343444824,0.1655285656452179,-10.540367126464844,179.75323486328125,-78.60326385498047,106.50300598144533,1.0142078399658203,1.059314250946045,-5.546789169311523
426.0548088550568,133.1509246826172,-76.42546081542969,-38.52296829223633,2.30663537979126,7.477277755737305,3.433649063110352,131.4907989501953,-57.02732467651367,-4.05153226852417,-0.6262747049331665,-3.065946102142334,-3.6416149139404297,108.13770294189452,-56.89860153198242,155.25181579589844,-5.2262773513793945,2.784440040588379,-6.894930839538574,90.811767578125,52.263275146484375,110.74256896972656,-5.415988922119141,7.34797477722168,-17.535709381103516,177.69705200195312,-79.78496551513672,109.1513900756836,0.0503933429718017,0.3825823068618774,-5.769620895385742
426.1142189502716,89.72602081298828,-81.45127868652344,13.459567070007324,-3.9674072265625,11.838655471801758,5.454794883728027,133.22116088867188,-57.63433074951172,-6.209137439727783,1.890674591064453,-2.849865436553955,-3.736373901367188,98.50476837158205,-48.49357986450195,155.241943359375,-5.146298408508301,4.818804740905762,-7.910080909729004,88.47051239013672,36.8485107421875,121.36653137207033,-15.630132675170898,27.626495361328125,-19.920143127441406,177.45590209960938,-81.3062744140625,110.71318817138672,-1.0940299034118652,-0.8976666927337646,-5.649030685424805
426.14459896087646,58.35078430175781,-79.00504302978516,48.92629623413086,-8.604158401489258,17.090240478515625,-5.149971961975098,135.19061279296875,-57.92742919921875,-9.566014289855955,6.53830623626709,-0.935217022895813,0.4806671142578125,92.5484390258789,-40.669315338134766,153.69009399414062,-5.901986122131348,6.80018424987793,-10.083091735839844,90.65261840820312,34.422420501708984,124.98715209960938,5.894899368286133,-2.8946313858032227,-14.096235275268556,-178.33285522460938,-81.93021392822266,108.94803619384766,3.6278772354125977,0.1841752231121063,-5.432598114013672
426.1741921901703,64.63919830322266,-78.19046020507812,43.49912643432617,-3.2694249153137207,15.432104110717772,-9.490135192871094,136.6362762451172,-58.73516845703125,-12.319955825805664,7.1064453125,-2.2362184524536133,2.9451208114624023,91.68167114257812,-33.882835388183594,152.2442626953125,-7.223299980163574,5.911524772644043,-9.6417236328125,107.06456756591795,44.0761947631836,122.10214233398438,-6.059638023376465,7.723880767822266,0.1735210418701172,-168.10914611816406,-81.55171203613281,100.81372833251952,7.907872200012207,0.0257866904139518,0.4764060974121094
426.20419907569885,90.12979125976562,-77.98069763183594,20.6261043548584,8.105571746826172,-1.7941408157348633,2.7396774291992188,138.36087036132812,-60.41538619995117,-14.707697868347168,7.175192832946777,-3.341216564178467,2.863583564758301,91.53214263916016,-30.425046920776367,150.59727478027344,-8.242988586425781,8.182987213134766,-6.197873115539551,105.97706604003906,58.23277282714844,115.60968017578124,-5.982270240783691,13.880569458007812,-11.965530395507812,-161.20913696289062,-81.46503448486328,94.02399444580078,6.47105598449707,0.8260959386825562,2.391903877258301
426.23743534088135,108.157958984375,-78.24364471435547,0.6079522371292114,12.169702529907228,1.0021259784698486,4.644847869873047,142.59764099121094,-62.512943267822266,-18.413240432739254,6.982216835021973,-5.064288139343262,2.251706123352051,91.43901824951172,-30.65840148925781,149.39312744140625,-10.366130828857422,11.655797958374023,-6.215649604797363,94.1258773803711,73.67001342773438,94.59192657470705,0.0097196847200393,5.238158226013184,-15.431053161621094,-158.06546020507812,-80.26657104492188,90.04682159423828,4.814261436462402,-1.2916297912597656,3.8439884185791016
426.2644805908203,128.87327575683594,-76.73770141601562,-20.82909202575684,1.7918307781219482,-7.228366851806641,9.176429748535156,152.99334716796875,-64.49203491210938,-24.640249252319336,7.782345771789551,-10.167770385742188,4.113686561584473,95.58316040039062,-33.73203659057617,148.6423797607422,-11.989286422729492,11.82693099975586,-4.267477035522461,29.986669540405277,77.27722930908203,22.711729049682617,-9.603185653686523,12.208852767944336,-11.216623306274414,-160.33438110351562,-78.94866180419922,90.90679168701172,1.9308409690856931,-4.368390083312988,4.56932258605957
426.294627904892,144.20236206054688,-73.81333923339844,-32.21361541748047,-0.0416435897350311,1.1623783111572266,-2.072556495666504,167.0358428955078,-65.83484649658203,-32.66781997680664,-8.855016708374023,-4.292506217956543,5.579066276550293,103.41462707519533,-39.377777099609375,148.19229125976562,-11.27935028076172,10.10002326965332,1.279099464416504,-0.6599954962730408,64.21533203125,-9.248016357421877,-0.7541149854660034,-7.050605773925781,-2.72351598739624,-164.1022491455078,-78.94132232666016,95.12853240966795,-5.17410945892334,-2.6705026626586914,-0.1248731613159179
426.3247327804565,155.4826202392578,-71.69156646728516,-38.948123931884766,-5.205977439880371,2.1342148780822754,-0.2118988037109375,-178.88832092285156,-62.02231216430664,-43.08128356933594,-16.388038635253906,6.54296875,13.040088653564451,110.7564926147461,-46.5775146484375,147.70443725585938,-4.618873596191406,6.078014373779297,2.208651542663574,-3.3462276458740234,49.462188720703125,-17.137832641601562,0.1969596147537231,-14.172788619995115,-0.0157337188720703,-169.3815460205078,-77.88714599609375,103.48638153076172,-6.355024337768555,-2.8571157455444336,-5.3706560134887695
426.3545298576355,162.35145568847656,-70.16163635253906,-42.52115249633789,1.3622918128967283,-0.1520715057849884,0.8030309677124023,-170.6168975830078,-53.709716796875,-50.42142868041992,-7.803902626037598,4.462859153747559,7.681022644042969,117.19225311279295,-54.41261291503906,145.49095153808594,-1.171248435974121,3.891868114471436,-4.2907562255859375,9.372989654541016,37.87065887451172,-22.11983299255371,1.2880427837371826,-23.999675750732425,1.0594863891601562,-173.9079132080078,-77.25070190429688,110.90513610839844,-1.20879864692688,2.852994441986084,-0.2033910751342773
426.4145159721375,167.8825225830078,-69.10652923583984,-46.32236099243164,-0.4898390173912048,-0.3097960948944092,0.5018939971923828,-165.7986297607422,-44.51633071899414,-52.5164680480957,-9.39246940612793,0.7117736339569092,-3.09581995010376,125.0346221923828,-62.4839096069336,141.38131713867188,-3.143741607666016,1.1676373481750488,-0.5453052520751953,40.21653366088867,31.69188690185547,-23.31220245361328,-0.2803305387496948,-0.3838598132133484,-7.545788764953613,-179.20018005371094,-77.11815643310547,116.57601928710938,-0.4480437636375427,2.343336582183838,4.288374900817871
426.44865131378174,172.14234924316406,-68.31683349609375,-51.60551452636719,-1.982741355895996,-0.7239248752593994,1.035400390625,-166.35340881347656,-35.09490966796875,-50.4720344543457,-6.196040153503418,3.413607120513916,-8.981056213378906,128.2609405517578,-69.42570495605469,138.6876983642578,-0.250028133392334,-3.7826762199401855,3.624491691589356,57.29629898071289,24.690656661987305,-22.27379608154297,7.828981399536133,9.380563735961914,6.985025405883789,175.56076049804688,-76.89281463623047,122.23463439941406,-3.844932556152344,1.091583490371704,3.867584228515625
426.47473645210266,176.68458557128906,-67.8198471069336,-57.54215240478516,-2.0275793075561523,0.1696060895919799,1.2140445709228516,-171.343505859375,-26.304033279418945,-46.8568115234375,-3.802570343017578,3.4723944664001465,-12.131683349609377,121.37086486816406,-74.59420776367188,141.41566467285156,-6.338441848754883,-4.972423553466797,4.85965633392334,59.65496063232422,14.98011302947998,-21.247175216674805,0.9054749011993408,-4.369063377380371,1.466862678527832,169.35231018066406,-77.4501953125,127.91071319580078,-3.65117073059082,2.566744804382324,2.353226661682129
426.50473284721375,-179.5274200439453,-67.93800354003906,-64.0266342163086,-2.896957874298096,-0.3046056628227234,1.2612028121948242,179.9344482421875,-18.78290367126465,-42.70058059692383,1.1780805587768557,3.773300647735596,-9.131916046142578,111.94863891601562,-78.4644546508789,147.62672424316406,-6.755373001098633,-2.9737491607666016,3.204470634460449,68.66478729248047,5.434476375579834,-18.28278923034668,7.766689300537109,-2.305983066558838,1.9746294021606443,162.0739288330078,-76.91096496582031,134.03717041015625,-2.022178649902344,3.053224563598633,1.777390480041504
426.5348424911499,-177.41763305664062,-68.85140228271484,-70.99931335449219,-3.2253565788269043,-1.7436656951904297,0.4791698455810547,171.6498260498047,-13.397842407226562,-38.53011703491211,4.73628044128418,2.057455539703369,-3.65196704864502,106.3332748413086,-81.39098358154297,152.19427490234375,-3.513535022735596,-1.5655310153961182,1.0980195999145508,76.18309783935547,-5.9673590660095215,-13.393423080444336,12.925060272216797,5.889277458190918,0.9118833541870116,154.08291625976562,-76.62052917480469,140.2822265625,-1.7335712909698486,1.692044973373413,-1.593855857849121
426.56443881988525,-177.51902770996094,-69.9156494140625,-78.62809753417969,1.2444181442260742,0.0544829592108726,-0.7444515228271484,167.04229736328125,-11.178925514221191,-34.16042709350586,11.693830490112305,-3.4434032440185547,-8.381484985351562,103.59302520751952,-83.70841979980469,153.72706604003906,-4.6587677001953125,0.0786638259887695,-1.810908317565918,71.2490234375,-22.15923500061035,-5.8315277099609375,21.426952362060547,3.418323516845703,9.973356246948242,146.16705322265625,-76.63350677490234,145.99514770507812,0.1485664844512939,0.3253232836723327,-5.513998031616211
426.5944385528565,-178.22825622558594,-69.86395263671875,-84.16375732421875,2.1811270713806152,-0.813259482383728,-1.1233654022216797,166.79014587402344,-13.042256355285645,-30.90449333190918,17.399826049804688,0.7463687658309937,-11.382232666015623,102.05096435546876,-85.75421142578125,155.6784210205078,-1.929592847824097,-0.3269686102867126,-5.0433502197265625,55.025047302246094,-37.44750213623047,3.866704225540161,23.71581268310547,6.309335708618164,22.80282974243164,139.4097900390625,-76.46939086914062,149.8948974609375,0.40065598487854,-0.6246027946472168,-6.233959197998047
426.624439239502,178.4618377685547,-68.0889663696289,-84.69719696044922,6.288565635681152,-2.390374183654785,-1.3232431411743164,172.2117462158203,-16.043869018554688,-29.69883728027344,19.705509185791016,0.7279078960418701,10.07547378540039,98.56613159179688,-88.48070526123047,158.58187866210938,0.3570271730422973,0.4340773820877075,-7.890177726745605,52.56526565551758,-39.37355422973633,-0.0412536226212978,5.573129653930664,-5.393662452697754,-3.481390953063965,132.891845703125,-76.04622650146484,153.18399047851562,-0.4215767383575439,0.8588210344314575,-6.632241249084473
426.654189825058,176.00149536132812,-65.1142578125,-81.02295684814453,0.5248744487762451,-0.1677767634391784,-1.825800895690918,167.39556884765625,-16.20331573486328,-32.86295318603516,22.83630752563477,-11.35871696472168,-10.766647338867188,-78.10148620605469,-88.21141052246094,-26.72039794921875,-2.814350128173828,1.7419006824493408,-7.953920364379883,61.19879531860352,-35.9551887512207,-10.231497764587402,8.546049118041992,-10.600822448730469,-0.962310791015625,126.849853515625,-75.67554473876953,156.2965545654297,-3.70954179763794,0.602936863899231,0.1351346969604492
426.71448612213135,175.40476989746094,-61.48182678222656,-77.42132568359375,1.827742338180542,0.711578369140625,-0.177098274230957,161.60113525390625,-15.353666305541992,-37.89140701293945,25.549522399902344,-11.94412612915039,2.318523406982422,-87.06474304199219,-84.64701080322266,-20.577852249145508,-8.765724182128906,9.748111724853516,-4.714054107666016,64.442626953125,-34.4752082824707,-10.922404289245604,13.29657745361328,-7.110976219177246,-13.356258392333984,121.65876007080078,-75.79113006591797,160.39173889160156,-3.826870918273926,-3.562135696411133,0.8035507202148438
426.7444908618927,174.98031616210938,-57.88603210449219,-76.70657348632812,1.6758673191070557,1.205251693725586,-0.0519676208496093,163.2350311279297,-13.705820083618164,-41.39821243286133,19.09720230102539,-18.409393310546875,-1.048931121826172,-87.08710479736328,-79.38871002197266,-22.261472702026367,-19.394588470458984,22.37397003173828,-2.641636848449707,69.7918930053711,-32.70360565185547,-10.613555908203123,19.10043716430664,-1.1618351936340332,-5.277544021606445,119.22406768798828,-76.22021484375,161.95498657226562,2.8526086807250977,0.4669699668884277,3.20791244506836
426.77470874786377,176.06324768066406,-55.18169784545898,-77.79913330078125,-0.4206163883209228,1.1474494934082031,0.80517578125,169.09996032714844,-12.121821403503418,-43.7547492980957,12.356103897094728,-8.901580810546875,-2.1675772666931152,-84.96256256103516,-68.39921569824219,-23.78697204589844,-21.54462432861328,29.380294799804688,6.97559928894043,81.1974868774414,-27.074050903320312,-12.72405242919922,26.701122283935547,-0.2879186868667602,0.5437097549438477,122.8620147705078,-76.1447525024414,156.98785400390625,2.840737819671631,-0.948915958404541,9.084836959838867
426.80482172966,178.65634155273438,-53.56226348876953,-79.34607696533203,-1.434119701385498,0.6683576107025146,2.384241104125977,168.07371520996094,-10.944750785827637,-44.98219680786133,8.316905975341797,-5.508072853088379,-4.469064712524414,-75.9589614868164,-52.43111038208008,-25.227413177490234,-11.26199722290039,23.378585815429688,16.891620635986328,94.72248840332033,-18.54930877685547,-12.55721950531006,21.044586181640625,4.042137145996094,8.747209548950195,128.29595947265625,-75.8072738647461,150.0176239013672,-3.766005039215088,-1.013869285583496,3.5759716033935547
426.8348219394684,-178.72515869140625,-52.85204315185547,-80.30355072021484,-1.0830490589141846,1.2232773303985596,2.359959602355957,169.09645080566406,-14.99775218963623,-44.33598709106445,10.525390625,-0.1913121044635772,-9.457090377807615,-57.25979232788086,-37.343482971191406,-25.42951774597168,0.5030286312103271,8.020763397216797,16.124202728271484,100.5866470336914,-12.810810089111328,-7.529475212097168,14.345748901367188,4.146295547485352,6.726320266723633,136.59823608398438,-75.25804138183594,140.97335815429688,-6.124970436096191,0.5723536014556885,6.781076431274414
