Timestamp,D4:22:CD:00:05:5D_EulerX,D4:22:CD:00:05:5D_EulerY,D4:22:CD:00:05:5D_EulerZ,D4:22:CD:00:05:5D_FreeAccX,D4:22:CD:00:05:5D_FreeAccY,D4:22:CD:00:05:5D_FreeAccZ,D4:22:CD:00:05:5E_EulerX,D4:22:CD:00:05:5E_EulerY,D4:22:CD:00:05:5E_EulerZ,D4:22:CD:00:05:5E_FreeAccX,D4:22:CD:00:05:5E_FreeAccY,D4:22:CD:00:05:5E_FreeAccZ,D4:22:CD:00:05:6B_EulerX,D4:22:CD:00:05:6B_EulerY,D4:22:CD:00:05:6B_EulerZ,D4:22:CD:00:05:6B_FreeAccX,D4:22:CD:00:05:6B_FreeAccY,D4:22:CD:00:05:6B_FreeAccZ,D4:22:CD:00:05:6E_EulerX,D4:22:CD:00:05:6E_EulerY,D4:22:CD:00:05:6E_EulerZ,D4:22:CD:00:05:6E_FreeAccX,D4:22:CD:00:05:6E_FreeAccY,D4:22:CD:00:05:6E_FreeAccZ,D4:22:CD:00:49:AA_EulerX,D4:22:CD:00:49:AA_EulerY,D4:22:CD:00:49:AA_EulerZ,D4:22:CD:00:49:AA_FreeAccX,D4:22:CD:00:49:AA_FreeAccY,D4:22:CD:00:49:AA_FreeAccZ
2399.40767288208,-179.22279357910156,-68.72077178955078,-129.892822265625,0.5309096574783325,0.5342298746109009,-0.3753414154052734,-135.80311584472656,-23.29847526550293,23.565126419067383,5.416528701782227,-4.433623313903809,4.6681413650512695,-15.714940071105955,8.940980911254883,-31.7503604888916,-6.1217451095581055,-7.932164192199707,12.494003295898438,133.4023895263672,-59.80278778076172,25.270566940307617,-5.651859283447266,-3.5069456100463867,7.069919586181641,139.85780334472656,-73.82974243164062,121.60270690917967,-5.997271537780762,2.8205065727233887,4.596397399902344
2399.450677633285,175.08868408203125,-63.12997055053711,-121.9694366455078,-1.1538031101226809,2.046750545501709,-1.234940528869629,-135.6739501953125,-24.67860984802246,21.32350349426269,-8.448156356811523,2.7180957794189453,-8.66866683959961,-55.21479415893555,-32.83924102783203,-69.16534423828125,-0.2861654758453369,1.2764859199523926,-6.017918586730957,-134.28736877441406,-72.45047760009766,-95.91155242919922,4.636050224304199,-4.519688606262207,8.20305061340332,-131.18911743164062,-70.73278045654297,45.89536285400391,4.43902587890625,-2.530451774597168,-0.4523458480834961
2399.510372400284,168.385009765625,-54.20444869995117,-107.2166519165039,5.597104072570801,-1.905257225036621,1.920877456665039,165.65463256835938,-75.82079315185547,21.052640914916992,-3.4958958625793457,-6.110813140869141,20.164081573486328,-57.27212905883789,-25.32417678833008,-65.70611572265625,-2.6462793350219727,2.10390567779541,-1.5660324096679688,-87.87027740478516,-61.63090133666992,-124.84030151367188,-10.410066604614258,3.406381130218506,14.137052536010742,-178.1455535888672,-71.26835632324219,92.09278869628906,4.442312240600586,-1.0396711826324463,0.6763973236083984
2399.5707421302795,171.24093627929688,-52.22010803222656,-107.13947296142578,2.0938453674316406,0.1727020740509033,2.670243263244629,155.63092041015625,-65.24136352539062,30.344287872314453,0.3774901628494262,1.5422394275665283,25.61528778076172,-60.50948715209961,-22.10246467590332,-60.59142303466797,11.755422592163086,-4.345562934875488,17.60784912109375,-85.28191375732422,-57.002418518066406,-120.90325927734376,-12.621740341186523,-10.940143585205078,8.049507141113281,167.181884765625,-67.05587768554688,106.37885284423828,-0.8246254920959473,-0.6952661275863647,11.403427124023438
2399.6002736091614,173.73501586914062,-51.88777160644531,-108.47048950195312,-1.7682063579559326,2.074554443359375,2.134286880493164,157.56951904296875,-55.29805755615234,25.82193374633789,6.092203140258789,4.892509460449219,23.8267822265625,-52.12989807128906,-20.694263458251957,-56.92740631103516,-1.017383337020874,5.654460906982422,21.47052764892578,-81.38699340820312,-57.15570831298828,-118.4915008544922,-9.070356369018556,-15.778268814086914,6.242780685424805,164.92660522460938,-65.28072357177734,108.71965026855467,-2.293674945831299,1.6790904998779297,8.81797981262207
2399.630273580551,175.2449188232422,-52.87369537353516,-110.10419464111328,-1.066589117050171,2.232503890991211,2.2905330657958984,165.6373748779297,-54.10548782348633,18.62775611877441,-1.092297077178955,8.965242385864258,9.409439086914062,-46.3740119934082,-13.095213890075684,-50.69938278198242,4.823233604431152,-8.597320556640625,43.37873840332031,-71.81932830810547,-58.73368453979492,-117.1283187866211,-11.448055267333984,-17.234920501708984,-0.2518281936645508,166.71754455566406,-66.25552368164062,107.48474884033205,-2.636383533477783,5.2135210037231445,9.259719848632812
2399.660274028778,176.1838836669922,-55.42663192749024,-112.01788330078124,1.292492151260376,1.6209475994110107,3.304553985595703,175.71742248535156,-54.0045051574707,8.948854446411133,-3.531010627746582,8.652730941772461,-2.271421432495117,-29.40604782104492,-3.3740792274475098,-43.89567184448242,4.149499893188477,-9.685150146484377,29.47157287597656,-66.57360076904297,-62.283573150634766,-113.85012817382812,-5.373549461364746,-18.04568862915039,-6.320352554321289,170.9502410888672,-69.3403091430664,104.6066436767578,-2.087801933288574,4.711000442504883,9.275548934936523
2399.6898186206818,176.70965576171875,-60.45121765136719,-112.97443389892578,0.5833268165588379,1.8807387351989744,5.566998481750488,-178.27317810058594,-56.119327545166016,-1.1816775798797607,-2.7784299850463867,5.186409950256348,-10.71854019165039,-7.378400802612305,6.570985794067383,-38.82835388183594,5.879833221435547,-16.76242446899414,11.094833374023438,-62.02805709838867,-68.00701904296875,-111.45504760742188,-0.1649896502494812,-11.472885131835938,-8.194570541381836,178.0473175048828,-71.4889144897461,99.71672058105467,-2.692523002624512,5.505423545837402,5.097489356994629
2399.719817876816,172.2396697998047,-69.8656005859375,-111.93937683105467,-7.175702095031738,-4.977543830871582,6.587270736694336,-170.87481689453125,-61.25515365600586,-13.18348503112793,1.8825936317443848,11.083301544189451,-17.740921020507812,11.62458610534668,14.738762855529783,-37.37819290161133,5.554181098937988,-15.906339645385742,3.4114465713500977,-51.41167068481445,-74.50482940673828,-115.03555297851562,2.3632469177246094,-5.006890296936035,-10.425010681152344,-173.41351318359375,-73.38945770263672,93.91616821289062,-2.1744065284729004,3.151187896728516,2.457752227783203
2399.7498190402985,164.11203002929688,-73.44049072265625,-105.1601104736328,3.107995986938477,-0.6937391757965088,0.0288562774658203,-143.41629028320312,-68.98745727539062,-37.019020080566406,4.768853187561035,11.140817642211914,-15.739221572875977,28.370052337646484,22.88301467895508,-39.58502960205078,-1.3695793151855469,-18.914958953857425,-8.041128158569336,-24.438438415527344,-79.35310363769531,-134.1671142578125,2.13731050491333,-4.073086738586426,-9.773000717163086,-162.1350555419922,-74.90985107421875,84.21559143066406,1.1228108406066897,0.658104658126831,-8.045038223266602
2399.7804186344147,164.61070251464844,-68.86428833007812,-99.23018646240234,11.386880874633787,-0.5975357294082642,-3.364891529083252,-98.06442260742188,-70.57485961914062,-78.86088562011719,1.0868043899536133,5.097283363342285,-12.348873138427734,40.46471786499024,29.16823387145996,-40.062950134277344,-4.60280704498291,-16.797531127929688,-9.706853866577148,14.59391975402832,-80.15607452392578,-165.19613647460938,1.750175714492798,-3.4291486740112305,-9.633705139160156,-153.6388397216797,-74.52896118164062,76.3218994140625,3.907710552215576,0.5231229066848755,-13.150203704833984
2399.810418367386,165.68955993652344,-67.73350524902344,-94.73065948486328,3.164249420166016,-15.120124816894531,-19.11402130126953,-66.75677490234375,-64.33707427978516,-111.89061737060548,-3.648500442504883,-3.335791110992432,-9.996543884277344,52.78345489501953,34.85641098022461,-38.37043762207031,-3.5024237632751465,-8.096845626831055,-11.101444244384766,43.90545272827149,-77.95359802246094,173.23289489746094,2.893047332763672,-3.130155563354492,-10.424152374267578,-150.99322509765625,-74.8219223022461,74.40365600585938,0.5250548124313354,1.914214372634888,-6.128353118896484
2399.8704328536987,169.83035278320312,-71.43062591552734,-94.0325164794922,7.314345359802246,7.945244789123535,-6.909475326538086,-52.90147399902344,-56.16678237915039,-131.6447296142578,-11.01917839050293,-8.234580993652344,-7.388363838195801,58.90512466430664,39.09049987792969,-37.58977890014648,1.8688926696777344,3.6367669105529785,-6.065813064575195,61.02581405639648,-74.8249740600586,161.81199645996094,4.425580978393555,-2.9485363960266118,-8.948930740356445,-145.31968688964844,-77.84861755371094,69.14836883544922,-2.272799015045166,-0.9135862588882446,-8.293144226074219
2399.8999621868134,172.50497436523438,-71.75875854492188,-97.4680404663086,-9.08651351928711,17.000144958496094,-0.8575735092163086,-49.70458984375,-49.48257827758789,-144.12168884277344,-17.18582534790039,-9.120216369628906,-8.62613296508789,55.11103439331055,42.7680892944336,-41.60603713989258,-0.0675320029258728,1.0278019905090332,-8.202169418334961,69.81267547607422,-72.2076644897461,156.1090850830078,5.049208641052246,-2.5362133979797363,-7.762285232543945,-137.1836700439453,-79.05479431152344,63.14280319213867,-0.4984380602836609,-3.0833568572998047,-9.817171096801758
2399.930955171585,170.2279510498047,-70.7502670288086,-98.84734344482422,-8.370128631591797,-3.924588680267334,-0.8272485733032227,-48.96017837524414,-45.13541412353516,-152.08006286621094,-17.349624633789062,-1.542219638824463,-5.955263137817383,48.11384582519531,49.06330108642578,-52.81866455078125,1.5175883769989014,2.5564446449279785,-9.222829818725586,71.08299255371094,-71.1137924194336,154.96144104003906,4.528806686401367,-2.895679473876953,-3.9314565658569336,-124.93443298339844,-80.53045654296875,52.41362380981445,-1.0096490383148191,0.4705963730812073,-4.49364185333252
2399.959963083267,168.874267578125,-69.56035614013672,-94.27230072021484,-2.81506872177124,-5.370044708251953,1.3096065521240234,-42.89380645751953,-43.02679061889648,-156.8045654296875,-14.21420669555664,-2.798577785491944,-15.142192840576172,29.39961814880371,55.167457580566406,-75.66484832763672,2.345513343811035,0.7535947561264038,-16.65951156616211,65.62606811523438,-72.21804809570312,158.3689422607422,0.7964475154876709,-2.0008225440979004,2.1859359741210938,-110.35723876953124,-81.64282989501953,38.92292022705078,-0.4617551565170288,-0.0005160913569852,-0.0277366638183593
2399.9905014038086,167.15103149414062,-68.38140869140625,-88.42417907714844,0.2466022968292236,-1.115997076034546,1.2102632522583008,-45.42456817626953,-45.22459030151367,-156.73878479003906,-14.696420669555664,-7.66341495513916,-15.58110809326172,1.5117021799087524,55.05570983886719,-108.73869323730467,-9.035158157348633,-11.577142715454102,-32.375335693359375,63.36840438842773,-75.21607208251953,159.86083984375,1.0059349536895752,-0.6385830640792847,5.486874580383301,-103.1034164428711,-81.86387634277344,30.89240264892578,2.018261432647705,-0.790959358215332,2.5505495071411133
2400.02050113678,162.65614318847656,-67.1817398071289,-82.48350524902344,0.576972246170044,-1.8240461349487305,4.419794082641602,-61.32965469360352,-49.48864364624024,-150.9836883544922,-16.442684173583984,-1.4369804859161377,-12.502418518066406,-19.631935119628903,48.88203048706055,-130.1479949951172,0.4947109222412109,7.136456489562988,-23.45008087158203,70.3266372680664,-79.70067596435547,151.42185974121094,5.958391189575195,-4.264854431152344,5.744685173034668,-107.29522705078124,-82.61509704589844,31.116682052612305,-2.305210590362549,-1.2558927536010742,0.629246711730957
2400.0505051612854,155.55453491210938,-66.62199401855469,-76.55802154541016,-2.431201457977295,-0.4533356428146362,4.068442344665527,-77.04222106933594,-52.65564727783203,-140.94058227539062,1.980586290359497,-11.214189529418944,20.432308197021484,-35.35636138916016,50.03963470458984,-125.65829467773438,-1.000539779663086,10.653528213500977,-6.102426528930664,95.69304656982422,-82.1771469116211,115.17805480957033,5.378684997558594,-3.684687614440918,4.546025276184082,-116.28862762451172,-82.9438705444336,37.65778732299805,-4.723576545715332,0.1066344529390335,3.702922821044922
2400.080044746399,146.78309631347656,-65.9812240600586,-71.1543197631836,1.5810058116912842,-3.0369839668273926,-0.1059694290161132,-76.41795349121094,-55.897216796875,-137.85415649414062,-1.2642278671264648,-11.513771057128906,-1.2724294662475586,-35.38226318359375,55.38914489746094,-110.93473052978516,-8.224849700927734,-3.4625134468078613,-11.663799285888672,117.45905303955078,-80.74018859863281,85.39888763427734,3.069002628326416,11.203424453735352,4.84990119934082,-120.01881408691406,-83.5625228881836,38.92301559448242,0.3373563885688782,-2.9960198402404785,0.6129140853881836
2400.1402072906494,139.88839721679688,-64.1028060913086,-68.27967071533203,3.5894675254821777,-5.621684074401856,2.181703567504883,-80.09062194824219,-58.55580520629883,-134.21627807617188,-6.259577751159668,-14.701286315917969,3.757939338684082,-24.090011596679688,58.80341339111328,-84.85004425048828,-8.800848007202148,-3.0156068801879883,-15.363958358764648,114.45166778564452,-80.74797821044922,70.58222961425781,-7.116312980651856,6.459384918212891,1.0921783447265625,-128.29107666015625,-84.37503814697266,42.82002639770508,6.033331871032715,-2.972165584564209,-0.5883235931396484
2400.170380115509,134.47364807128906,-61.49059677124024,-68.17027282714844,7.565837860107422,-6.310993194580078,2.145657539367676,-92.00973510742188,-59.86296081542969,-127.6247787475586,-6.0870561599731445,-3.722455501556397,0.0069379806518554,-11.24571132659912,53.96186447143555,-56.82390975952149,-4.7555694580078125,-6.189601898193359,-10.27472686767578,109.00808715820312,-80.09063720703125,63.82963562011719,-8.446023941040039,7.1322021484375,-2.018230438232422,-137.9294891357422,-84.59144592285156,46.88254165649414,4.361660003662109,-7.937956809997559,6.386528015136719
2400.2000119686127,134.8546905517578,-58.12633895874024,-72.41007232666016,14.384160995483398,-0.4713886976242065,1.0022869110107422,-98.25340270996094,-60.24432373046875,-121.75376892089844,-2.2717156410217285,-0.3258631825447082,7.559043884277344,-7.904095649719238,43.79841613769531,-40.19686126708984,-2.557348728179932,0.1275708675384521,-6.066753387451172,108.83642578125,-78.69031524658203,65.73101806640625,-9.730440139770508,3.984719276428223,-3.515258312225342,-131.54684448242188,-84.58861541748047,39.093387603759766,-1.5380773544311523,-2.103065490722656,-0.6925973892211914
2400.2300119400024,139.327880859375,-51.73049545288086,-81.294921875,17.771827697753906,12.870061874389648,9.587726593017578,-100.6302261352539,-61.36272048950195,-118.68929290771484,-3.987617492675781,-1.22381329536438,0.708740234375,-15.027594566345217,32.63347244262695,-31.00406646728516,-4.580074310302734,4.452544212341309,-0.8927602767944336,108.53567504882812,-77.32945251464844,72.65436553955078,-10.13959503173828,-1.7722129821777344,-1.8717937469482424,-128.1263427734375,-84.8609619140625,35.854095458984375,4.4129743576049805,5.441651344299316,-4.250716209411621
2400.261011838913,147.47265625,-43.51667404174805,-93.28822326660156,14.526830673217772,3.029486656188965,4.230073928833008,-100.134033203125,-62.96601104736328,-117.35079193115234,-7.160183906555176,-4.194721221923828,-2.5393857955932617,-23.45350646972656,23.007944107055664,-26.343202590942383,-3.945868492126465,-0.510796308517456,9.08307647705078,105.91998291015624,-75.7448501586914,81.14761352539062,-5.565217971801758,-2.300244808197021,1.8475475311279297,-130.7950439453125,-84.79022979736328,38.06231689453125,5.911882400512695,-0.3471423387527466,1.9670610427856443
2400.2955486774445,152.91087341308594,-34.924163818359375,-105.11380767822266,5.119285583496094,-2.7636466026306152,-2.379685401916504,-99.4455108642578,-63.77290344238281,-116.43739318847656,-5.602906227111816,-4.461880683898926,-3.20714807510376,-23.6514835357666,14.448494911193848,-26.315637588500977,-2.808994770050049,4.701693534851074,-2.297255039215088,104.3679656982422,-73.4031753540039,91.99076080322266,0.7355613708496094,3.205350875854492,0.4537220001220703,-125.25543975830078,-84.67137908935547,34.25528335571289,-0.3413438200950622,-0.1279240548610687,1.8790884017944336
2400.3205490112305,158.29403686523438,-26.727975845336918,-115.1590805053711,-1.531299114227295,-1.4784247875213623,-8.421710968017578,-100.6148910522461,-63.8663215637207,-114.004150390625,-4.77262020111084,-4.916399002075195,-3.55691909790039,-25.648334503173828,4.321678161621094,-28.330013275146484,-1.2925567626953125,2.208156108856201,1.837071418762207,105.5668716430664,-70.3972396850586,102.23106384277344,1.686466932296753,-1.9764628410339355,-0.1028375625610351,-127.43451690673828,-84.75006866455078,38.36653518676758,2.0349273681640625,0.3594601154327392,-1.485422134399414
2400.3505423069,165.10379028320312,-20.31561279296875,-123.07360076904295,-3.285755157470703,1.4090087413787842,-10.652202606201172,-103.57374572753906,-63.41642761230469,-110.44914245605467,-4.90712833404541,-3.681139469146729,-1.905156135559082,-27.538028717041016,-7.3002848625183105,-27.621845245361328,-1.8400886058807373,-1.1086266040802002,2.435922622680664,102.61577606201172,-66.21714782714844,109.53663635253906,4.793099403381348,-4.853487014770508,2.4571971893310547,-129.5217742919922,-85.24593353271484,41.89439010620117,4.092241287231445,0.3199734091758728,-1.2059383392333984
2400.3800959587097,170.9060821533203,-17.064144134521484,-130.56312561035156,-10.217546463012695,1.180227756500244,-12.391447067260742,-106.3558120727539,-62.78049850463867,-106.71715545654295,-3.618622779846192,-4.211308479309082,-1.985023498535156,-34.587852478027344,-20.077980041503903,-22.7211856842041,2.346007823944092,3.862026691436768,-4.258728981018066,93.54399871826172,-60.96875381469727,115.7513427734375,5.019243240356445,-2.286266326904297,1.4774665832519531,-122.52442932128906,-85.70471954345703,35.58477783203125,2.9263501167297363,0.3716917634010315,-1.763235092163086
2400.440094470978,168.43536376953125,-18.495582580566406,-137.07225036621094,-13.240854263305664,3.8532462120056152,-15.086698532104492,-109.28301239013672,-61.74068832397461,-102.03136444091795,-3.549309253692627,-2.1954116821289062,-2.7128806114196777,-47.77829360961914,-32.8935661315918,-14.88512897491455,0.932499885559082,-0.7705546617507935,-1.3492441177368164,77.91117858886719,-54.328006744384766,122.75125885009766,4.610041618347168,-3.581146240234375,4.737472534179688,-112.25621032714844,-85.86473846435547,25.592796325683597,2.0550084114074707,-0.1660732626914978,-5.957143783569336
2400.4701130390167,164.12115478515625,-23.51127052307129,-142.03599548339844,-10.784660339355469,-1.5471251010894775,-11.318052291870115,-112.58453369140624,-60.16252517700195,-96.89952850341795,-4.0597333908081055,-3.2641730308532715,-2.2279438972473145,-57.87274169921875,-46.7249641418457,-6.286789417266846,3.621954917907715,-1.1529171466827393,2.6461009979248047,63.067344665527344,-44.80544662475586,128.7176971435547,3.241550922393799,0.2941795587539673,5.763837814331055,-109.80859375,-85.87332153320312,23.428346633911133,3.4554452896118164,-0.0501691177487373,-5.725701332092285
2400.5006523132324,160.4965057373047,-25.682321548461918,-145.5371856689453,-16.820785522460938,5.680864334106445,22.28901672363281,-116.99520111083984,-57.982383728027344,-91.67970275878906,-6.058648109436035,-3.799957752227783,-1.937083721160889,-61.41362762451172,-63.30010986328125,0.3997841477394104,6.621053695678711,0.8812253475189209,16.236373901367188,57.9940185546875,-31.47321128845215,133.40431213378906,4.486106872558594,-0.7743957042694092,14.775396347045898,-111.18006896972656,-85.3412857055664,23.94105339050293,1.928736925125122,-1.395442247390747,-1.6747932434082031
2400.52965259552,160.74049377441406,-24.359619140625,-143.53997802734375,-20.70111846923828,-4.267203330993652,12.277824401855469,-120.32390594482422,-56.1466178894043,-87.37774658203125,-5.833231925964356,-3.2359108924865723,-0.959991455078125,-32.85543441772461,-79.21122741699219,-16.863433837890625,0.9027374982833862,4.027395248413086,34.79175567626953,53.89348983764648,-14.974140167236328,136.88450622558594,7.084445953369141,-3.510670661926269,22.507068634033203,-112.25360870361328,-84.53424835205078,24.247013092041016,-2.273524761199951,-0.394512414932251,2.3347129821777344
2400.560122013092,164.54620361328125,-20.02072525024414,-139.3527374267578,-21.03693389892578,-1.1519150733947754,12.466272354125977,-123.1875,-55.44847869873047,-84.0743637084961,-4.562237739562988,-1.7973077297210691,1.293874740600586,13.846352577209473,-79.51039123535156,-49.780120849609375,5.507502555847168,-0.8050413131713867,8.893417358398438,47.56412506103516,4.811228275299072,138.42730712890625,5.73350715637207,6.217988014221191,19.361347198486328,-124.17628479003906,-84.02355194091797,36.21076583862305,1.613321304321289,-0.0354285910725593,8.26285171508789
2400.5906698703766,166.4423065185547,-13.537832260131836,-134.5712890625,-13.93069839477539,-10.456783294677734,13.159194946289062,-125.70378875732422,-56.2862548828125,-81.30455017089844,-5.933821678161621,-2.7239413261413574,-0.1604251861572265,-14.786246299743652,-72.75923156738281,-18.778881072998047,21.834030151367188,5.863814353942871,5.117669105529785,39.09296417236328,27.28751373291016,139.86927795410156,-3.4352283477783203,10.290359497070312,11.986316680908203,-134.8454132080078,-83.66475677490234,47.11035537719727,3.627290725708008,-3.005746364593506,9.230453491210938
2400.61966919899,164.68028259277344,-6.966139316558838,-131.60121154785156,-12.399715423583984,-6.561637878417969,10.559259414672852,-126.0455551147461,-57.963863372802734,-80.72099304199219,-6.898764610290527,-3.6775870323181152,-1.6288118362426758,-48.2869758605957,-59.2720947265625,0.9831255674362184,18.217952728271484,-5.541325569152832,17.761730194091797,33.016544342041016,47.60200500488281,138.23855590820312,-7.259450912475586,5.019158363342285,7.1112060546875,-135.4594268798828,-84.4190673828125,48.09672927856445,2.129524707794189,0.2977031469345093,8.731483459472656
2400.650669336319,162.3745880126953,-1.9178293943405151,-129.96176147460938,-3.3530726432800293,-4.931423187255859,5.801552772521973,-123.68299102783205,-60.29671859741211,-82.96723175048828,-6.443607330322266,-2.869359970092773,-0.3257083892822265,-54.63458251953125,-46.21955871582031,0.8236324787139893,9.059301376342772,-1.267984390258789,13.44577407836914,24.579784393310547,61.31038284301758,127.97193908691406,-8.29188346862793,0.0296831913292408,6.369413375854492,-142.9716033935547,-85.53480529785156,56.0146713256836,7.712752342224121,0.9141632318496704,9.80426788330078
2400.6802110672,160.87246704101562,0.7382783889770508,-130.25563049316406,7.044871330261231,-2.653049945831299,2.282479286193848,-117.68820190429688,-63.16565704345703,-89.3037338256836,-9.022762298583984,-5.19671630859375,-1.0876836776733398,-49.84954452514648,-38.69578170776367,-5.492206573486328,7.179903984069824,-3.2746028900146484,-0.9425878524780272,10.12444019317627,70.52909851074219,109.82823181152344,-9.15180206298828,-3.482849597930908,-0.2087135314941406,-167.2729949951172,-87.26476287841797,78.00448608398438,13.242891311645508,0.910406231880188,9.85329818725586
2400.7102105617523,157.83627319335938,1.3834753036499023,-133.23208618164062,6.987978935241699,-0.2837579250335693,-2.2382707595825195,-105.078857421875,-65.32199096679688,-103.3395767211914,-11.033729553222656,-8.659730911254883,-0.2143211364746093,-47.80216979980469,-37.03038787841797,-11.37154483795166,2.673520088195801,-1.548464059829712,-6.490396499633789,-5.287857055664063,75.1681900024414,88.07319641113281,-0.0523041784763336,-5.046804428100586,-5.254297256469727,111.7213897705078,-87.51557159423828,154.26882934570312,3.4454541206359863,0.0615691021084785,5.597418785095215
2400.7702162265778,155.48599243164062,0.3726287484169006,-137.88194274902344,4.499448776245117,-0.1051882058382034,-12.647300720214844,-82.95729064941406,-65.72965240478516,-125.90049743652344,-4.361176490783691,-19.58527374267578,8.544757843017578,-48.53681564331055,-40.96577835083008,-17.80194854736328,-0.5024819374084473,-0.3315147757530212,0.8400478363037109,-11.603264808654783,77.199951171875,72.97655487060547,-7.1461944580078125,-3.995819568634033,-9.757646560668944,81.83831787109375,-84.32563018798828,179.37567138671875,-3.607080459594727,1.3656532764434814,-3.364621639251709
2400.799914121628,156.8501434326172,-2.333636522293091,-142.36802673339844,-2.269301414489746,2.449057102203369,-19.503448486328125,-59.61395263671875,-64.38931274414062,-143.5480194091797,-5.441793441772461,4.147168159484863,-6.864752769470215,-44.164398193359375,-47.99018859863281,-26.873554229736328,-0.2888622283935547,-1.3156626224517822,-1.223423957824707,-3.690122127532959,80.04548645019531,75.3359375,-2.117845058441162,-1.7172889709472656,-11.642066955566406,82.83429718017578,-81.45674896240234,174.18576049804688,-0.2225939333438873,-1.0047919750213623,-7.913162231445312
2400.8299131393437,160.3603515625,-7.922781467437744,-145.66111755371094,-7.641321182250977,2.2474865913391118,-24.535724639892575,-56.14886474609375,-65.9052963256836,-141.62533569335938,-25.110576629638672,-16.405807495117188,-22.86410140991211,-39.17951583862305,-54.79100799560547,-37.336727142333984,-1.22556734085083,-1.985220193862915,-6.632413864135742,39.18297576904297,82.25215148925781,115.59220886230467,2.8679323196411133,-2.552013397216797,-12.561901092529297,88.10975646972656,-80.26940155029297,165.86630249023438,-0.7108324766159058,0.4393649101257324,-9.331329345703123
2400.8599174022675,163.65367126464844,-17.806631088256836,-147.43426513671875,-10.39743423461914,0.6601626873016357,-24.537635803222656,-85.7718276977539,-69.25863647460938,-124.08430480957033,7.339908599853516,-5.130298614501953,-8.514610290527344,-34.687110900878906,-60.08305740356445,-48.23011016845703,-4.068575859069824,1.5200214385986328,-5.537650108337402,90.3625030517578,74.55216979980469,164.18353271484375,-2.99746322631836,-1.633448362350464,-19.458667755126957,87.14410400390625,-80.07098388671875,164.6768798828125,-1.1625580787658691,-1.637481451034546,-7.334786415100098
2400.8904569149017,164.22169494628906,-32.4951286315918,-148.39842224121094,-14.436386108398438,-0.1986665725708007,-16.663654327392578,-100.73233032226562,-69.7542495727539,-116.73616027832033,8.65927505493164,-0.582188606262207,-4.880229949951172,-27.811418533325195,-63.53816223144531,-59.93232345581055,-3.2907967567443848,1.6730315685272217,-7.28531551361084,100.98527526855467,60.84625625610352,176.06610107421875,-23.96384048461914,1.372020244598389,-27.694168090820312,75.0737075805664,-79.85237121582031,174.3461151123047,-0.3205888271331787,0.6369781494140625,-8.40414047241211
2400.9204568862915,160.13185119628906,-51.23493194580078,-148.89056396484375,-13.755218505859377,0.3888079524040222,-5.767447471618652,-99.2275161743164,-70.51139068603516,-118.16425323486328,-2.8982462882995605,14.054241180419922,4.634135246276856,-21.917116165161133,-65.51377868652344,-70.21106719970703,-1.8458044528961184,1.0419838428497314,-7.087664604187012,91.3832550048828,57.42573928833008,176.0926055908203,-7.162980079650879,-8.130561828613281,-2.7664108276367188,66.63060760498047,-79.03071594238281,179.61329650878906,1.827324628829956,3.521131992340088,-9.760259628295898
2400.950456380844,155.6171112060547,-72.49581909179688,-148.81350708007812,-10.009332656860352,-2.062960147857666,13.937932968139648,-107.98307800292967,-68.48928833007812,-111.40253448486328,6.534845352172852,5.571209907531738,3.890878677368164,-16.89073371887207,-66.06857299804688,-79.19679260253906,-3.0247392654418945,3.312999725341797,-4.694433212280273,65.4775161743164,65.62008666992188,161.00067138671875,-11.000194549560549,6.212761878967285,-18.26688766479492,64.46851348876953,-78.17172241210938,177.66444396972656,1.5272316932678225,-1.1235766410827637,-5.37431526184082
2400.979994535446,-29.358110427856445,-83.34430694580078,35.53699493408203,14.72543716430664,-4.517888069152832,46.126708984375,-121.58074188232422,-64.3813247680664,-104.72705078125,-1.857018232345581,-2.1067609786987305,1.3762578964233398,-12.35953426361084,-65.47286987304688,-87.40454864501953,-0.4153369665145874,1.3745741844177246,-6.156575202941895,12.547451972961426,75.56050872802734,115.94154357910156,-5.102210998535156,3.996006488800049,-27.47024154663086,67.02901458740234,-78.68997192382812,173.60154724121094,-2.375363349914551,-2.8360538482666016,-3.852513313293457
2401.0100095272064,-10.17318344116211,-68.86060333251953,31.5769100189209,28.878585815429688,29.15087890625,-9.84990692138672,-131.9011688232422,-60.22576904296875,-100.13129425048828,-10.197179794311523,-13.803020477294922,-9.841819763183594,-7.569613456726074,-64.9289779663086,-95.93187713623048,-0.97926926612854,2.482888698577881,-4.454797744750977,-51.17464828491211,66.72056579589844,52.970096588134766,8.427927017211914,10.70087432861328,-15.79952621459961,64.61681365966797,-80.10248565673828,176.29754638671875,0.0569865256547927,2.4354963302612305,-5.329453468322754
2401.070024251938,-1.2446986436843872,-69.89630126953125,23.760841369628903,20.467613220214844,10.400592803955078,-0.3541316986083984,-136.4075164794922,-56.88290023803711,-98.5210189819336,-8.052682876586914,-5.643414497375488,-1.6192121505737305,-4.437992095947266,-64.18496704101562,-103.8189468383789,0.2000668346881866,0.8614339828491211,-1.4399099349975586,-59.093021392822266,50.003936767578125,34.73917770385742,3.946389198303223,0.3867945075035095,-1.836470603942871,75.36373138427734,-82.87922668457031,167.01617431640625,1.2924296855926514,-7.736039161682129,1.0123052597045898
2401.100554466248,22.90145492553711,-77.55913543701172,0.4138636887073517,21.934017181396484,9.786859512329102,2.490079879760742,-134.49913024902344,-56.04563903808594,-100.70830535888672,-2.924724578857422,-2.987002372741699,6.831884384155273,-5.638252258300781,-64.81440734863281,-109.897705078125,-2.7438669204711914,2.1424460411071777,2.834395408630371,-55.85430908203125,34.23474884033203,27.648775100708008,7.547930717468262,-0.3797199130058288,1.6768245697021484,96.49087524414062,-84.6436538696289,144.1432342529297,5.704277038574219,-1.5168559551239014,14.100725173950195
2401.1307146549225,87.36388397216797,-79.20950317382812,-60.49959564208984,7.787314414978027,-2.586881637573242,5.828660011291504,-129.89463806152344,-57.39073944091797,-105.20733642578124,-6.1935224533081055,-9.256170272827148,8.007820129394531,-2.373150110244751,-67.21273803710938,-117.01492309570312,-3.683328151702881,4.565950393676758,4.063347816467285,-41.14757537841797,24.82565116882324,22.44779586791992,20.74448013305664,-18.600360870361328,33.4991455078125,113.68205261230467,-85.00675964355469,126.74879455566406,-1.910341024398804,3.773094654083252,6.7850189208984375
2401.1607093811035,127.09635162353516,-72.25863647460938,-92.6305694580078,-4.884130477905273,-14.22959327697754,1.4434051513671875,-117.64287567138672,-60.57644271850586,-114.15753936767578,-3.7360901832580566,-10.280458450317385,2.393864631652832,8.791988372802734,-71.50776672363281,-126.71520233154295,-3.9935107231140137,2.732460021972656,5.490579605102539,-4.610606670379639,27.408737182617188,25.824222564697266,-0.6730800867080688,-17.971721649169922,-14.992862701416016,151.59873962402344,-85.03019714355469,92.96593475341795,-3.0477027893066406,1.0336978435516355,3.325542449951172
2401.1903405189514,134.78761291503906,-70.96826171875,-97.6065902709961,-10.28076171875,-15.18086051940918,-9.016382217407228,-102.19432067871094,-60.03117370605469,-122.97881317138672,-6.067787170410156,-7.8412580490112305,-4.0225982666015625,27.82701873779297,-76.78009033203125,-142.02377319335938,-4.388163566589356,0.9204645156860352,8.617599487304688,10.87733268737793,31.439790725708008,37.16632080078125,-15.344099044799805,12.264089584350586,-11.626901626586914,-179.88218688964844,-83.4483871459961,73.22760009765625,-0.6254340410232544,-1.7091279029846191,0.9162321090698242
2401.220340490341,141.00241088867188,-73.12904357910156,-104.38726043701172,-4.897807121276856,-3.1794629096984863,3.579864501953125,-89.52005767822266,-57.51190948486328,-125.92616271972656,-14.359346389770508,5.085951805114746,-0.0713872909545898,60.92435836791992,-80.92992401123047,-170.45750427246094,-4.289009094238281,3.66841459274292,6.702104568481445,24.432586669921875,32.901161193847656,48.29338836669922,10.990360260009766,-3.576052665710449,-3.652806282043457,-171.2598876953125,-80.5138168334961,72.92514038085938,0.2022753059864044,-4.979815483093262,-5.293035507202148
2401.250340461731,150.82720947265625,-74.04644775390625,-110.76927185058594,-3.193816661834717,-4.971183776855469,2.7963743209838867,-82.40532684326172,-54.39507675170898,-121.11324310302734,-26.5229606628418,1.1255486011505127,-1.690877914428711,104.9134292602539,-81.74740600585938,153.66944885253906,-1.656165599822998,5.314864158630371,0.8635158538818359,51.63566589355469,31.333179473876957,55.60616683959961,-14.834030151367188,3.1705565452575684,-2.541658401489258,-172.20864868164062,-77.33447265625,79.76132202148438,0.1865018904209137,1.2304277420043943,-3.3594841957092285
2401.2798659801483,160.2639923095703,-73.99923706054688,-115.86023712158205,-3.578598022460937,1.3747568130493164,3.064936637878418,-84.82315063476562,-51.616790771484375,-107.99002075195312,-21.66514205932617,-6.907588958740234,-7.1909685134887695,138.37890625,-82.08135986328125,131.49835205078125,-1.840576410293579,1.1273329257965088,-4.605305671691895,70.49600219726562,23.787569046020508,58.34037399291992,-10.150995254516602,-0.4642783999443054,3.4952545166015625,-178.03311157226562,-76.23111724853516,86.08075714111328,0.9958275556564332,1.4586493968963623,-0.2818937301635742
2401.3398814201355,166.89918518066406,-72.7970962524414,-122.73895263671876,2.008843421936035,-3.7634482383728023,0.5044641494750977,-91.28358459472656,-49.5418815612793,-92.36750030517578,-12.22593116760254,-8.24504280090332,-14.624666213989258,167.85638427734375,-83.07230377197266,111.37947845458984,0.9088283777236938,-2.749773502349853,-3.852966785430908,81.5404281616211,11.77292251586914,57.11734390258789,-1.440833568572998,-0.1153380423784256,1.7843761444091797,177.37599182128906,-74.33486938476562,90.71912384033205,-1.5056581497192385,0.0071177696809172,-1.373260498046875
2401.3698966503143,172.47332763671875,-71.28126525878906,-129.9727020263672,0.7168513536453247,1.144850730895996,-0.397735595703125,-100.57195281982422,-47.78496170043945,-76.22757720947266,-5.625148773193359,-6.083940505981445,-19.72635269165039,-174.50669860839844,-84.22810363769531,96.65326690673828,-1.4172687530517578,-1.6908831596374512,-1.2127580642700195,89.23145294189453,-3.4830822944641118,54.06846618652344,3.308788776397705,4.306290626525879,1.0832138061523438,175.0248260498047,-72.33300018310547,94.34346771240234,-4.07148551940918,3.445883274078369,0.0144205093383789
2401.4002437591557,175.76022338867188,-69.67774200439453,-134.05596923828125,0.3342890739440918,-0.9553463459014891,-0.2494421005249023,-114.24977111816406,-46.11659622192383,-60.261173248291016,-0.4342585206031799,-2.791153907775879,-18.60157012939453,-165.74363708496094,-86.79032897949219,86.50452423095703,-3.4261584281921387,-3.569149971008301,1.1645774841308594,90.36559295654295,-21.46048164367676,50.85608673095703,6.703405380249023,6.374835968017578,10.490285873413086,172.48788452148438,-71.15874481201172,97.21559143066406,-2.6315598487854004,2.7066845893859863,0.997450828552246
2401.430243968964,178.18043518066406,-67.78555297851562,-135.14288330078125,0.3894006609916687,-1.7196624279022217,-0.0950574874877929,-129.15008544921875,-44.51908493041992,-46.75725936889648,2.442807674407959,0.1108719557523727,-13.627704620361328,-74.56982421875,-88.05097198486328,-9.609813690185549,-2.731712818145752,-4.270064353942871,-0.1175975799560546,74.94149017333984,-41.670989990234375,51.91664505004883,14.174949645996094,10.295961380004885,23.44768524169922,168.45396423339844,-70.64148712158203,101.47488403320312,-0.7925914525985718,2.481445789337158,-1.5767393112182615
2401.4602432250977,179.55751037597656,-65.20339965820312,-133.86573791503906,0.0987308025360107,0.3304005265235901,-0.8009233474731445,-141.5907745361328,-45.05623626708984,-37.56607818603516,4.662095069885254,-1.551482915878296,-9.011672973632812,-50.87017440795898,-82.83084106445312,-39.94397735595703,-5.582979202270508,-1.4592092037200928,-0.4487371444702148,49.41638946533203,-55.3135871887207,60.26277923583984,5.6463823318481445,8.649444580078125,20.389869689941406,162.79090881347656,-70.29859924316406,106.48741912841795,-1.84134578704834,1.6601645946502686,-1.1301517486572266
2401.4904017448425,177.46047973632812,-62.073368072509766,-131.2599334716797,-2.3966550827026367,-5.243049621582031,2.082172393798828,-149.19981384277344,-48.96104431152344,-31.115013122558597,4.3546142578125,-4.136416435241699,0.6073083877563477,-53.83665084838867,-75.4885482788086,-42.96609878540039,-4.34873104095459,-1.8193297386169436,-2.960956573486328,41.27597427368164,-57.46639251708984,60.16020965576172,20.28479385375977,-1.037083625793457,-5.240433692932129,157.1532440185547,-70.78678131103516,111.76895904541016,-2.915224552154541,0.9558546543121338,-1.7435598373413086
2401.520401239395,175.40843200683594,-57.97906494140625,-128.0237274169922,-3.043015956878662,2.106168746948242,-0.093052864074707,-148.76785278320312,-57.44947814941406,-29.1533145904541,16.611072540283203,0.0676573663949966,-1.685150146484375,-63.19701766967773,-66.6885757446289,-42.18408966064453,-6.883444786071777,1.3426387310028076,-4.088473320007324,50.44262313842773,-55.77253341674805,57.83850860595703,16.786705017089844,8.879886627197266,-4.988924026489258,153.41209411621094,-72.11859893798828,115.52904510498048,0.9830853939056396,0.8120317459106445,-2.651230812072754
