Timestamp,D4:22:CD:00:05:5D_EulerX,D4:22:CD:00:05:5D_EulerY,D4:22:CD:00:05:5D_EulerZ,D4:22:CD:00:05:5D_FreeAccX,D4:22:CD:00:05:5D_FreeAccY,D4:22:CD:00:05:5D_FreeAccZ,D4:22:CD:00:05:5E_EulerX,D4:22:CD:00:05:5E_EulerY,D4:22:CD:00:05:5E_EulerZ,D4:22:CD:00:05:5E_FreeAccX,D4:22:CD:00:05:5E_FreeAccY,D4:22:CD:00:05:5E_FreeAccZ,D4:22:CD:00:05:6B_EulerX,D4:22:CD:00:05:6B_EulerY,D4:22:CD:00:05:6B_EulerZ,D4:22:CD:00:05:6B_FreeAccX,D4:22:CD:00:05:6B_FreeAccY,D4:22:CD:00:05:6B_FreeAccZ,D4:22:CD:00:05:6E_EulerX,D4:22:CD:00:05:6E_EulerY,D4:22:CD:00:05:6E_EulerZ,D4:22:CD:00:05:6E_FreeAccX,D4:22:CD:00:05:6E_FreeAccY,D4:22:CD:00:05:6E_FreeAccZ,D4:22:CD:00:49:AA_EulerX,D4:22:CD:00:49:AA_EulerY,D4:22:CD:00:49:AA_EulerZ,D4:22:CD:00:49:AA_FreeAccX,D4:22:CD:00:49:AA_FreeAccY,D4:22:CD:00:49:AA_FreeAccZ
2320.081047058105,168.41964721679688,-51.54788589477539,-101.2378158569336,4.002835273742676,-0.5208662748336792,1.9688940048217771,-165.24481201171875,-50.2818603515625,-9.623224258422852,1.2763631343841553,2.29481840133667,3.6106204986572266,-62.39847183227539,-33.29446029663086,-127.66072082519533,5.54556941986084,5.989264488220215,10.0362548828125,38.95329284667969,-61.94422912597656,38.46653747558594,-1.1516070365905762,13.526107788085938,17.017364501953125,150.73619079589844,-73.2659912109375,139.0522918701172,-0.2406264543533325,-1.7109172344207764,8.206537246704102
2320.0840475559235,169.61685180664062,-50.296573638916016,-100.16553497314452,-1.0408656597137451,1.764655590057373,1.6089019775390625,-162.43161010742188,-52.67208862304688,-12.917983055114746,-1.424777269363403,3.655210494995117,-2.584192276000977,-65.66170501708984,-22.287036895751957,-121.63861846923828,13.175670623779297,-2.1563820838928223,18.7971305847168,45.64072799682617,-54.76980972290039,50.61272811889648,-7.145946502685547,15.8260498046875,3.178394317626953,150.61390686035156,-72.18954467773438,140.07875061035156,1.7217042446136477,-0.0773698985576629,9.619211196899414
2320.087564945221,170.79348754882812,-50.116477966308594,-99.61366271972656,-2.2027430534362797,2.15224838256836,2.477078437805176,-157.66207885742188,-58.58134460449219,-18.541683197021484,-1.5518474578857422,6.475595474243164,-8.049165725708008,-59.99446487426758,-10.870624542236328,-115.78569793701172,10.035783767700195,-10.37493896484375,23.40753173828125,47.03260040283203,-51.95989608764648,62.33475112915039,-6.661847114562988,3.681319713592529,1.2899913787841797,147.94395446777344,-72.4503402709961,142.64283752441406,-4.360213279724121,0.7994258403778076,7.260416030883789
2320.0905809402466,171.52914428710938,-51.30185317993164,-99.55175018310548,-0.6532753705978394,1.9856975078582764,2.699026107788086,-149.6763916015625,-65.47472381591797,-28.98513412475586,-0.2876797914505005,4.173887252807617,-9.20171356201172,-51.67878723144531,-0.0180470701307058,-112.04869842529295,1.6401355266571045,-9.967559814453123,12.972345352172852,48.689598083496094,-51.515262603759766,77.38460540771484,-8.275442123413086,2.945908069610596,-4.081857681274414,146.7905731201172,-73.29205322265625,144.3380889892578,-8.542116165161133,1.4098186492919922,9.220176696777344
2320.135580539704,-167.17178344726562,-75.685302734375,-112.64004516601562,1.1832990646362305,4.597457885742188,0.0006446838378906,25.652597427368164,-78.08251953125,-172.43556213378906,-14.818134307861328,6.097420692443848,26.7859001159668,-77.79046630859375,-41.63872528076172,-89.46060943603516,2.410001754760742,-0.343061089515686,4.536264419555664,-28.74335479736328,-65.92888641357422,172.873046875,-7.492266654968262,-1.9182796478271484,6.9033203125,-77.55714416503906,-71.6932373046875,-0.6868605017662048,8.280254364013672,1.0687191486358645,-1.1676788330078125
2320.1657350063324,-175.96693420410156,-69.22941589355469,-102.53234100341795,1.5548217296600342,3.0055103302001958,0.2063484191894531,-81.20653533935547,-84.77119445800781,-63.43901443481445,0.8023000955581665,-2.552963733673096,24.02241516113281,-76.02496337890625,-37.3692512512207,-95.95061492919922,4.48119068145752,2.933309555053711,30.368453979492188,7.493029117584228,-74.21244049072266,135.63319396972656,5.810729026794434,9.740732192993164,11.187652587890623,-58.81303787231445,-80.14815521240234,-18.94188690185547,2.7009119987487797,-4.513008117675781,5.4164628982543945
2320.196276664734,-179.14300537109375,-63.948509216308594,-96.56381225585938,-0.550047755241394,5.02609920501709,1.6630229949951172,-143.6761932373047,-79.4535903930664,4.32466983795166,2.60867691040039,-8.072221755981445,15.028968811035156,-71.89833068847656,-27.00183486938477,-98.01724243164062,-2.369102478027344,0.512710452079773,32.40602111816406,-5.341887474060059,-77.25423431396484,155.67202758789062,2.7076234817504883,7.636857032775879,11.508668899536133,-70.19477081298828,-85.56526947021484,-5.373480319976807,-0.6271286010742188,-6.419486045837402,9.63224983215332
2320.2258265018463,179.1399688720703,-60.71521759033203,-92.1390380859375,-2.8698501586914062,3.929522037506104,1.9865226745605469,170.13345336914062,-73.27025604248047,51.689674377441406,-0.9876387119293212,-2.312417507171631,11.698892593383787,-68.56688690185547,-13.301739692687988,-94.98099517822266,-0.7450375556945801,-5.508851051330566,30.60780334472656,-15.356958389282228,-76.58246612548828,176.9046173095703,-12.015830993652344,-6.759156227111816,9.58625030517578,-114.79524993896484,-85.88143920898438,42.07639694213867,3.1681013107299805,-0.4833270907402038,10.284708023071287
2320.255825996399,178.28909301757812,-59.2320556640625,-89.835205078125,-3.69564151763916,2.895141124725342,2.0117483139038086,158.4498748779297,-67.67764282226562,66.11585235595703,-6.121132850646973,3.64973783493042,2.938727378845215,-62.478492736816406,0.847083568572998,-89.73245239257812,-2.0011754035949707,-12.542364120483398,16.163738250732422,17.598464965820312,-79.1206283569336,151.42674255371094,-5.987638473510742,-5.173609733581543,12.822393417358398,-125.33140563964844,-85.21463775634766,54.704837799072266,3.662327289581299,3.781683444976807,7.201122283935547
2320.2858397960663,177.99708557128906,-59.58657836914063,-88.8708724975586,-2.561380386352539,2.791874408721924,2.3270740509033203,156.33905029296875,-66.33096313476562,69.69647979736328,-5.065616607666016,5.5395050048828125,-5.082122802734375,-50.28733825683594,11.965662956237791,-87.00941467285156,-3.255836009979248,-18.90921401977539,12.467681884765623,47.18294525146485,-75.54820251464844,134.32315063476562,-2.4650702476501465,1.8527686595916748,2.7781124114990234,-120.55078125,-85.12777709960938,51.258182525634766,-0.9282453060150146,2.744260787963867,5.967830657958984
2320.3163669109344,177.7377471923828,-61.76114654541016,-88.86347198486328,-2.847660541534424,2.7074460983276367,4.24840259552002,154.6028594970703,-68.5229721069336,69.7476806640625,-2.6282758712768555,4.794363021850586,-9.011014938354492,-30.509981155395508,21.152894973754883,-90.0640869140625,-10.656623840332031,-7.541920661926269,-11.404901504516602,45.96842193603516,-73.81790161132812,153.6202392578125,-9.10590934753418,-10.922283172607422,-14.647903442382812,-110.4601593017578,-84.98155975341797,42.53614807128906,-3.33999252319336,-0.8595675230026245,-0.4741783142089844
2320.376376390457,175.61695861816406,-65.13584899902344,-86.98817443847656,0.930004358291626,-3.531212329864502,9.343496322631836,150.31246948242188,-74.31246185302734,70.37140655517578,-2.2868199348449707,6.5862884521484375,-11.906244277954102,-17.422826766967773,29.74369430541992,-95.27266693115234,-6.701027870178223,2.6846065521240234,-15.037662506103516,31.650192260742188,-73.70594024658203,177.62835693359375,-2.605454921722412,-15.91522979736328,-11.560413360595703,-109.32113647460938,-83.98954010009766,44.27184295654297,-1.329430103302002,-2.112257480621338,-6.784685134887695
2320.4059178829198,167.8985595703125,-70.09281158447266,-85.91624450683594,-2.265681266784668,-1.996176481246948,-0.2838382720947265,139.33792114257812,-83.08389282226562,78.30279541015625,-2.160435199737549,5.112284660339356,-13.717714309692385,-13.664670944213867,37.60568618774414,-101.7724838256836,-6.3370466232299805,-1.7677128314971924,-11.146665573120115,16.37434196472168,-73.41273498535156,-162.5042266845703,1.1420893669128418,-7.652287483215332,-8.284997940063477,-111.98218536376952,-82.6055908203125,48.67964553833008,3.884861946105957,-0.4985430836677551,-7.798935890197754
2320.435918092728,161.96463012695312,-69.82325744628906,-83.83112335205078,3.8447346687316895,-3.016784191131592,-6.523594856262207,10.681934356689451,-85.80357360839844,-156.0024871826172,-1.8948287963867188,0.6276606321334839,-12.19735336303711,-12.70332145690918,44.733680725097656,-112.24112701416016,-9.221185684204102,-0.7794022560119629,-13.033649444580078,9.626351356506348,-72.22701263427734,-148.58230590820312,5.803916931152344,-5.337040901184082,-4.829562187194824,-110.71275329589844,-82.14154815673828,47.63934326171875,1.6689984798431396,2.043525695800781,-8.957582473754883
2320.4659175872803,161.97142028808594,-71.09424591064453,-83.25497436523438,7.915546417236328,-10.727998733520508,-14.652997970581056,-11.660075187683104,-75.9621353149414,-137.34515380859375,-4.136541366577148,-3.502298355102539,-9.140302658081056,-13.874872207641602,49.72224044799805,-129.2929229736328,-6.619405746459961,0.6727809906005859,-16.215084075927734,17.466955184936523,-69.94977569580078,-146.24920654296875,9.551801681518556,-6.939798355102539,-4.935538291931152,-104.29949951171876,-82.69381713867188,41.918495178222656,-1.9664556980133057,1.0844168663024902,-8.281881332397461
2320.496463537216,162.6448516845703,-75.00387573242188,-84.32633972167969,-7.546514511108398,16.00348663330078,0.7171564102172852,-18.13335227966309,-67.25127410888672,-137.68702697753906,-9.62124252319336,-14.579280853271484,-6.895757675170898,-19.888063430786133,50.85905075073242,-151.5652618408203,-4.831851005554199,0.2023425102233886,-20.22735595703125,32.328372955322266,-66.56891632080078,-152.09970092773438,10.512800216674805,-7.719227790832519,-6.230088233947754,-100.25220489501952,-83.32662200927734,38.83122253417969,0.0491539612412452,1.5537827014923096,-6.519124031066895
2320.5264632701874,160.8367156982422,-74.04676818847656,-83.64764404296875,-4.35684871673584,6.726474761962891,-1.3187990188598633,-30.278400421142575,-62.77260208129883,-138.06854248046875,-18.17779922485352,-17.888103485107422,-5.818728446960449,-30.149641036987305,47.025856018066406,-171.28330993652344,-1.831552267074585,-0.4848709106445312,-21.734638214111328,37.52626037597656,-63.23804473876953,-155.9221649169922,4.40489387512207,-2.774083137512207,-5.512006759643555,-104.07640075683594,-83.90963745117188,42.9741096496582,1.271754026412964,1.734635591506958,-0.3580284118652344
2320.5557198524475,160.61624145507812,-72.30431365966797,-79.92376708984375,0.8022900819778442,1.446593999862671,0.1697511672973632,-43.295108795166016,-64.06046295166016,-134.03045654296875,-38.29671478271485,-9.339508056640623,-20.448184967041016,-43.28949737548828,41.17179870605469,-179.97840881347656,1.0981624126434326,3.087348461151123,-15.576929092407228,38.084510803222656,-60.77259826660156,-156.2589569091797,2.182197570800781,-3.0708999633789062,-4.867537498474121,-113.89370727539062,-84.97987365722656,51.03053665161133,1.2018697261810305,1.235578536987305,2.737709045410156
2320.5858414173126,159.03805541992188,-70.79422760009766,-75.1574935913086,3.768001079559326,1.326991081237793,0.0183782577514648,-55.536231994628906,-70.00929260253906,-123.88821411132812,2.5789451599121094,-11.267532348632812,-1.0094661712646484,-55.35989761352539,39.43848419189453,-178.46324157714844,2.5063843727111816,1.633448839187622,-3.495180606842041,38.5302848815918,-59.99824142456055,-154.2932891845703,2.028931140899658,-3.4689440727233887,-3.814475536346436,-122.14459228515624,-86.32875061035156,55.26107406616211,-2.2972617149353027,-2.295835494995117,1.4553680419921875
2320.616375684738,155.60694885253906,-70.15215301513672,-69.64744567871094,0.7404844760894775,-1.8468680381774905,3.967144966125488,-49.81560516357422,-73.90217590332031,-124.0749740600586,8.209653854370117,-17.828575134277344,4.489297866821289,-51.31776809692383,38.14834213256836,-176.14376831054688,0.5429370403289795,5.48851490020752,-1.838193655014038,38.37217330932617,-61.474727630615234,-149.79049682617188,4.764250755310059,-3.850042819976807,-3.4883084297180176,-125.67882537841795,-87.4548568725586,55.38130569458008,-5.139155387878418,-3.356686592102051,4.526979446411133
2320.6763899326324,150.96005249023438,-69.34412384033203,-63.216583251953125,-2.201488494873047,-3.2035369873046875,5.051790237426758,-67.49333190917969,-76.61385345458984,-111.26493072509766,-5.342896461486816,5.812135696411133,13.138189315795898,-42.82556915283203,35.29032516479492,-173.95077514648438,5.555505752563477,-2.924479961395264,-10.608379364013672,34.856285095214844,-65.99420928955078,-142.8740692138672,7.504208564758301,-4.212490081787109,0.1064624786376953,-131.06687927246094,-87.6825180053711,57.69318008422852,-1.1070740222930908,-3.1502327919006348,3.4570846557617188
2320.70592546463,144.9871368408203,-68.32575225830078,-57.43732070922852,-0.4069495797157287,0.0131233390420675,2.766037940979004,-84.27958679199219,-78.42849731445312,-98.23085021972656,-3.3941359519958496,1.713484764099121,-0.6460933685302734,-43.17397689819336,34.8045539855957,-167.13394165039062,-3.947299957275391,4.569072723388672,0.379460334777832,20.20160675048828,-72.29978942871094,-130.56735229492188,7.622090339660644,-6.532024383544922,5.133360862731934,-132.78176879882812,-87.05976104736328,54.76465225219727,4.838014602661133,-4.189970970153809,1.5237665176391602
2320.735917568207,136.45445251464844,-67.96085357666016,-53.18893814086914,5.735604286193848,-2.0038070678710938,3.927382469177246,-89.11531829833984,-80.69467163085938,-93.1482391357422,-4.494559288024902,-4.626400947570801,0.4800939559936523,-37.58499526977539,35.77611541748047,-154.57455444335938,-12.131492614746094,4.648187637329102,-4.255501747131348,3.3104028701782227,-75.95384979248047,-117.45846557617188,7.946963310241699,-3.604839324951172,7.704534530639648,-131.23635864257812,-86.25895690917969,48.91353988647461,6.4757080078125,0.0006660686340183,-0.9971256256103516
2320.7659254074097,131.2638702392578,-66.8916015625,-55.55413055419922,9.042032241821287,0.0858614891767501,2.704559326171875,-93.91059112548828,-82.20147705078125,-89.08706665039062,-3.965752124786377,-5.235653877258301,-1.4566450119018557,-29.461673736572266,34.78559875488281,-136.16647338867188,-13.49036979675293,2.03816556930542,-2.5355753898620605,-7.061538696289063,-77.43457794189453,-114.75047302246094,2.443793773651123,-8.110916137695312,1.7301654815673828,-142.14002990722656,-86.10428619384766,56.9556770324707,6.260870933532715,1.2384607791900637,-1.1158561706542969
2320.7957429885864,132.36753845214844,-64.87664794921875,-66.55525970458984,12.628385543823242,11.665634155273438,5.527275085449219,-95.91999816894533,-83.05550384521484,-89.17475128173828,-4.316928863525391,-1.5315098762512207,0.6029558181762695,-20.98533821105957,29.628664016723636,-117.68071746826172,-10.178611755371094,3.5549235343933105,0.154205322265625,-10.88073444366455,-79.27178192138672,-120.16139221191406,-5.143375396728516,-6.27486515045166,1.6420793533325195,-156.5754852294922,-84.57508850097656,69.2708511352539,-2.1467738151550293,-1.0924253463745115,1.9942493438720703
2320.825819969177,141.5394287109375,-59.509395599365234,-81.68075561523438,12.314437866210938,7.304810523986816,4.768243789672852,-86.44963836669922,-84.0647964477539,-99.30915069580078,-3.4417881965637207,-1.0602576732635498,0.4615650177001953,-10.08778953552246,22.045209884643555,-101.54936981201172,-7.0621337890625,1.4210951328277588,-2.5144262313842773,-4.5651164054870605,-80.27942657470703,-129.4551239013672,-5.590764045715332,-3.1377806663513184,1.6173601150512695,-159.28866577148438,-83.69441223144531,72.23603057861328,-0.2493365108966827,2.3774375915527344,2.476747512817383
2320.856820344925,149.08628845214844,-52.219181060791016,-95.70188903808594,4.481727600097656,2.838634967803955,2.0408763885498047,-64.91837310791016,-85.00432586669922,-120.77042388916016,-3.1999282836914062,-1.9156861305236816,-0.0454950332641601,1.8184788227081297,13.417835235595703,-86.17508697509766,3.5281758308410645,-4.982150077819824,-7.359889984130859,5.753289699554443,-79.9603271484375,-137.3555450439453,-2.764580249786377,-7.382514953613281,-0.933612823486328,-163.5020294189453,-82.89273071289062,76.8721694946289,5.596429824829102,0.2904925942420959,0.8250188827514648
2320.885833501816,153.52862548828125,-44.15622329711914,-106.27735900878906,-0.917506217956543,-0.0456395521759986,-3.903575420379639,-18.25806999206543,-83.70303344726562,-164.96022033691406,-1.3330047130584717,-1.8144972324371336,-0.1774826049804687,3.5228612422943115,5.136319637298584,-71.55522918701172,21.629302978515625,2.8952951431274414,-3.632852077484131,13.172362327575684,-80.0508041381836,-142.400146484375,-0.6004022359848022,-8.154205322265625,-4.367526054382324,-167.2945556640625,-82.58087158203125,81.21681213378906,2.85196304321289,-0.3737354278564453,0.2688913345336914
2320.9163689613342,157.12628173828125,-36.79364776611328,-114.04823303222656,-4.986522674560547,1.2119393348693848,-7.414422988891602,4.921741485595703,-80.59717559814453,177.0784149169922,-4.301368713378906,-1.7477035522460938,-3.693131446838379,-17.903541564941406,-2.446091890335083,-59.66291809082031,7.359054565429687,8.788610458374023,-13.651081085205078,13.121807098388672,-81.11331939697266,-144.32235717773438,2.8255443572998047,-5.172555923461914,-4.904759407043457,-168.51939392089844,-82.91262817382812,83.33940124511719,-0.7325406074523926,1.2640268802642822,-1.5051965713500977
2320.9753806591034,158.13526916503906,-31.25149726867676,-120.0946273803711,-5.186553001403809,1.3384814262390137,-8.621217727661133,9.499703407287598,-80.47822570800781,174.98410034179688,-1.9136066436767576,-0.01581497117877,-1.518545150756836,-35.18266677856445,-8.809407234191895,-51.33498001098633,-9.146987915039062,-8.47852897644043,9.941839218139648,9.472432136535645,-81.17643737792969,-143.13990783691406,3.0969557762146,2.161942481994629,-2.528170585632324,-167.10211181640625,-83.05245971679688,82.68864440917969,1.6081602573394775,0.8807812929153442,-3.5344443321228027
2321.0059912204742,157.94557189941406,-27.66651153564453,-124.83908081054688,-4.662971496582031,-0.3306726217269897,-8.562524795532227,10.212807655334473,-82.1771011352539,177.29869079589844,-0.053579643368721,-5.821612358093262,-2.767653465270996,-35.43827819824219,-14.572754859924316,-46.45206451416016,6.042429924011231,6.2553815841674805,-4.661588668823242,14.255552291870115,-79.66722869873047,-145.2832794189453,2.240621566772461,-2.3158998489379883,-3.3151726722717285,-165.57046508789062,-82.35055541992188,81.99329376220703,3.758479595184326,-0.8537170886993408,-4.97899055480957
2321.035991191864,158.49290466308594,-26.1663875579834,-128.38067626953125,-4.202707290649414,-0.6344237327575684,-9.149015426635742,-2.9532129764556885,-85.8287124633789,-168.4373779296875,-1.322451114654541,-2.6644086837768555,-2.220447063446045,-41.76676559448242,-22.65945625305176,-43.49570083618164,9.172067642211914,6.048636436462402,-13.04436492919922,22.69379425048828,-77.73164367675781,-150.47032165527344,2.130975246429444,-4.584714889526367,-4.68857479095459,-167.45648193359375,-81.45275115966797,83.99817657470703,3.5221738815307617,-0.7236979007720947,-5.251635551452637
2321.0659906864166,159.5703582763672,-27.317598342895508,-130.9805908203125,-8.207540512084961,-1.8723704814910889,-10.225143432617188,-110.40077209472656,-85.91284942626953,-64.23334503173828,-3.989082336425781,-3.2908949851989746,-2.6381912231445312,-56.83590698242188,-34.60161590576172,-41.75797271728516,6.416637420654297,-4.653585433959961,-7.965690612792969,31.054630279541016,-75.89134216308594,-157.70068359375,2.4680709838867188,-3.8124632835388175,-5.428277015686035,-170.9178466796875,-80.75528717041016,86.7448959350586,1.0772602558135986,-0.5760605335235596,-6.326442718505859
2321.096538543701,159.07630920410156,-31.55982208251953,-131.76681518554688,-11.420921325683594,-2.8282723426818848,-7.4540815353393555,-133.15499877929688,-80.47984313964844,-44.82524108886719,-4.68785285949707,-4.6252288818359375,-2.041933536529541,-65.9618911743164,-51.22958755493164,-42.967411041259766,5.143317222595215,-5.394740104675293,21.175411224365234,39.77205657958984,-74.21342468261719,-166.00267028808594,0.6096128225326538,-3.5566773414611816,-6.6114654541015625,-173.9879913330078,-79.45989990234375,88.0937271118164,2.150266647338867,0.6038504838943481,-6.093232154846191
2321.12553858757,159.91343688964844,-32.404537200927734,-129.9158477783203,2.962119579315185,11.07748794555664,40.25304412841797,-139.8234100341797,-75.51280212402344,-41.313873291015625,-4.304617881774902,-2.496145725250244,0.3721294403076172,-36.73537063598633,-68.67997741699219,-64.3350601196289,9.974245071411133,-7.503787994384766,33.893821716308594,48.4001579284668,-73.1958999633789,-174.24949645996094,0.0460628643631935,-3.748467922210693,-6.7795000076293945,-176.49398803710938,-77.83607482910156,88.37319946289062,1.203784465789795,-0.1076664179563522,0.7925071716308594
2321.155539035797,165.15357971191406,-29.57874298095703,-125.86833953857422,-16.500370025634766,6.519905090332031,13.67680549621582,-145.70559692382812,-71.19109344482422,-37.54256057739258,-2.92587947845459,0.070080891251564,1.6270551681518557,-17.484283447265625,-71.93545532226562,-83.68202209472656,8.56074333190918,-2.68931245803833,8.681812286376953,54.428707122802734,-71.80342864990234,-179.09661865234375,5.0985918045043945,-2.1903634071350098,-0.1810712814331054,-176.941650390625,-76.2313003540039,87.77590942382812,-5.77178955078125,-1.160456895828247,5.207846641540527
2321.186553955078,163.42750549316406,-22.817859649658203,-121.64630889892578,-3.796456813812256,-13.466724395751951,10.534418106079102,-150.3268280029297,-69.36348724365234,-33.32829284667969,-3.3418354988098145,-1.993228912353516,1.4476909637451172,-44.54310607910156,-65.96629333496094,-67.82498168945312,9.720928192138672,-10.856597900390623,3.35909366607666,62.4818000793457,-66.93500518798828,178.0895538330078,10.8177490234375,-17.749752044677734,9.036985397338867,-176.0565948486328,-74.57162475585938,87.75312042236328,1.5079586505889893,-1.921525478363037,6.052094459533691
2321.2160823345184,161.53228759765625,-14.649269104003906,-119.97412872314452,-10.351831436157228,-11.375850677490234,19.197410583496094,-153.0531463623047,-69.69988250732422,-30.30772590637207,-4.427530288696289,-3.477287769317627,0.2794389724731445,-59.068603515625,-54.19977569580078,-58.60697937011719,-8.133689880371094,-7.800634384155273,23.10448837280273,70.20748138427734,-56.97438049316406,172.39727783203125,19.393707275390625,-11.90123176574707,21.701271057128903,-176.0643310546875,-73.18836212158203,88.65021514892578,7.454530715942383,2.0798707008361816,10.134471893310549
2321.276096105576,157.70465087890625,-5.039220333099365,-120.38679504394533,-7.799872398376465,-12.892827987670898,11.379405975341797,-153.1024932861328,-71.3302001953125,-30.50784683227539,-4.707103729248047,-3.187760829925537,0.125065803527832,-52.85361099243164,-44.64411163330078,-58.23940658569336,5.877119064331055,-13.529863357543944,5.336092948913574,71.44854736328125,-42.607948303222656,168.0493621826172,15.029680252075195,-7.260165214538574,21.544368743896484,-178.0999298095703,-73.35352325439453,90.43567657470705,2.601193904876709,3.734922409057617,9.67600440979004
2321.305631160736,155.9970245361328,3.686539649963379,-121.7671356201172,-7.434253692626953,-7.218562126159668,1.3339366912841797,-150.36465454101562,-74.4338607788086,-34.09549331665039,-5.250533103942871,-3.9563961029052734,1.0976448059082031,-50.94546890258789,-39.32539367675781,-60.71601104736328,5.991620063781738,-10.616371154785156,-4.92631721496582,65.25872802734375,-27.232080459594727,163.41481018066406,5.48180103302002,-3.012703418731689,19.712364196777344,178.72824096679688,-73.5368881225586,93.2761688232422,4.491375923156738,2.1579623222351074,9.520914077758787
2321.3356313705444,155.3926239013672,8.729408264160156,-123.65528869628906,-4.225044250488281,-0.0375336334109306,-7.514888763427734,-139.84100341796875,-78.9632797241211,-47.18217086791992,-7.298636436462402,-5.475625038146973,2.077251434326172,-60.51743698120117,-37.54474639892578,-62.685455322265625,-4.869081497192383,-6.0045928955078125,0.7197637557983398,54.60517120361328,-14.55105209350586,158.34454345703125,-4.087127685546875,0.262492835521698,10.473154067993164,173.19740295410156,-73.73979187011719,97.44566345214844,9.31308937072754,2.701244354248047,10.997373580932615
2321.365631341934,155.89047241210938,8.152137756347656,-125.32141876220705,-3.03066635131836,4.572839736938477,-15.980632781982422,-93.48699188232422,-83.08573913574219,-95.47377014160156,-1.401716709136963,-13.49416160583496,11.929420471191406,-65.82133483886719,-40.95564651489258,-64.8629150390625,-1.8607988357543943,-0.4708050489425659,3.9458303451538086,42.888973236083984,-6.403976917266846,154.37841796875,-1.8150312900543213,0.2412209212779998,3.9715967178344727,165.1125030517578,-73.92100524902344,102.6131362915039,2.0106515884399414,2.047302722930908,4.045733451843262
2321.3961741924286,156.39048767089844,1.3267427682876587,-126.46499633789062,-5.909279823303223,3.1828579902648926,-22.483234405517575,-23.917802810668945,-79.26344299316406,-157.18226623535156,-7.55759334564209,0.0877865254878997,-1.2247581481933594,-66.16375732421875,-47.035400390625,-66.84770202636719,1.048870086669922,-1.4357898235321045,-1.223134994506836,33.6704216003418,-1.5896204710006714,151.87278747558594,0.2375645339488983,-2.995728015899658,0.4810209274291992,155.82403564453125,-73.66139221191406,108.34651184082033,0.0593025982379913,-0.6057542562484741,-6.8864288330078125
2321.426174879074,156.34095764160156,-11.142566680908203,-126.78439331054688,-6.906656265258789,-4.00734806060791,-24.120399475097656,-8.009199142456055,-77.95728302001953,-167.2910919189453,-14.201950073242188,-14.07619285583496,-15.935836791992188,-68.88091278076172,-53.073673248291016,-67.37020874023438,-0.7551561594009399,-1.917353868484497,-6.047865867614746,30.11931037902832,2.5850064754486084,150.57101440429688,-0.2909003496170044,-4.620879173278809,-2.142633438110352,149.7979278564453,-72.45635986328125,111.64379119873048,-2.042197227478028,-1.5477232933044434,-7.385893821716309
2321.4561746120453,157.00384521484375,-27.513044357299805,-126.51022338867188,-8.700653076171875,-6.313429832458496,-14.91941261291504,-13.559537887573242,-81.38329315185547,-169.83303833007812,1.3740565776824951,-2.535025119781494,-10.662864685058594,-75.54795837402344,-58.685035705566406,-64.66159057617188,-1.754342555999756,2.0308518409729004,-5.88128662109375,29.95046615600586,7.751247882843018,150.67245483398438,-0.8718940019607544,-4.7177934646606445,-5.958616256713867,147.10302734375,-72.450927734375,113.63179779052734,-4.174871444702148,1.2197926044464111,-7.886373519897461
2321.4861884117126,155.10220336914062,-46.90743637084961,-125.62022399902344,-8.289220809936523,-5.189663887023926,-2.547065734863281,-15.340632438659668,-82.64198303222656,-173.16896057128906,5.600249290466309,14.227798461914062,-2.0325164794921875,-83.5983657836914,-63.37586975097656,-59.57265853881836,0.7806999683380127,5.228762626647949,-6.504085540771484,32.732322692871094,13.84175968170166,152.40162658691406,-1.6715383529663086,-3.537558078765869,-8.814399719238281,144.0966339111328,-72.83477783203125,114.90697479248048,1.664825439453125,1.188746690750122,-11.45850944519043
2321.515722513199,151.39158630371094,-68.34881591796875,-122.0731430053711,-2.5507073402404785,-7.173578262329102,15.802742004394531,-9.926193237304688,-82.04496002197266,-172.56060791015625,-3.372096538543701,7.282771110534668,0.3488531112670898,-91.23929595947266,-67.39801788330078,-53.39009094238281,0.5886220932006836,5.3455352783203125,-8.179346084594727,34.28194046020508,19.973539352416992,156.6472625732422,-4.54377555847168,-4.714811325073242,-10.159719467163086,141.28756713867188,-72.8338623046875,115.2523422241211,4.750104904174805,-0.4241731762886047,-11.501819610595703
2321.575738430023,75.96476745605469,-87.38626098632812,-43.19867706298828,13.24875259399414,2.841305732727051,29.488773345947266,-40.71875762939453,-84.1807861328125,-145.50375366210938,1.609346866607666,-0.3275613784790039,0.6947231292724609,-96.67828369140624,-70.55780029296875,-47.92866516113281,1.6416935920715332,5.8280534744262695,-6.220789909362793,31.27565193176269,25.00563621520996,164.886474609375,-5.022032737731934,-2.6287550926208496,-12.55422019958496,138.2027130126953,-72.10452270507812,116.21348571777344,-0.5107187032699585,-2.0087532997131348,-5.938244819641113
2321.606270313263,-2.8714938163757324,-73.21916198730469,39.866790771484375,14.418397903442385,28.0197868347168,-1.617086410522461,-98.42025756835938,-83.20399475097656,-94.4506378173828,-2.054126262664795,-7.051996231079102,-1.6207971572875977,-95.99987030029295,-72.8769302368164,-46.6624755859375,3.610377788543701,10.636024475097656,-3.3129944801330566,31.16388893127441,28.86794090270996,177.37120056152344,-12.879386901855469,-7.692638397216797,-17.36821746826172,139.24307250976562,-71.59722900390625,114.57770538330078,-3.6280384063720703,-2.9865198135375977,-3.074066162109375
2321.6362705230717,-11.177935600280762,-70.45244598388672,38.29090881347656,18.0334587097168,9.81011199951172,-9.686731338500977,-120.87725067138672,-79.83277130126953,-75.01153564453125,-4.279811859130859,-7.588558197021484,0.3355312347412109,-94.0264892578125,-73.21532440185547,-49.47035598754883,6.411107063293457,2.511445999145508,-1.3408432006835938,31.286563873291016,32.34906768798828,-170.77667236328125,-17.239871978759766,-8.732551574707031,-20.689380645751957,147.72422790527344,-70.43115997314453,106.09298706054688,1.6092641353607178,-1.1030278205871582,4.733531951904297
2321.6665449142456,-12.795002937316896,-73.64341735839844,35.67628479003906,7.566964149475098,-6.428584098815918,-2.69989013671875,-123.21106719970705,-77.70455169677734,-71.78307342529297,-4.569059371948242,1.4162745475769043,2.859675407409668,-94.25425720214844,-72.33311462402344,-52.925758361816406,3.0804452896118164,6.079128265380859,2.7473297119140625,45.391414642333984,39.18330383300781,-169.6438751220703,16.827617645263672,7.40328311920166,-14.67481803894043,152.73309326171875,-70.49281311035156,102.34523010253906,0.8932527303695679,2.1196346282958984,4.071921348571777
2321.6960661411285,9.671103477478027,-79.06643676757812,21.00179100036621,10.331583023071287,3.5112757682800293,-0.2106637954711914,-117.72567749023438,-76.64722442626953,-76.48340606689453,-2.6334614753723145,-5.861370086669922,5.343136787414551,-91.16387176513672,-71.76089477539062,-54.09674453735352,4.051617622375488,2.2027010917663574,5.363533020019531,58.93199157714844,43.01540756225586,-178.21762084960938,0.4351710081100464,-12.307525634765623,-1.087580680847168,157.598876953125,-70.82476043701172,99.30613708496094,1.4541828632354736,2.370919704437256,2.1447486877441406
2321.7260665893555,64.9886703491211,-84.17169952392578,-22.746322631835938,6.999188423156738,3.120405673980713,7.232614517211914,-108.76087188720705,-75.74641418457031,-83.5855712890625,-0.2924568653106689,-5.209541320800781,6.425252914428711,-92.19287872314452,-70.89564514160156,-49.26551818847656,4.907796859741211,-0.409952163696289,3.73647403717041,61.264427185058594,44.15524291992188,166.87994384765625,-3.7016348838806152,0.3306516408920288,-7.079505920410156,162.04986572265625,-70.52889251708984,97.17707061767578,3.196640968322754,-0.9246771335601808,5.119206428527832
2321.7560663223267,109.5693817138672,-83.66382598876953,-63.9327507019043,-5.7572784423828125,-2.210299015045166,4.309532165527344,-96.2049789428711,-74.60218048095703,-91.65705871582033,2.6328396797180176,-7.684597015380859,6.379718780517578,-94.95980834960938,-70.48499298095703,-40.61029815673828,2.470800876617432,-0.1642148494720459,5.88841724395752,58.97542572021485,40.8709831237793,151.0859832763672,-6.155849456787109,-7.216263771057129,-7.639617919921875,168.40040588378906,-69.6399917602539,95.04940795898438,-0.7445261478424072,-2.1272778511047363,3.419374465942383
2321.7860848903656,137.91207885742188,-83.68817138671875,-91.44232177734376,4.144266128540039,-10.616716384887695,6.547399520874023,-77.96854400634766,-73.65625762939453,-100.8343276977539,-2.9025983810424805,-10.889875411987305,-1.040729522705078,-100.05352783203124,-69.29324340820312,-31.065248489379883,1.6566205024719238,-3.1440701484680176,4.550408363342285,44.76932907104492,33.18535614013672,136.84226989746094,-11.984804153442385,-7.872226715087891,-7.670734405517578,175.34539794921875,-68.25411224365234,94.25968933105467,-2.925809860229492,-1.9194345474243164,1.5081605911254885
2321.815612316132,158.6694793701172,-82.37350463867188,-104.35839080810548,-2.3135790824890137,5.1653594970703125,-0.0253057479858398,-72.11353302001953,-74.57398986816406,-93.04602813720705,-27.324413299560547,-17.758628845214844,-1.836889743804932,-104.6810073852539,-66.59725189208984,-23.901538848876957,-0.503127932548523,-0.6444034576416016,1.4027910232543943,23.593080520629883,24.02046012878418,125.06397247314452,-8.129793167114258,-6.143623352050781,-13.375568389892578,179.8119659423828,-66.9620361328125,96.2527313232422,-5.4837799072265625,0.9965029954910278,-1.7446870803833008
2321.8756272792816,172.83705139160156,-81.19536590576172,-113.97103118896484,-4.851807594299316,-2.692279815673828,7.672393798828125,-85.17906188964844,-75.47801971435547,-66.81964111328125,-14.527238845825195,-12.536083221435549,-0.8320560455322266,-104.92130279541016,-63.62122344970703,-19.05205726623535,0.4642292857170105,-1.8283188343048096,-3.100806713104248,1.0024380683898926,16.263471603393555,113.42479705810548,4.144613265991211,4.489560127258301,-11.701091766357422,-175.82546997070312,-66.5890121459961,98.52918243408205,-3.618633270263672,0.2728668451309204,-2.8060555458068848
2321.9058690071106,-179.26329040527344,-78.93370056152344,-120.73546600341795,-0.7618519067764282,-0.3519425988197326,-0.355839729309082,-113.76087188720705,-73.21199798583984,-30.675920486450195,-1.984670162200928,-10.99913215637207,-7.86012077331543,-107.45892333984376,-61.37760925292969,-13.50366497039795,-4.361373901367188,2.336179733276367,-1.0344734191894531,-4.372915267944336,11.471887588500977,103.00260162353516,13.382808685302734,2.7452216148376465,-0.709172248840332,-174.16615295410156,-65.74641418457031,99.96595001220705,3.0822110176086426,3.0268869400024414,2.113762855529785
2321.9358689785004,-173.826904296875,-77.02143859863281,-125.2046890258789,0.7681787014007568,1.1568291187286377,0.7820186614990234,-137.49473571777344,-67.83380126953125,-5.062580108642578,0.2896080017089844,-1.7427780628204346,-12.751670837402344,-107.47518157958984,-61.234012603759766,-8.370824813842773,-2.517012119293213,2.331518650054932,0.2116022109985351,9.592576026916504,8.987380027770996,96.5219497680664,19.702072143554688,-4.502001762390137,-1.9709510803222656,-175.0813751220703,-65.05951690673828,101.54878997802734,1.5540170669555664,2.1593422889709477,1.856938362121582
2321.9658691883087,-170.2912139892578,-76.16077423095703,-129.0469207763672,-0.0057983724400401,1.204766035079956,1.507524490356445,-152.21839904785156,-61.994930267333984,9.140836715698242,-2.0708537101745605,1.9245789051055908,-15.791576385498049,-106.97002410888672,-61.69296646118164,-7.513878345489502,-0.7346324920654297,3.145480155944824,1.6680727005004885,34.33048629760742,7.088380336761475,95.04855346679688,-4.008835792541504,-5.928609848022461,-0.1011371612548828,-175.1555938720703,-64.62789916992188,103.6533660888672,-4.412332534790039,2.9968385696411133,1.4403142929077148
2321.996416091919,-165.1965789794922,-76.33219909667969,-135.59234619140625,-1.876481056213379,1.7260634899139404,0.9209680557250975,-161.99053955078125,-57.40510559082031,18.46553039550781,-3.472114562988281,3.6060791015625,-15.26008415222168,-106.83560180664062,-61.62118148803711,-10.110174179077148,-1.789224624633789,1.988224744796753,2.3837461471557617,45.912445068359375,2.454277515411377,93.59465789794922,-1.9005331993103027,-11.214740753173828,8.89151382446289,-175.4740447998047,-64.3181381225586,105.29608154296876,-0.4758535027503967,1.147651195526123,-2.1010141372680664
2322.025416135788,-160.39401245117188,-76.49205017089844,-143.57919311523438,-1.4967522621154783,0.1013704985380172,0.1712064743041992,-169.26492309570312,-54.63729476928711,25.321250915527344,-2.5904464721679688,0.2152138948440551,-11.20660400390625,-103.19236755371094,-61.4179573059082,-16.494203567504883,-1.442904710769653,-2.206292152404785,-0.5635995864868164,55.89677810668945,-6.964022159576416,91.63433837890624,9.952289581298828,-1.8520278930664065,-4.885196685791016,-177.70640563964844,-64.00987243652344,107.39698791503906,1.3042206764221191,2.207935333251953,-3.797934055328369
2322.055415868759,-158.8515167236328,-75.55657958984375,-147.19595336914062,0.1446218192577362,-2.676755428314209,-1.0051889419555664,-178.46170043945312,-53.68783187866211,31.53890037536621,-1.909586191177368,-2.229485988616944,-5.720170021057129,-99.0685806274414,-60.59002685546875,-24.670623779296875,-0.6501317024230957,-3.1697921752929688,-4.631816864013672,73.05274200439453,-18.740406036376957,86.23866271972656,0.667657732963562,3.307324886322021,-1.601963996887207,177.24087524414062,-63.67367935180664,110.94500732421876,-1.812359094619751,2.0049595832824707,-1.8511385917663572
2322.085431098938,-162.6894073486328,-73.6563949584961,-143.82974243164062,1.172057867050171,-3.138399600982666,-1.149958610534668,171.89669799804688,-55.74666595458984,37.069923400878906,4.475062370300293,4.731208801269531,-1.8776884078979488,-94.82479095458984,-59.55121612548828,-34.07158279418945,1.6326167583465576,-0.094748318195343,-6.104323387145996,85.26920318603516,-32.14842224121094,76.78186798095703,-0.2633346915245056,5.806926727294922,6.546457290649414,172.09959411621094,-64.17327117919922,114.32469177246094,-3.1107873916625977,0.1603481769561767,-2.705976963043213
2322.1159591674805,-170.4583282470703,-70.58207702636719,-134.60968017578125,-1.2153255939483645,-4.130165100097656,-0.4799537658691406,166.0136260986328,-62.02855682373047,43.427921295166016,9.300804138183594,8.58076286315918,2.842970848083496,-89.08715057373047,-58.62312316894531,-45.66093063354492,1.813539266586304,-0.3380438685417175,-7.619948387145996,88.06830596923828,-45.91851043701172,64.86135864257812,5.675463676452637,2.5991530418396,11.790445327758787,168.12242126464844,-65.55743408203125,116.70382690429688,-1.7777791023254397,-0.5421066284179688,-5.388082504272461
2322.175972700119,-178.69529724121094,-66.19510650634766,-123.22620391845705,-0.659117579460144,-0.5396133661270142,-2.260380744934082,163.8694305419922,-64.52701568603516,48.87115478515625,1.242241621017456,-4.342227935791016,28.41971206665039,-87.2049331665039,-57.18695831298828,-57.69814682006836,-2.016031265258789,-2.818206787109375,-10.407493591308594,77.88214874267578,-58.24593353271485,54.59085464477539,12.54293441772461,3.5740413665771484,12.263444900512695,163.47637939453125,-68.07988739013672,120.818359375,-1.2738313674926758,1.166948318481445,-3.385749340057373
2322.2055122852325,177.24371337890625,-61.382720947265625,-115.0088882446289,3.088228225708008,3.731933116912842,-2.595026016235352,160.36383056640625,-65.68316650390625,51.26480484008789,8.647563934326172,8.395933151245117,1.6744842529296875,-90.34695434570312,-54.35585403442383,-69.44078826904297,-2.7032198905944824,9.684181213378906,-1.4452857971191406,64.67465209960938,-66.06632995605469,53.42013931274414,19.594223022460938,4.463265419006348,8.15749740600586,155.35707092285156,-69.76771545410156,128.50050354003906,2.5700998306274414,0.2376671433448791,-3.3132100105285645
2322.235509157181,175.08555603027344,-57.224853515625,-109.9422607421875,4.5369062423706055,-0.9518173933029176,2.0475082397460938,164.8748016357422,-64.81902313232422,47.71590805053711,5.905838966369629,9.725015640258787,12.58358383178711,-90.6510238647461,-49.8953742980957,-80.02069854736328,5.596758842468262,15.76207160949707,13.384241104125977,60.77772903442383,-68.50108337402344,61.36963272094727,12.571102142333984,6.268747329711914,4.776813507080078,151.8673553466797,-67.98321533203125,131.2852783203125,0.4948509931564331,-2.308742046356201,5.892758369445801
