Timestamp,D4:22:CD:00:05:5D_EulerX,D4:22:CD:00:05:5D_EulerY,D4:22:CD:00:05:5D_EulerZ,D4:22:CD:00:05:5D_FreeAccX,D4:22:CD:00:05:5D_FreeAccY,D4:22:CD:00:05:5D_FreeAccZ,D4:22:CD:00:05:5E_EulerX,D4:22:CD:00:05:5E_EulerY,D4:22:CD:00:05:5E_EulerZ,D4:22:CD:00:05:5E_FreeAccX,D4:22:CD:00:05:5E_FreeAccY,D4:22:CD:00:05:5E_FreeAccZ,D4:22:CD:00:05:6B_EulerX,D4:22:CD:00:05:6B_EulerY,D4:22:CD:00:05:6B_EulerZ,D4:22:CD:00:05:6B_FreeAccX,D4:22:CD:00:05:6B_FreeAccY,D4:22:CD:00:05:6B_FreeAccZ,D4:22:CD:00:05:6E_EulerX,D4:22:CD:00:05:6E_EulerY,D4:22:CD:00:05:6E_EulerZ,D4:22:CD:00:05:6E_FreeAccX,D4:22:CD:00:05:6E_FreeAccY,D4:22:CD:00:05:6E_FreeAccZ,D4:22:CD:00:49:AA_EulerX,D4:22:CD:00:49:AA_EulerY,D4:22:CD:00:49:AA_EulerZ,D4:22:CD:00:49:AA_FreeAccX,D4:22:CD:00:49:AA_FreeAccY,D4:22:CD:00:49:AA_FreeAccZ
449.6586990356445,179.26321411132812,-63.114891052246094,153.02479553222656,0.5876423120498657,0.291124165058136,0.6190977096557617,-166.8203582763672,-32.122825622558594,-29.472492218017575,5.375134468078613,-1.2763700485229492,-6.0351152420043945,-45.26929473876953,24.49534034729004,-23.45158195495605,-4.172773361206055,-3.0421786308288574,-3.7244954109191895,103.16312408447266,-44.88211441040039,27.397201538085938,-3.0919790267944336,3.802928924560547,1.5752458572387695,159.46438598632812,-74.4166488647461,132.10874938964844,-4.220752716064453,0.6726700067520142,-0.2005500793457031
449.6726944446564,-179.37576293945312,-66.15251159667969,153.03897094726562,1.5716769695281982,2.819777011871338,0.7601747512817383,-163.14552307128906,-41.96376800537109,-33.02445602416992,4.759113311767578,-4.006961822509766,-6.576340675354004,-45.08933639526367,24.03043937683105,-26.811071395874023,-5.326488494873047,-6.438940048217773,-1.128765106201172,111.2462921142578,-44.76377868652344,35.04423904418945,-4.17313289642334,1.2748632431030271,-0.7551031112670898,164.2733154296875,-73.936767578125,130.8064727783203,-3.4239563941955566,0.4163509607315063,-1.4056148529052734
449.7244954109192,179.6516876220703,-58.80719757080078,-114.6508331298828,-0.2374724447727203,1.24430513381958,1.148838996887207,166.94622802734375,-76.00479888916016,8.480734825134277,-0.2690944075584411,-3.1566004753112797,6.186456680297852,-69.0645751953125,-23.150070190429688,-62.8166618347168,7.197726249694824,2.5895819664001465,26.08988571166992,108.55123901367188,-76.27742004394531,50.11771011352539,-3.1810641288757324,5.566618919372559,12.592449188232422,129.2691192626953,-78.50748443603516,157.55442810058594,1.540369987487793,1.7836294174194336,6.259096145629883
449.7546000480652,179.4158172607422,-58.25401306152344,-114.9766845703125,0.2400953769683838,0.862749457359314,1.303693771362305,158.8154296875,-72.5478286743164,15.758819580078123,1.4130916595458984,6.393071174621582,4.209430694580078,-65.14525604248047,-13.593941688537598,-63.15325546264648,9.940385818481444,-1.7174763679504397,26.01607131958008,139.16844177246094,-70.68365478515625,29.028959274291992,-2.950939178466797,1.112966537475586,9.644329071044922,136.84133911132812,-79.44756317138672,149.87017822265625,0.4978326559066772,0.9354473352432252,4.348316192626953
449.8146123886109,178.74354553222656,-59.31575393676758,-116.11737060546876,-0.6480516195297241,0.9195644855499268,0.8958244323730469,-175.0886993408203,-75.61972045898438,-6.752542972564697,-2.6578173637390137,5.099886894226074,0.5518646240234375,-53.17984771728516,-2.3038458824157715,-62.471656799316406,7.341558456420898,-11.782894134521484,16.59066390991211,148.34127807617188,-68.6284408569336,30.2817440032959,-5.572370529174805,-4.474305152893066,3.2214479446411133,142.11830139160156,-80.4541244506836,144.82034301757812,-1.3796582221984863,0.4828985929489136,2.717190742492676
449.84461784362793,178.2141571044922,-60.841407775878906,-117.69593811035156,-1.8725061416625977,1.9279568195343015,1.080915451049805,-143.3678741455078,-77.03527069091797,-36.56060791015625,-1.308196783065796,2.7355270385742188,-2.482189178466797,-39.342864990234375,5.87207555770874,-61.53067398071289,4.444536209106445,-9.520309448242188,0.710845947265625,152.7068634033203,-69.81486511230469,33.46410369873047,-4.362565994262695,-4.272577285766602,-3.9010977745056152,151.49754333496094,-81.58763885498047,136.00491333007812,-2.5811996459960938,0.5544451475143433,3.1096067428588867
449.8745925426483,178.75564575195312,-62.58919906616211,-120.388916015625,-1.3681232929229736,1.8384952545166016,1.0244407653808594,-109.76834106445312,-77.25260925292969,-69.87470245361328,-0.3498518466949463,1.56600022315979,-3.1730828285217285,-24.672067642211918,11.123290061950684,-63.24014663696289,-7.26814079284668,-9.460988998413086,-1.8210444450378416,164.86231994628906,-74.8642807006836,29.115142822265625,-5.046735763549805,-6.240721702575684,-8.026165008544922,165.81787109375,-82.74769592285156,122.4924087524414,-0.7163795232772827,0.9056404829025269,1.1039552688598633
449.9041104316712,179.84320068359375,-64.90879821777344,-124.0326156616211,-0.7852897644042969,2.2571678161621094,0.928410530090332,-74.51647186279297,-74.56060028076172,-106.10655212402344,-0.9804234504699708,-0.0690473169088363,-2.036823272705078,-3.6702146530151367,15.602025032043455,-67.65435028076172,-20.80630111694336,-6.391180038452148,-10.21115493774414,-158.12954711914062,-80.17098999023438,0.6216708421707153,-2.903772354125977,-9.147186279296877,-8.515010833740234,177.66505432128906,-83.058837890625,110.75457763671876,0.4838324189186096,1.0914931297302246,-1.3410911560058594
449.9600582122803,-179.25257873535156,-67.887939453125,-128.2649688720703,-0.9072922468185424,1.3142168521881104,0.9511213302612304,-49.25257110595703,-67.97036743164062,-133.14950561523438,-5.415370941162109,-4.022315979003906,-2.817690372467041,22.39574241638184,21.47729110717773,-72.4658432006836,-7.72637939453125,3.5669660568237305,-13.15935516357422,-101.52880859375,-78.99874877929688,-50.19889068603516,0.5595800876617432,-11.125755310058594,-7.932785987854004,-173.45741271972656,-83.31224060058594,101.95343780517578,-0.9053878784179688,-0.6402490139007568,-0.3637990951538086
449.9670281410217,-179.57794189453125,-71.35530853271484,-130.0638885498047,-0.2422929406166076,-2.724306106567383,1.3750038146972656,-38.72259140014648,-60.37387847900391,-148.8009796142578,-11.94757080078125,-7.977816581726074,-6.440285682678223,40.727783203125,29.185518264770508,-74.8429183959961,1.5548136234283447,3.394223213195801,-5.911846160888672,-71.216064453125,-72.4024887084961,-74.47755432128906,1.497270584106445,-6.334903717041016,-5.739447593688965,-163.9982147216797,-84.17086029052734,92.76081085205078,-2.119116306304932,-0.919213056564331,-3.078732490539551
449.99457693099976,-179.88992309570312,-75.09474182128906,-128.02049255371094,3.029200553894043,-4.50716495513916,-0.2680511474609375,-38.07158279418945,-54.49420547485352,-158.32553100585938,-14.592594146728516,-4.165434837341309,-7.112881660461426,42.76145553588867,34.584896087646484,-75.81696319580078,7.905068397521973,4.322975158691406,-1.4821748733520508,-47.53684616088867,-64.94276428222656,-83.95407104492188,1.5486059188842771,-9.31309700012207,-6.161440849304199,-155.15269470214844,-84.93070983886719,84.58199310302734,-2.3032655715942383,-1.6644175052642822,-5.426827430725098
450.0255854129791,-179.60791015625,-78.75250244140625,-125.4050750732422,1.9106566905975344,-0.1031704545021057,-1.8136134147644043,-39.45336151123047,-50.30944061279297,-163.75987243652344,-13.801313400268556,1.211540699005127,-10.052431106567385,30.997434616088867,37.67549133300781,-78.56930541992188,4.648667335510254,3.408170700073242,-4.542278289794922,-28.16865921020508,-57.84691619873047,-86.72500610351562,3.3968071937561035,-10.422449111938477,-9.457408905029297,-144.32046508789062,-85.62198638916016,74.28225708007812,-1.3824331760406494,-1.2135655879974363,-6.318624496459961
450.0546131134033,179.5967559814453,-81.17721557617188,-124.00633239746094,2.5436806678771973,-2.13598108291626,-4.328897476196289,-41.02942657470703,-48.28610610961914,-166.55499267578125,-15.932567596435549,-1.2833693027496338,-18.46422576904297,17.816267013549805,41.674442291259766,-86.91503143310547,2.05952787399292,-0.29354327917099,-4.044028282165527,-17.21940803527832,-52.2802963256836,-84.74082946777344,6.455733299255371,-8.052885055541992,-11.657022476196287,-133.9417266845703,-86.26933288574219,63.59030532836914,0.8066548109054565,-1.2420158386230469,-6.533725738525391
450.1144461631775,177.39920043945312,-81.74137115478516,-118.7295913696289,4.038281440734863,-2.210597515106201,-4.115426063537598,-47.04302597045898,-50.7423095703125,-165.9335174560547,-17.538352966308594,0.3707764744758606,-17.471881866455078,4.489793300628662,46.04593276977539,-107.65660858154295,1.8543527126312256,-0.5339815616607666,-9.385875701904297,-15.824752807617188,-48.92361831665039,-79.46176147460938,10.910234451293944,-4.7472124099731445,-9.502866744995115,-129.05072021484375,-87.31452941894531,57.22013854980469,2.184668064117432,-2.560051918029785,-3.4188218116760254
450.1444427967072,173.50453186035156,-81.25578308105469,-113.05445861816406,-0.9923299551010132,0.3891717791557312,-1.1728315353393557,-57.692161560058594,-56.76228713989258,-157.87950134277344,-17.746902465820312,8.036935806274414,1.760223388671875,-17.71714210510254,42.14133071899414,-136.38194274902344,-9.877485275268556,-10.124673843383787,-32.6474609375,-24.05715560913086,-46.756832122802734,-73.5697021484375,14.088525772094728,-6.249886512756348,-6.343031883239746,-117.37535095214844,-88.6850814819336,43.05999374389648,-0.7401124238967896,-4.184829711914063,0.6333074569702148
450.1745948791504,166.3901824951172,-80.00121307373047,-105.57186126708984,-0.6472653150558472,-4.901144981384277,0.9614658355712892,-63.55057907104492,-62.066741943359375,-148.29737854003906,0.7531552314758301,-16.601585388183594,-2.413580894470215,-35.43949890136719,32.86528396606445,-154.4416961669922,-17.139801025390625,4.570391654968262,-18.100738525390625,-37.47336196899414,-46.48431396484375,-68.93701934814453,7.547439575195312,-9.91330337524414,-6.34516716003418,-49.39226150512695,-88.99986267089844,-27.399290084838867,-6.454126358032227,-0.647214412689209,3.428163528442383
450.2047309875488,160.70172119140625,-77.3028793334961,-94.24188232421876,2.6821608543396,-4.299018859863281,1.1914892196655271,-70.76570892333984,-67.28343963623047,-140.86338806152344,-4.949687957763672,-4.363840103149414,3.0749082565307617,-52.203731536865234,36.18336486816406,-146.48370361328125,-18.88802719116211,10.963550567626951,16.512531280517578,-51.844688415527344,-48.33147811889648,-65.35345458984375,14.45555305480957,-8.727399826049805,4.058453559875488,-10.11502742767334,-89.03450012207031,-67.88231658935547,-2.390765190124512,-1.5846877098083496,1.862584114074707
450.2351326942444,153.3981170654297,-74.01061248779297,-84.51519012451172,-3.9047131538391113,2.036555767059326,2.363245964050293,-77.7375717163086,-70.08229064941406,-135.33126831054688,0.8985862731933594,5.517308235168457,9.292959213256836,-46.03754806518555,40.12342071533203,-136.794921875,-17.12091064453125,1.887092113494873,-1.6087331771850586,-63.8721923828125,-52.77516555786133,-63.615718841552734,11.867916107177734,-2.2384791374206543,-1.4785289764404297,0.4861344993114471,-89.00142669677734,-78.49503326416016,-0.6990617513656616,-1.0746750831604004,-0.7988643646240234
450.2643039226532,146.6707305908203,-71.94853973388672,-78.41866302490234,-4.400150299072266,4.023713111877441,2.831594467163086,-82.92272186279297,-72.32046508789062,-130.39208984375,-5.225909233093262,-4.899454116821289,-4.998480796813965,-34.019676208496094,42.407997131347656,-120.64410400390624,-5.541441917419434,-1.0671772956848145,-9.00680160522461,-72.78636932373047,-58.50538635253906,-64.29367065429688,9.048959732055664,-2.8111977577209477,1.124406814575195,-8.055793762207031,-88.8701400756836,-70.43042755126953,0.1654822826385498,0.5759005546569824,0.8782253265380859
450.2948293685913,138.1427764892578,-71.85589599609375,-70.17073822021484,-0.1706791818141937,2.558289051055908,3.6872501373291016,-85.97054290771484,-74.86127471923828,-127.0769271850586,-5.187644958496094,1.6804149150848389,-0.877354621887207,-26.46801376342773,40.59093475341797,-100.23308563232422,-16.33608627319336,0.840785026550293,-3.079505920410156,-75.09076690673828,-62.58098602294922,-68.23756408691406,2.792762279510498,-1.0242750644683838,3.1545228958129883,-96.40581512451172,-88.99205780029297,15.97854995727539,5.5771331787109375,-1.665607452392578,2.863616943359375
450.325202703476,125.85588073730467,-72.78240966796875,-59.25639343261719,7.744632720947266,-0.9917969703674316,2.980064392089844,-84.61125183105469,-76.92245483398438,-126.6746826171875,-6.179040908813477,-2.3928823471069336,-0.6700439453125,-16.04481315612793,33.080780029296875,-82.78544616699219,-6.187938690185547,1.662580490112305,-6.064983367919922,-70.11225891113281,-63.85222244262695,-73.81177520751953,-0.8145647048950195,-4.373616218566895,0.7205734252929688,-143.440185546875,-86.50811767578125,60.81969451904297,7.323562622070312,-0.9462051391601562,1.505413055419922
450.3542413711548,105.63005828857422,-75.35790252685547,-46.98283767700195,6.906024932861328,2.5586423873901367,-2.5880751609802246,-86.8180160522461,-78.10983276367188,-125.69094848632812,-4.548696517944336,-1.7712647914886477,-0.8583650588989258,-9.916654586791992,23.998615264892575,-68.31625366210938,0.9456796646118164,5.182246208190918,-2.51232385635376,-65.43376159667969,-64.6410903930664,-77.68672943115234,0.1516447365283966,-4.019850730895996,-3.77466344833374,-151.94784545898438,-84.79436492919922,64.97820281982422,5.12984561920166,0.5137045383453369,-1.297773361206055
450.4187736511231,98.74674224853516,-75.80046081542969,-50.81492233276367,20.365650177001957,23.86492156982422,-2.26818323135376,-88.269287109375,-78.88123321533203,-125.61856079101562,-2.228562831878662,-0.2308100759983062,0.1375789642333984,-10.974932670593262,16.63702392578125,-55.36611557006836,7.174609184265137,6.078665733337402,-4.458759307861328,-63.91141128540039,-64.90211486816406,-79.74546813964844,-3.7387542724609375,-2.832399368286133,-1.174698829650879,-159.40603637695312,-83.12859344482422,69.07157897949219,3.769597053527832,-0.4796420335769653,0.256627082824707
450.444228887558,123.80110168457033,-69.15555572509766,-81.3071517944336,26.187694549560547,9.389785766601562,6.923040390014648,-90.84761810302734,-79.42069244384766,-124.08145141601562,-2.385463237762451,-2.440659999847412,-1.250314712524414,-17.623395919799805,12.63865852355957,-44.58863830566406,2.118374824523926,6.465201377868652,2.337503433227539,-61.37612915039063,-64.77307891845703,-81.34113311767578,-6.098174095153809,-6.257040023803711,-1.684950828552246,-165.92625427246094,-81.99364471435547,74.35621643066406,2.441120147705078,2.682837963104248,-1.1981401443481443
450.4743022918701,142.6588592529297,-55.87705993652344,-99.80760955810548,8.379203796386719,1.1080586910247805,3.679288864135742,-96.3924789428711,-79.52510833740234,-119.25349426269533,-1.876282215118408,-1.885981798171997,-1.0181684494018557,-26.5268497467041,9.495675086975098,-37.75461959838867,2.21474552154541,8.85322380065918,-4.907885551452637,-57.00396347045898,-64.96538543701172,-83.11480712890625,-4.270268440246582,-4.939560890197754,-2.203310966491699,-168.26820373535156,-81.91252899169922,76.16614532470703,0.2630141377449035,1.6048073768615725,0.1444959640502929
450.5048167705536,151.9339141845703,-43.28149032592773,-110.75748443603516,1.6453180313110352,-5.017114639282227,-5.03978443145752,-103.7868423461914,-79.00981140136719,-111.36614990234376,-2.1986184120178223,-3.0177931785583496,-2.0708465576171875,-39.73041915893555,5.521763801574707,-34.4061393737793,-1.595245361328125,-1.79931378364563,-1.8295650482177732,-51.465087890625,-65.77830505371094,-85.11176300048828,-2.5917649269104004,-5.399991989135742,-3.764110565185547,-170.23388671875,-81.86983489990234,78.80183410644531,-0.6779993772506714,1.0002377033233645,-2.421140193939209
450.5348126888275,159.83651733398438,-32.95611953735352,-118.09585571289062,-1.8405258655548096,-4.42557430267334,-6.677249908447266,-112.49662017822266,-77.68102264404297,-101.91053009033205,-3.1838693618774414,-2.7971649169921875,-1.683122634887695,-45.48751449584961,-1.347171425819397,-31.815059661865234,-1.020158290863037,-2.291102409362793,-2.9938883781433105,-45.41777801513672,-67.2612533569336,-87.43519592285156,-0.6109672784805298,-4.782069206237793,-5.057609558105469,-172.79067993164062,-81.853271484375,82.25763702392578,0.6515533924102783,-0.5424624681472778,-4.857719421386719
450.5943334102631,167.73370361328125,-26.197370529174805,-124.2544174194336,-3.054583549499512,-4.291884422302246,-7.533195495605469,-121.3033447265625,-75.61338806152344,-92.84761810302734,-2.9620680809021,-0.171153575181961,-0.368408203125,-46.67172622680664,-11.436042785644531,-28.20137405395508,2.801240921020508,-2.899200916290283,-5.788780212402344,-39.0619010925293,-69.1637954711914,-90.7627410888672,1.786785364151001,-4.237040519714356,-5.510422706604004,-172.5035400390625,-82.32723999023438,82.99455261230469,1.6163458824157717,-0.3479394912719726,-4.405447959899902
450.59934091567993,171.39227294921875,-23.600866317749023,-130.42916870117188,-12.249645233154297,-5.498410224914551,-7.7938947677612305,-129.31866455078125,-72.83318328857422,-85.65818786621094,-2.925986289978028,-0.4331488609313965,-0.0080242156982421,-46.68050003051758,-23.67580223083496,-23.884239196777344,6.271930694580078,-2.347005844116211,-7.880067825317383,-32.72675323486328,-71.10057067871094,-94.9705810546875,2.858046531677246,-3.947214603424072,-5.018259048461914,-169.61508178710938,-82.3208999633789,80.09300994873047,4.191681861877441,-0.2209940552711486,-3.358247756958008
450.6250464916229,168.76828002929688,-25.029993057250977,-135.21530151367188,-15.990793228149414,-8.188398361206055,-15.429773330688477,-137.0213623046875,-69.59851837158203,-79.24430084228516,-1.555729627609253,0.0892102718353271,0.7013149261474609,-49.144474029541016,-37.57209396362305,-19.50839614868164,11.802776336669922,-5.140844345092773,-5.718090057373047,-24.834930419921875,-72.11482238769531,-100.85765838623048,6.015056610107422,-4.277251243591309,-1.3390932083129885,-157.99192810058594,-81.99903869628906,67.64493560791016,3.078272819519043,-1.4042925834655762,-1.0089797973632812
450.6542999744415,170.93362426757812,-28.12899208068848,-138.62326049804688,-6.565091133117676,-1.8321399688720703,14.109113693237305,-142.9628143310547,-67.65308380126953,-73.6775894165039,-2.3798632621765137,-2.50498104095459,0.8936805725097656,-53.556114196777344,-52.442138671875,-16.118650436401367,11.316608428955078,-10.68482780456543,7.255197525024414,-13.280644416809082,-70.72592163085938,-110.97032928466795,6.558934211730957,-10.97226905822754,4.522312164306641,-145.34617614746094,-80.75405883789062,55.20647811889648,-3.265615940093994,-0.3916988372802734,1.6811342239379885
450.7142698764801,173.2795867919922,-28.866722106933597,-139.6702423095703,-21.311458587646484,-3.341036319732666,1.4370365142822266,-148.49957275390625,-67.48282623291016,-67.41474151611328,-2.7206149101257324,-0.8937757015228271,0.8063449859619141,-52.56704711914063,-65.75753021240234,-13.59822940826416,18.97061920166016,-9.955963134765623,23.43143844604492,14.4959716796875,-67.83062744140625,-133.123291015625,10.630775451660156,-5.993982315063477,17.66238021850586,-142.43959045410156,-79.19720458984375,54.4820671081543,-3.9872403144836426,2.679781913757324,5.373981475830078
450.74630641937256,171.77577209472656,-28.995779037475582,-139.78945922851562,-20.654903411865234,2.62751579284668,7.90557861328125,-153.26683044433594,-68.09938049316406,-61.70813751220703,-5.040367126464844,-1.836085081100464,-0.2205066680908203,-57.46962356567383,-71.6780014038086,-7.255627155303955,17.930492401123047,-3.753180980682373,18.153568267822266,52.63026809692383,-58.98480224609375,-162.5571746826172,31.22330093383789,-21.22928237915039,24.584102630615234,-141.2702178955078,-78.16730499267578,55.665374755859375,4.15240478515625,2.8047122955322266,9.91144561767578
450.77472281456,170.96188354492188,-26.839046478271484,-138.99374389648438,-12.023088455200195,-3.3655271530151367,9.617029190063477,-155.19911193847656,-69.06363677978516,-59.69029998779297,-5.489845275878906,-2.2926783561706543,-0.743433952331543,-78.32835388183594,-68.69075775146484,7.641278266906738,19.629783630371094,-1.86529541015625,13.530128479003906,67.9622573852539,-42.40505599975586,179.70391845703125,12.913772583007812,-9.627939224243164,19.927684783935547,-140.26084899902344,-78.75653839111328,56.5501708984375,4.553829193115234,2.245579719543457,5.663274765014648
450.8042640686035,170.48550415039062,-23.398719787597656,-138.28001403808594,-11.799835205078123,-7.518557548522949,8.46563720703125,-154.6605224609375,-70.34127807617188,-61.19976043701172,-3.5983119010925293,-0.9978408813476562,0.2550725936889648,-96.5156021118164,-62.665287017822266,11.522012710571287,3.238849639892578,-5.87496280670166,15.268499374389648,73.98323822021484,-21.702789306640625,169.43002319335938,5.978241920471191,-5.266416549682617,7.907703399658203,-141.34262084960938,-79.4464340209961,58.44538879394531,5.205842971801758,1.988213062286377,4.290408134460449
450.8346707820892,169.31253051757812,-20.23857688903809,-136.5950927734375,-14.593114852905272,-5.319400787353516,3.070094108581543,-153.61875915527344,-72.26766967773438,-63.33436965942383,-2.5656309127807617,-0.6387916803359985,0.5393781661987305,-103.06076049804688,-60.2012939453125,9.086135864257812,-1.2878146171569824,-0.4124050140380859,8.411798477172852,74.34175109863281,0.8227766156196594,160.90158081054688,-4.87621021270752,-3.978834629058838,4.178065299987793,-144.0344696044922,-80.03301239013672,60.265811920166016,5.8835296630859375,0.649648904800415,1.67486572265625
450.8638656139374,167.503173828125,-19.802637100219727,-134.01028442382812,-9.473089218139648,-5.166266441345215,-6.695995330810547,-152.722412109375,-74.91007995605469,-65.23350524902344,-3.166782855987549,-0.9853179454803468,0.5164175033569336,-107.23126983642578,-61.68311309814453,4.431818008422852,-3.468397617340088,0.7481950521469116,4.545688629150391,69.27615356445312,21.903640747070312,152.15072631835938,-4.310192108154297,-3.36979341506958,-9.475332260131836,-150.50665283203125,-80.50017547607422,64.79063415527344,5.34815788269043,0.2157887816429138,0.9576177597045898
450.8946144580841,167.62872314453125,-20.94769859313965,-132.05287170410156,0.3387510776519775,-1.697265386581421,1.667377471923828,-150.17755126953125,-78.13626861572266,-68.51521301269531,-3.228744983673096,-1.4680662155151367,0.1392230987548828,-111.483154296875,-64.49565124511719,-1.9907406568527224,-6.96104621887207,4.273154258728027,3.0546131134033203,62.77709579467773,37.708106994628906,141.40045166015625,2.7622971534729004,-8.527900695800781,-10.866931915283203,-158.0979461669922,-80.79454803466797,69.5797348022461,2.601837158203125,0.3407054543495178,0.3394927978515625
450.9246125221253,167.0162811279297,-25.16621208190918,-131.70559692382812,-4.834043502807617,-1.641145944595337,-7.386651992797852,-143.22677612304688,-81.41352844238281,-75.97215270996094,-3.1797332763671875,-2.0863146781921387,0.657689094543457,-113.44588470458984,-67.37140655517578,-10.814716339111328,-5.2636308670043945,6.752202987670898,0.3080148696899414,50.797828674316406,46.03521347045898,129.44186401367188,-1.207932710647583,-15.196340560913086,-6.750190734863281,-163.54261779785156,-80.72273254394531,73.2112808227539,-0.2591404318809509,-0.0034049963578581,-1.4464035034179688
450.9556152820587,161.49542236328125,-32.136959075927734,-132.14816284179688,-4.530692100524902,-0.271268367767334,-5.12896728515625,-126.77853393554688,-83.9760513305664,-93.01716613769533,-2.770413875579834,-1.7175378799438477,-0.2649621963500976,-111.8482437133789,-70.10844421386719,-22.09450340270996,-5.141750335693359,6.855443954467773,-2.64493179321289,33.792259216308594,47.1619873046875,121.43550872802734,3.6370949745178223,-9.815963745117188,-8.01565933227539,-168.4636993408203,-80.41421508789062,77.30811309814453,0.5012222528457642,-0.6834284067153931,-2.722748279571533
451.0141725540161,155.6697235107422,-41.45961380004883,-132.41119384765625,-4.41555118560791,-1.1840600967407229,-4.253140449523926,-99.0384521484375,-85.07411193847656,-121.24644470214844,-2.452223777770996,-2.047918796539306,-2.1077089309692383,-107.0932159423828,-72.01227569580078,-34.368350982666016,-3.60300874710083,6.499397277832031,-5.527805328369141,22.317657470703125,44.911163330078125,119.85816955566406,2.6912970542907715,-4.5438337326049805,-5.676861763000488,-173.7356719970703,-79.9052734375,81.468994140625,2.772658348083496,-1.0010180473327637,-2.862746238708496
451.0441596508026,151.04396057128906,-52.52239227294922,-131.31944274902344,-3.989689350128174,-2.4090323448181152,-2.7890915870666504,-79.72272491455078,-84.55022430419922,-141.18231201171875,-2.920111179351806,-3.449676513671875,-4.991419792175293,-100.39583587646484,-72.89295196533203,-47.08188629150391,-1.0384092330932615,5.2381086349487305,-6.701403617858887,18.763410568237305,41.3227653503418,123.41535949707033,6.1313676834106445,-0.3532310724258423,-6.500326156616211,-177.61376953125,-79.73918151855469,83.82102966308594,3.274237155914306,-0.8973767757415771,-3.8341164588928223
451.1047089099884,146.88623046875,-64.87754821777344,-126.7934341430664,-3.227935314178467,-3.43475341796875,0.9764089584350586,-79.73591613769531,-83.41301727294922,-141.62184143066406,-2.4418044090271,-2.9847865104675293,-6.880600929260254,-94.4144058227539,-73.09420013427734,-58.45256805419922,-0.6593797206878662,4.211516380310059,-7.193912506103516,24.28717613220215,36.63219833374024,132.0831298828125,4.636874198913574,2.629405975341797,-8.265130996704102,179.6205596923828,-79.79207611083984,85.44515991210938,1.707449197769165,-0.9681283235549928,-5.550280570983887
451.1098003387451,135.11541748046875,-76.85859680175781,-109.38390350341795,2.180576801300049,0.4064369201660156,6.562015533447266,-92.64694213867188,-81.44882202148438,-128.3083038330078,-2.845677375793457,-5.042043685913086,-4.169971466064453,-90.25836181640624,-73.29627227783203,-67.56025695800781,0.3150011301040649,3.4221396446228027,-7.138760566711426,37.07938766479492,30.683536529541016,147.17971801757812,-12.052873611450195,5.576388359069824,-12.549276351928713,178.5513458251953,-79.86038208007812,86.53170776367188,-0.7180535793304443,-1.8779644966125488,-4.756884574890137
451.134788274765,85.4099349975586,-81.76921081542969,-51.81193923950195,12.395620346069336,6.225044250488281,3.678289413452149,-104.83433532714844,-78.68084716796875,-116.1240234375,0.5276281833648682,-0.5000855922698975,6.868612289428711,-87.28799438476562,-74.04483795166016,-75.18722534179688,1.343290090560913,2.600264072418213,-7.353477478027344,45.63694763183594,21.90751075744629,166.01707458496094,-44.72943878173828,8.704763412475586,-23.453418731689453,179.43296813964844,-80.46424102783203,87.39073944091797,-2.519334316253662,-1.6501171588897705,-5.059428215026856
451.1651101112366,59.18798828125,-78.51375579833984,-18.178443908691406,13.538820266723633,11.14480972290039,-7.055622100830078,-112.48804473876952,-75.68184661865234,-108.54029083251952,-3.1590633392333984,2.2853260040283203,1.250779151916504,-85.25322723388672,-75.6059799194336,-82.05235290527344,1.585348129272461,2.114534378051758,-5.329282760620117,53.484962463378906,22.57860374450684,165.20909118652344,21.741153717041016,12.788904190063477,-13.21453857421875,179.2978973388672,-81.05216217041016,89.34800720214844,2.549769878387451,1.100811004638672,-3.246830463409424
451.1939940452576,58.37125396728516,-76.4642105102539,-14.30872917175293,13.968465805053713,14.39394760131836,-10.609663009643556,-109.44803619384766,-74.13265228271484,-110.65721130371094,-4.679701805114746,-0.8240854740142822,2.593587875366211,-82.73927307128906,-77.69002532958984,-90.16996002197266,0.9062557220458984,0.8702572584152222,-4.600811004638672,67.45745086669922,27.28148460388184,156.47952270507812,-4.530215263366699,-0.4520561099052429,-12.452781677246094,-179.1244659423828,-80.66960906982422,86.93853759765625,9.537731170654297,-0.3925370573997497,2.760639190673828
451.22508335113525,78.89222717285156,-76.83989715576172,-33.89612579345703,13.48173713684082,0.8166086673736572,-2.8581833839416504,-100.40515899658205,-72.93682098388672,-119.2381362915039,-6.232723236083984,-1.600020408630371,2.553882598876953,-82.36563110351562,-79.62326049804688,-97.68658447265624,2.1798224449157715,1.7175049781799316,2.3693771362304688,62.52181243896485,31.062026977539062,144.86282348632812,-0.0332198366522789,1.0233829021453855,-4.684879302978516,-177.323486328125,-80.68063354492188,85.26776885986328,8.914512634277344,0.3572656512260437,4.351951599121094
451.25415563583374,98.9134750366211,-77.85845184326172,-55.10776138305664,3.307992935180664,-10.61766242980957,2.872145652770996,-91.51099395751952,-71.28530883789062,-129.01206970214844,-4.064263343811035,-3.404114246368408,2.918360710144043,-89.54649353027344,-82.63116455078125,-96.26139068603516,8.37717056274414,1.2235417366027832,8.550981521606445,59.91816329956055,32.97073745727539,130.1388397216797,-5.80506706237793,-0.3724357485771179,-3.7318015098571777,-177.7245330810547,-80.08301544189453,86.36811065673828,0.8170726299285889,-0.287026584148407,5.924062728881836
451.31399297714233,115.15596771240234,-78.024658203125,-73.82355499267578,-6.177610397338867,-1.3844115734100342,10.98554801940918,-79.81455993652344,-69.55487060546875,-139.02069091796875,-4.42188835144043,-8.031414031982422,0.3283615112304687,-131.08023071289062,-85.2747802734375,-59.88151168823242,13.602380752563477,-0.3637514114379883,14.333000183105469,54.94590759277344,31.642501831054688,114.18267822265624,-5.39894962310791,-5.628689765930176,-3.712705612182617,-178.90077209472656,-79.3105697631836,87.86930084228516,-3.356161117553711,-3.258398056030273,2.100040435791016
451.34458780288696,131.55816650390625,-76.0230484008789,-87.51473236083984,-3.998347759246826,2.4548592567443848,-0.2437314987182617,-68.26343536376953,-68.4221420288086,-143.64891052246094,-18.60223388671875,3.287330150604248,-2.3744521141052246,-170.9410858154297,-85.01685333251953,-18.86909866333008,9.792757034301758,4.050214767456055,6.178121566772461,50.045013427734375,24.97635269165039,99.29972839355467,0.2270585000514984,-8.849809646606445,-11.372795104980469,-179.52972412109375,-78.61881256103516,89.81745910644531,-3.0124073028564453,2.839290142059326,-2.4408836364746094
451.37468814849854,143.93588256835938,-75.10614013671875,-98.94670104980467,0.0342475473880767,4.0220794677734375,-1.8612446784973145,-79.65880584716797,-68.27006530761719,-122.2378921508789,-40.991676330566406,-1.5684645175933838,-3.6740355491638175,-178.89471435546875,-84.69242095947266,2.871276617050171,-1.8516545295715328,5.245269775390625,1.3477535247802734,47.957298278808594,15.052987098693848,85.79444122314453,-0.4071598052978515,-5.496612548828125,-13.32868194580078,-179.88339233398438,-76.60806274414062,90.94515228271484,-3.7821645736694336,-1.5124614238739014,-2.459141731262207
451.40451741218567,154.3727264404297,-74.44991302490234,-108.83682250976562,3.85878324508667,-2.329030036926269,1.3437681198120115,-113.72510528564452,-63.799652099609375,-86.35448455810547,-16.881580352783203,-8.533943176269531,-0.1773548126220703,-166.83697509765625,-84.8606948852539,5.633419513702393,-6.298847198486328,-4.423374176025391,-0.7595901489257812,48.06742477416992,5.318907260894775,72.00472259521484,2.952887535095215,2.6256237030029297,-8.199682235717773,-178.72274780273438,-75.08349609375,92.50017547607422,-3.8704752922058105,-1.676732063293457,0.2914896011352539
451.43451833724976,162.59901428222656,-73.50435638427734,-117.39152526855467,-0.2848551869392395,1.4546406269073486,1.0903825759887695,-133.5382080078125,-55.61724090576172,-63.29345703125,-4.050768852233887,-2.1621289253234863,-6.265193939208984,-152.98391723632812,-85.0888900756836,-3.4485630989074707,-5.323076248168945,-4.480876922607422,-3.5247998237609863,54.50382232666016,-2.02442479133606,60.15050506591797,20.845733642578125,-4.7538909912109375,-14.578044891357422,-179.11363220214844,-74.86925506591797,93.85657501220705,-3.21789026260376,3.2551093101501465,1.9647884368896484
451.46451902389526,167.18768310546875,-72.59790802001953,-122.36038208007812,2.271881580352783,-0.8151708841323853,0.4764986038208008,-144.1434783935547,-46.986698150634766,-49.45956039428711,0.6541993618011475,1.4555530548095703,-10.37397575378418,-142.21153259277344,-85.41162109375,-16.658811569213867,-8.407526016235352,2.4732866287231445,-3.840024471282959,73.73323822021484,-6.858994483947754,52.52892303466797,5.4767351150512695,-2.655169486999512,-8.715225219726562,-179.37672424316406,-74.9324951171875,93.78507995605467,-2.4325761795043945,0.9436955451965332,3.984009742736816
451.494181394577,169.45265197753906,-71.99853515625,-124.2354736328125,0.9688498973846436,-0.5868169069290161,0.6102886199951172,-152.2438201904297,-40.10455322265625,-40.18964767456055,2.51369857788086,1.4073808193206787,-11.562555313110352,-130.4888916015625,-85.74393463134766,-28.56887626647949,-8.162586212158203,1.7754018306732178,-2.677216053009033,92.72166442871094,-10.250066757202148,47.51565933227539,-10.18133544921875,0.2601802349090576,11.043172836303713,179.0361785888672,-75.83226776123047,95.56448364257812,-1.0037202835083008,2.756279468536377,3.01206111907959
451.52426505088806,170.91943359375,-71.72364044189453,-124.7772445678711,-0.1942063868045807,0.6343830823898315,0.5161848068237305,-160.14508056640625,-36.26618576049805,-33.5290641784668,1.342127561569214,-0.7373641729354858,-6.794591903686523,-122.9354019165039,-85.66085815429688,-36.02748107910156,-6.279657363891602,1.7470197677612305,-1.6545257568359375,108.73662567138672,-12.780720710754396,42.50620269775391,0.6271628141403198,-2.0781283378601074,-1.967264175415039,172.17822265625,-77.69934844970703,101.58697509765624,0.3389614224433899,3.286940097808838,-3.1593265533447266
451.554443359375,172.0731201171875,-71.55183410644531,-125.30845642089844,-0.6036525964736938,0.1555878221988678,0.0846834182739257,-165.96310424804688,-36.58601760864258,-28.646583557128903,11.424957275390623,0.1667239069938659,-5.462635040283203,-115.8074722290039,-84.99198913574219,-44.82780075073242,-5.152652740478516,0.3590230941772461,-0.7639923095703125,131.4185791015625,-16.4022216796875,40.43144226074219,3.8619866371154794,-1.582458257675171,3.006802558898926,162.13059997558594,-78.56847381591797,109.74237823486328,-0.6649932861328125,1.194239616394043,-5.135034561157227
451.6145136356354,172.6691131591797,-71.06649017333984,-125.23015594482422,0.5130355358123779,-1.84173583984375,-0.6506500244140625,-169.4503631591797,-40.342071533203125,-26.60526466369629,16.94591522216797,-0.6381363868713379,-6.649936676025391,-99.4713134765625,-82.88373565673828,-64.49710845947266,-1.6626839637756348,3.169867992401123,-0.2172966003417968,140.5777130126953,-24.11507606506348,37.14896774291992,2.39216947555542,-5.106660842895508,8.25621223449707,152.46640014648438,-78.18902587890625,117.64065551757812,-2.490874767303467,-0.3400955200195312,-4.076578140258789
451.644748210907,172.70358276367188,-70.09363555908203,-123.953125,0.7213802337646484,-1.8038196563720703,-0.7958526611328125,-170.7458038330078,-47.85331726074219,-26.17425346374512,15.15445327758789,-4.788228988647461,-3.331518173217773,-88.90156555175781,-77.63062286376953,-81.48362731933594,-0.2998032569885254,5.932703018188477,-1.479999542236328,139.5918731689453,-37.40096282958984,27.69795799255371,14.25053596496582,2.654031753540039,3.413728713989258,141.4470977783203,-77.71347045898438,127.64627838134766,-3.6795053482055664,-0.8105189800262451,-3.858475208282471
451.6747455596924,171.92405700683594,-68.49491119384766,-122.18572998046876,-0.2128960788249969,-1.934682846069336,-1.2108516693115234,-174.45626831054688,-51.60310363769531,-23.554229736328125,-16.072784423828125,-2.7262978553771973,35.01740264892578,-82.37120819091797,-71.4593734741211,-92.18767547607422,3.636669635772705,6.16196346282959,-0.9304962158203124,131.01165771484375,-52.313995361328125,14.688894271850586,15.652996063232422,-5.902178764343262,31.771671295166016,130.47926330566406,-77.06634521484375,138.69293212890625,-1.8007471561431885,-0.8307199478149414,-2.839254379272461
451.7044906616211,171.34078979492188,-66.26510620117188,-120.62372589111328,-1.7037174701690674,0.116966113448143,-0.342656135559082,-175.28150939941406,-51.5037727355957,-23.52686309814453,12.15761947631836,-3.542149066925049,2.733154296875,-73.62779235839844,-65.36162567138672,-101.57794189453124,9.51789093017578,3.910953998565674,2.3418331146240234,125.96350860595705,-53.25215911865234,9.907114028930664,24.205177307128903,0.8497620820999146,-8.361379623413086,125.0848617553711,-76.20768737792969,143.3727264404297,7.182782173156738,0.893607497215271,-2.047801971435547
451.7345683574677,171.6668701171875,-63.66939926147461,-119.84979248046876,-0.0551833361387252,0.7685037851333618,-0.0027427673339843,-173.98077392578125,-49.83205032348633,-23.98194694519043,13.342391967773438,-2.34119176864624,13.736934661865234,-61.5776252746582,-57.8165283203125,-111.56039428710938,4.382901191711426,1.7131891250610352,2.585066795349121,132.521484375,-45.213191986083984,8.627999305725098,16.690715789794922,0.594417929649353,5.008977890014648,124.13729858398438,-74.91535949707031,142.54714965820312,-0.4962631464004516,1.3398020267486572,3.785703659057617
451.76466059684753,173.20651245117188,-61.20083999633789,-120.90564727783205,-1.0099902153015137,0.800086498260498,0.4927320480346679,-172.0591278076172,-46.92599487304688,-25.694557189941406,11.82321548461914,-7.196828842163086,11.414602279663086,-59.7949333190918,-47.69047927856445,-115.27581024169922,2.9208226203918457,5.324281692504883,8.192977905273438,138.88681030273438,-40.41918182373047,10.232608795166016,16.87063980102539,10.789373397827148,2.0029468536376958,128.4306640625,-73.64244842529297,138.22799682617188,-5.760129928588867,-1.7252187728881836,7.003377914428711
