Timestamp,D4:22:CD:00:05:5D_EulerX,D4:22:CD:00:05:5D_EulerY,D4:22:CD:00:05:5D_EulerZ,D4:22:CD:00:05:5D_FreeAccX,D4:22:CD:00:05:5D_FreeAccY,D4:22:CD:00:05:5D_FreeAccZ,D4:22:CD:00:05:5E_EulerX,D4:22:CD:00:05:5E_EulerY,D4:22:CD:00:05:5E_EulerZ,D4:22:CD:00:05:5E_FreeAccX,D4:22:CD:00:05:5E_FreeAccY,D4:22:CD:00:05:5E_FreeAccZ,D4:22:CD:00:05:6B_EulerX,D4:22:CD:00:05:6B_EulerY,D4:22:CD:00:05:6B_EulerZ,D4:22:CD:00:05:6B_FreeAccX,D4:22:CD:00:05:6B_FreeAccY,D4:22:CD:00:05:6B_FreeAccZ,D4:22:CD:00:05:6E_EulerX,D4:22:CD:00:05:6E_EulerY,D4:22:CD:00:05:6E_EulerZ,D4:22:CD:00:05:6E_FreeAccX,D4:22:CD:00:05:6E_FreeAccY,D4:22:CD:00:05:6E_FreeAccZ,D4:22:CD:00:49:AA_EulerX,D4:22:CD:00:49:AA_EulerY,D4:22:CD:00:49:AA_EulerZ,D4:22:CD:00:49:AA_FreeAccX,D4:22:CD:00:49:AA_FreeAccY,D4:22:CD:00:49:AA_FreeAccZ
1502.2174892425537,-151.25262451171875,-70.84407043457031,-29.3701171875,-3.073936939239502,-6.047003746032715,0.3551807403564453,-115.8292999267578,-74.74142456054688,-66.52871704101562,-4.934714317321777,-9.972566604614258,14.81393814086914,-133.530517578125,25.22084617614746,-83.95330047607422,27.3572998046875,-9.060617446899414,-9.141517639160156,85.70313262939453,-70.48192596435547,35.73582077026367,3.427182674407959,15.691804885864258,12.220930099487305,142.5135040283203,-80.5889663696289,134.7289581298828,-3.973371982574463,-2.1820831298828125,6.780916213989258
1502.2461886405945,-163.30242919921875,-66.37630462646484,-17.58224868774414,-2.569099903106689,-2.561676502227783,0.5795755386352539,155.1968994140625,-70.59346008300781,17.413007736206055,1.2314729690551758,-6.886943817138672,19.47613525390625,-116.42452239990234,23.318649291992188,-86.4857406616211,32.64110565185547,-5.254268646240234,-0.6192340850830078,159.42852783203125,-71.51354217529297,-42.960479736328125,14.289255142211914,-3.2802462577819824,8.353618621826172,136.53907775878906,-80.44486236572266,140.24314880371094,-0.2606210112571716,-1.785252571105957,8.618467330932617
1502.3067157268524,-168.15415954589844,-62.84268569946289,-12.536113739013672,-4.034029006958008,0.4294749498367309,1.5044841766357422,141.8323974609375,-63.7179069519043,33.3769416809082,5.010861396789551,4.155888557434082,22.594993591308597,-99.7373046875,28.989864349365234,-85.92993927001953,27.723224639892575,-7.366913795471191,10.598749160766602,-142.16062927246094,-71.45164489746094,-100.37494659423828,1.6179935932159424,-10.152145385742188,13.90179443359375,146.337890625,-79.26494598388672,130.6375274658203,1.5047259330749512,-4.039474487304688,18.73646545410156
1502.3362984657288,-169.65077209472656,-61.58550262451172,-10.923558235168455,-4.250791549682617,-3.9780077934265137,2.971938133239746,146.8556671142578,-64.72633361816406,29.969200134277344,-0.8528608083724976,-0.3600411415100097,9.955781936645508,-78.31438446044922,37.31713104248047,-77.72200775146484,22.612319946289062,-8.162576675415039,21.162769317626957,-111.15618133544922,-67.8293228149414,-126.70659637451172,-13.993614196777344,-9.125627517700195,13.64274787902832,153.4622802734375,-77.7487564086914,123.6544952392578,-1.5948703289031982,-6.846395492553711,9.116003036499023
1502.366545677185,-169.55416870117188,-62.505104064941406,-10.993728637695312,-2.4708619117736816,-0.784676194190979,1.7521333694458008,154.48394775390625,-62.215518951416016,24.7368221282959,-19.11194610595703,10.347393035888672,13.28331184387207,-47.906063079833984,41.97494125366211,-63.83283996582031,9.502386093139648,-14.186918258666992,19.263656616210938,-106.4072723388672,-65.97994232177734,-131.1373748779297,-9.231853485107422,-7.695075988769531,11.068418502807615,164.62286376953125,-75.5299072265625,114.2970199584961,-1.1776087284088137,-1.7944276332855225,8.566827774047852
1502.3969316482544,-166.4338836669922,-65.19568634033203,-13.36111068725586,-2.4646544456481934,-1.2722365856170654,1.5919122695922852,169.70924377441406,-55.87993621826172,18.059823989868164,-10.57851791381836,5.808811187744141,-0.7586889266967773,-21.35599136352539,40.89208221435547,-51.21641540527344,-3.646657943725586,-8.384513854980469,10.327007293701172,-100.02764129638672,-65.33016204833984,-135.26364135742188,-8.880691528320312,-7.822589874267578,5.956080436706543,175.8600311279297,-75.38542175292969,106.85070037841795,0.7361063957214355,-0.1906491816043853,4.593912124633789
1502.426574230194,-161.2496795654297,-69.81149291992188,-18.072633743286133,-2.8121280670166016,-4.341458320617676,2.568549156188965,-177.23915100097656,-51.58095550537109,14.43388557434082,0.2303812801837921,6.413608551025391,-12.452465057373049,-8.218010902404785,37.24789047241211,-43.645877838134766,-9.130434036254885,-11.74637222290039,4.041170120239258,-80.60804748535156,-65.7732162475586,-143.19395446777344,-6.432307243347168,-0.3948566317558288,2.532280921936035,-169.43206787109375,-76.28848266601562,95.98703002929688,1.3235609531402588,1.965120553970337,-0.338602066040039
1502.456805229187,-154.01133728027344,-76.07756805419922,-24.174304962158203,0.2586322426795959,-4.828547477722168,6.333251953125,-167.83718872070312,-50.59673690795898,10.28952980041504,4.748663902282715,3.753716468811035,-22.685272216796875,-3.622215509414673,34.75870513916016,-41.15022659301758,-7.097958564758301,-11.307401657104492,-4.522235870361328,-51.010196685791016,-65.57764434814453,-151.10562133789062,-8.724981307983398,4.123470306396484,-4.906393051147461,-152.0110626220703,-76.0445785522461,82.15895080566406,-1.2781074047088623,1.6675729751586914,-6.040081977844238
1502.4868054389954,-131.88014221191406,-82.47843170166016,-47.49488067626953,8.517723083496094,3.684921741485596,7.123138427734375,-164.10911560058594,-54.64510726928711,4.352344989776611,9.106573104858398,9.611318588256836,-23.70836639404297,-4.687624931335449,34.40181350708008,-41.555057525634766,-5.682183265686035,-11.781932830810549,-8.375234603881836,-22.195465087890625,-64.34329223632812,-156.75953674316406,-12.855520248413086,-8.455099105834961,-13.01571273803711,-140.6938934326172,-74.89961242675781,74.34976959228516,0.3874284029006958,0.3017237782478332,-7.895454406738281
1502.5168251991272,-108.89496612548828,-84.90926361083984,-74.98982238769531,-4.950336456298828,2.89097261428833,-9.479473114013672,-152.41958618164062,-64.82820129394531,-8.725456237792969,9.492006301879885,4.45580005645752,-16.81802749633789,-2.765643835067749,36.97295379638672,-46.68825149536133,-1.325505256652832,-11.095142364501951,-12.227249145507812,-8.39102554321289,-63.01642608642578,-159.4490966796875,-4.804924964904785,-10.628772735595703,-12.610336303710938,-133.15066528320312,-74.704345703125,68.65152740478516,-0.848376989364624,-1.0650365352630615,-8.245656967163086
1502.546930551529,-160.286376953125,-85.82087707519531,-20.610876083374023,-12.620349884033203,8.84549331665039,-5.486077308654785,-119.3967514038086,-74.93229675292969,-44.66827774047852,3.090886116027832,-3.1551284790039062,-9.120508193969728,3.7648754119873047,42.40541458129883,-57.948822021484375,-3.3526511192321777,-7.315911293029785,-17.674972534179688,-3.842224359512329,-61.80794525146485,-159.84095764160156,-0.1264234185218811,-3.57827091217041,-11.065044403076172,-123.60858154296876,-74.34049987792969,61.18626403808594,-1.0928661823272705,-1.1784582138061523,-8.583723068237305
1502.607307434082,171.77850341796875,-80.09144592285156,18.303794860839844,-2.114325046539306,8.25963020324707,-7.09803581237793,-60.638065338134766,-73.9391098022461,-107.84362030029295,-9.237445831298828,-9.130882263183594,-5.244419097900391,7.988410949707031,48.46587371826172,-77.85511779785156,4.224617004394531,4.931147575378418,-20.40522766113281,0.5890834927558899,-60.66023635864258,-159.4056396484375,0.5310850143432617,-1.4875402450561523,-9.329204559326172,-116.62447357177734,-74.84320068359375,57.58345413208008,1.3892817497253418,1.7672741413116455,-7.438961982727051
1502.6363518238068,176.3316650390625,-77.05699157714844,23.961408615112305,12.182783126831056,-2.336139678955078,-7.123543739318848,-37.39313507080078,-64.00824737548828,-136.95750427246094,-17.03995132446289,-9.98481559753418,0.1836681365966797,-8.031820297241211,49.57588195800781,-106.43486785888672,8.948343276977539,-5.4323835372924805,-30.77890014648437,7.169309616088867,-59.570438385009766,-158.79737854003906,1.130964279174805,-3.300912380218506,-8.447568893432617,-109.42185974121094,-76.16966247558594,53.58525085449219,0.1164855659008026,1.017994403839111,-4.504763603210449
1502.6668004989624,173.79879760742188,-76.84721374511719,22.757783889770508,-0.9362319707870485,-9.342063903808594,2.110921859741211,-28.395526885986328,-56.43593215942383,-147.9444580078125,-34.84642028808594,-12.48200225830078,-14.418098449707031,-31.30914306640625,45.22043991088867,-120.6175765991211,-9.605531692504885,5.745923042297363,-19.891033172607425,13.525625228881836,-58.38708114624024,-158.5084686279297,1.6581759452819824,-3.1469931602478027,-8.668815612792969,-99.71732330322266,-76.66187286376953,47.61757278442383,-3.1902432441711426,-1.3576443195343018,-2.3462677001953125
1502.6967968940735,171.24710083007812,-76.34014129638672,23.83960723876953,10.063655853271484,0.7479919195175171,-0.3744335174560547,-36.26676177978516,-57.20344161987305,-146.36830139160156,-24.29918670654297,-3.760105609893799,-12.490867614746094,-46.4419174194336,46.20695877075195,-117.0374755859375,-7.493451118469238,7.013344764709473,-10.281795501708984,18.500274658203125,-56.37123489379883,-158.1851806640625,-0.1480424106121063,-2.2642464637756348,-7.236276626586914,-94.06517028808594,-77.16210174560547,43.50683975219727,-2.2714319229125977,4.754952430725098,-3.0846047401428223
1502.7266247272491,169.78248596191406,-75.42415618896484,29.65216064453125,-0.0475413650274276,-0.9394645690917968,2.686903953552246,-52.31988525390625,-61.22455978393555,-135.0889129638672,-25.949966430664062,-11.291399002075195,-4.02226448059082,-40.68427658081055,47.29765319824219,-111.8126220703125,-4.848367691040039,3.4633092880249023,-13.524633407592772,22.613933563232425,-55.24312210083008,-156.0005340576172,-4.45831298828125,-5.906627655029297,-4.317531585693359,-102.75472259521484,-79.48153686523438,48.1213264465332,8.964691162109375,0.6325619220733643,0.2749443054199219
1502.7569606304169,167.10986328125,-75.02474212646484,33.222042083740234,-0.4509553909301758,6.628098487854004,3.290254592895508,-65.4012680053711,-63.39764022827149,-125.43766784667967,15.62233543395996,-15.085247039794922,6.490901947021484,-33.772647857666016,48.08607482910156,-101.34632873535156,4.3699493408203125,-2.406970500946045,-19.256511688232425,22.82138442993164,-58.10203552246094,-150.3056182861328,2.4954113960266118,-8.734647750854492,1.5437660217285156,-106.8163604736328,-82.1770248413086,48.68764114379883,-1.661271095275879,-5.300339698791504,9.453739166259766
1502.7870705127716,162.5655059814453,-74.95004272460938,38.869441986083984,3.1255197525024414,-1.299232006072998,4.508089065551758,-68.55089569091797,-65.79571533203125,-124.17745971679688,-6.21829891204834,-6.207806587219238,13.71225357055664,-25.92953872680664,48.612911224365234,-81.5259017944336,-11.218263626098633,-16.318988800048828,-10.718099594116213,11.984671592712402,-64.172119140625,-140.0386962890625,12.598316192626951,-7.72889232635498,7.256290435791016,-103.12557220458984,-84.54608917236328,42.35184097290039,-7.792438507080078,-1.8638734817504885,5.652653694152832
1502.8171622753143,155.1025390625,-74.4757308959961,46.46945571899414,0.8763911724090576,-0.8697828054428101,4.231938362121582,-70.18556213378906,-67.80293273925781,-122.92556762695312,-3.0841832160949707,-1.3772468566894531,9.250810623168944,-10.449445724487305,42.757545471191406,-63.187984466552734,-5.96373176574707,-15.390609741210938,-2.054405689239502,-14.434561729431152,-70.37493133544922,-127.68762969970705,10.114849090576172,-11.66288948059082,6.236370086669922,-109.48191833496094,-85.41324615478516,46.8691635131836,1.7123444080352783,-1.16430926322937,-0.8152618408203125
1502.8467314243317,144.49200439453125,-74.347900390625,55.17488861083984,1.0393266677856443,-0.1997616291046142,3.0136375427246094,-75.31112670898438,-70.22361755371094,-120.40274047851562,-4.914065361022949,-1.2457971572875977,-0.5743932723999023,0.2618483006954193,31.63265609741211,-51.2006950378418,-9.186100006103516,-3.3962602615356445,3.544809341430664,-41.06668472290039,-76.45742797851562,-120.24275207519533,-1.9086053371429443,-5.886164665222168,11.778705596923828,-124.9204330444336,-84.81148529052734,61.093017578125,6.419897079467773,-1.3150897026062012,0.950937271118164
1502.9069509506226,132.7517852783203,-73.83949279785156,64.28863525390625,2.1180648803710938,2.2626047134399414,3.380746841430664,-70.91815185546875,-72.63988494873047,-124.1123504638672,-4.090811729431152,-3.2194714546203613,-2.761730670928955,7.630807876586914,15.20230197906494,-43.553707122802734,-8.622879028320312,1.9192113876342771,0.7336091995239258,-54.02014923095703,-81.19464874267578,-120.55645751953124,-0.3086748123168945,6.676592826843262,9.192512512207031,-140.90895080566406,-82.49726867675781,74.42233276367188,7.578738212585449,1.1444220542907717,0.1182641983032226
1502.9365327358246,116.60420989990234,-73.56245422363281,74.48519897460938,-5.668713569641113,6.487949371337891,-1.061187744140625,-65.77839660644531,-74.34030151367188,-128.93470764160156,-3.688244342803955,-5.700728416442871,0.8882083892822266,12.138669967651367,-6.039219379425049,-37.274391174316406,-0.2631398439407348,1.835014820098877,1.6967535018920898,-40.9998779296875,-84.98889923095703,-140.44491577148438,-1.3496625423431396,5.26356315612793,0.8800868988037109,-150.01612854003906,-80.38256072998047,78.93643188476562,7.560924530029297,-0.6649922132492065,-1.930748462677002
1502.9686844348907,116.97811126708984,-71.7619857788086,63.24736022949219,-29.14312744140625,2.9146742820739746,3.0623435974121094,-60.15950012207031,-75.61985778808594,-134.01028442382812,-2.5168685913085938,-3.2941784858703613,-0.2215595245361328,9.887211799621582,-29.02559280395508,-28.410776138305664,18.61273193359375,7.388082504272461,6.264474868774414,12.889330863952637,-86.62327575683594,160.44200134277344,-2.024698257446289,1.863802194595337,-5.455442428588867,-154.59786987304688,-79.703369140625,79.69107818603516,1.655500888824463,0.4262099266052246,0.6989021301269531
1502.9966745376587,130.17144775390625,-65.32699584960938,41.28277587890625,-16.914657592773438,11.176868438720703,5.647957801818848,-52.20383834838867,-76.35774993896484,-139.17230224609375,-2.228769302368164,-3.067938327789306,-0.4772615432739258,-15.487390518188477,-46.6397705078125,-12.792757987976074,5.035181045532227,11.04570770263672,3.2177963256835938,38.61559677124024,-84.73136138916016,132.47006225585938,-5.80574893951416,6.710034370422363,-7.308670997619629,-157.67311096191406,-79.3232192993164,81.92841339111328,-0.98017418384552,1.7969882488250732,1.040867805480957
1503.0565695762634,141.24742126464844,-54.987403869628906,25.503175735473636,-6.300844192504883,4.934576988220215,1.3349199295043943,-51.31319808959961,-77.21210479736328,-136.58255004882812,-1.9508965015411377,-3.3899025917053223,-2.420445919036865,-36.20635986328125,-52.31970977783203,1.263913869857788,-18.202770233154297,-2.3758769035339355,8.972461700439453,42.27763748168945,-83.46931457519531,131.09861755371094,-7.583417892456055,3.463754177093506,-7.598207473754883,-159.2550048828125,-78.5615234375,83.56423950195312,2.315134048461914,2.2305493354797363,-3.2460436820983887
1503.0625746250153,149.41297912597656,-43.41031265258789,14.99591064453125,0.0350263118743896,3.098316192626953,-6.541635513305664,-64.05978393554688,-77.99805450439453,-122.8277587890625,-5.177297592163086,-0.2754445075988769,-5.726897239685059,-36.171119689941406,-50.871768951416016,5.284907817840576,-5.616272926330566,0.7264645099639893,-5.698694229125977,39.85786437988281,-82.34811401367188,136.83770751953125,-4.886832237243652,-0.5430002212524414,-5.883974075317383,-162.62489318847656,-78.20211791992188,87.6341323852539,2.538174152374268,1.8664007186889648,-4.814693450927734
1503.0866920948029,157.16693115234375,-33.0536003112793,7.818181037902832,2.575141429901123,-1.7309291362762451,-13.349782943725586,-87.7999496459961,-76.69705200195312,-101.05912017822266,-4.432397842407227,-1.3717262744903564,-7.5683088302612305,-35.79808807373047,-49.1204833984375,5.194230556488037,-2.493579387664795,2.5667381286621094,-11.36923599243164,37.75141143798828,-79.61917114257812,142.11380004882812,-3.0424108505249023,-2.348087310791016,-4.7738237380981445,-165.98683166503906,-77.76968383789062,91.70209503173828,0.9516826868057252,1.299335241317749,-6.191098213195801
1503.1170196533203,164.09564208984375,-25.81561851501465,1.952538251876831,0.6790683269500732,-0.978607416152954,-12.457801818847656,-107.48834228515624,-73.37913513183594,-83.83624267578125,-2.343026161193848,-8.390308380126953,-0.5651655197143555,-41.56598281860352,-49.8966064453125,3.4379396438598637,-0.7589420080184937,1.050145149230957,-11.27851676940918,41.52722930908203,-74.63600158691406,141.7107391357422,-1.2013812065124512,-3.655500888824463,-2.2837066650390625,-166.23060607910156,-77.64170837402344,92.31983184814452,1.0215811729431152,1.5569157600402832,-5.259635925292969
1503.1466481685638,166.84507751464844,-23.151674270629883,-4.020479202270508,7.333959579467773,-5.673553466796875,-11.537347793579102,-119.39347076416016,-69.65726470947266,-73.67611694335938,-2.391796588897705,-4.548090934753418,3.683608055114746,-51.2713623046875,-54.93408203125,0.9355689883232116,-0.1319599151611328,-4.779848098754883,-2.5350584983825684,51.549922943115234,-67.08610534667969,137.55079650878906,-1.3113446235656738,-3.481515884399414,0.1171197891235351,-161.25686645507812,-78.4952163696289,86.61978912353516,5.222867965698242,0.4042049050331116,-2.213003158569336
1503.2068800926208,164.4265899658203,-25.088327407836918,-8.936695098876953,7.827189445495605,-4.181386947631836,-4.2783050537109375,-126.25152587890624,-66.34491729736328,-67.91575622558594,-5.687851905822754,-0.9169989824295044,0.1887340545654297,-53.03218460083008,-65.12920379638672,-4.5798020362854,-0.7314397096633911,-2.564239501953125,14.23078727722168,64.4002914428711,-57.000789642333984,133.3703155517578,-2.486894130706787,-8.006223678588867,2.868741035461426,-153.34414672851562,-79.44038391113281,77.68997192382812,0.8258302211761475,-1.2633378505706787,1.524435043334961
1503.2367882728577,165.11419677734375,-25.05199432373047,-10.283150672912598,14.681907653808594,-13.89487648010254,18.91230010986328,-129.81118774414062,-65.22691345214844,-65.02147674560547,-4.087104797363281,-0.3791020512580871,3.0597152709960938,-24.920085906982425,-75.9077377319336,-30.91073226928711,7.102811813354492,0.6978280544281006,35.541656494140625,66.69820404052734,-45.2146110534668,131.7110137939453,-1.888897180557251,-14.435422897338867,13.709161758422852,-151.2944793701172,-80.0287094116211,75.63875579833984,-2.854158401489258,-3.1361546516418457,5.229421615600586
1503.266788482666,167.4566650390625,-24.937402725219727,-7.469936370849609,21.554248809814453,-11.428308486938477,11.405710220336914,-132.4121856689453,-66.46143341064453,-62.54648208618164,-5.036430358886719,-1.5510742664337158,1.446176528930664,-9.400802612304688,-76.09330749511719,-40.72859191894531,14.902349472045898,2.2241640090942383,13.08449363708496,64.44065856933594,-31.06901741027832,131.5016326904297,3.605233669281006,-3.00496768951416,24.42124938964844,-153.34646606445312,-79.170166015625,77.54175567626953,2.855031490325928,2.634873390197754,12.086450576782228
1503.297038078308,168.60830688476562,-21.263612747192383,-3.337264060974121,18.51011657714844,-10.012474060058594,15.454473495483398,-132.2229766845703,-69.25870513916016,-62.99362564086914,-6.890224456787109,-3.3373613357543945,-0.2236051559448242,-30.08575439453125,-67.8428955078125,-11.82361125946045,30.210548400878903,-4.239470481872559,21.665771484375,66.55659484863281,-13.718328475952148,130.24134826660156,6.538895606994629,-4.565645217895508,26.694713592529297,-154.90185546875,-78.0172119140625,79.08331298828125,1.784794807434082,0.2918528914451599,7.945003509521484
1503.3265266418457,168.13992309570312,-14.78200340270996,-1.153872847557068,19.860897064208984,-1.8515262603759768,15.04421615600586,-125.9797821044922,-72.68452453613281,-70.45803833007812,-6.533405303955078,-3.5186734199523926,0.1143388748168945,-41.70244598388672,-56.41576385498047,0.299450159072876,7.485942840576172,-5.838741302490234,14.283571243286133,63.54898071289063,4.898708820343018,125.89840698242188,5.278985977172852,5.344420433044434,23.41960906982422,-159.96456909179688,-77.49443054199219,85.03955078125,5.13158130645752,2.947018623352051,9.153278350830078
1503.356832265854,165.7471923828125,-8.322909355163574,-1.0680350065231323,12.797962188720703,-6.400681495666504,10.971384048461914,-106.91120910644533,-76.85185241699219,-91.03096771240234,-4.260077476501465,-5.217120170593262,6.411479949951172,-43.946067810058594,-49.70224380493164,-1.0481780767440796,8.939529418945312,-1.865967035293579,0.4244213104248047,55.46215438842773,23.462646484375,119.06228637695312,-5.454883575439453,9.499418258666992,10.197200775146484,-165.8639373779297,-77.04466247558594,90.05313873291016,6.9117431640625,2.7874255180358887,7.945444107055664
1503.386829853058,164.6237335205078,-3.635195016860962,-0.7705729603767395,3.3943028450012207,-3.490560531616211,1.5411128997802734,-51.97602844238281,-78.14859771728516,-140.36978149414062,-6.801044464111328,7.588802337646484,7.502901077270508,-44.19379806518555,-47.84244155883789,-7.074817657470703,0.9937719106674194,-2.474639415740967,-5.285944938659668,47.22084045410156,37.53465270996094,110.28330993652344,-5.344855308532715,5.051690101623535,0.9827814102172852,-172.57855224609375,-77.1186752319336,95.1874008178711,4.875688552856445,1.112668752670288,4.152143478393555
1503.4168498516085,165.7745361328125,-2.3013346195220947,-0.0492856577038764,-3.285641670227051,-2.028700351715088,-9.573324203491213,-40.65581512451172,-75.93408966064453,-150.37681579589844,-9.007347106933594,1.4581596851348877,-4.97714900970459,-44.19735336303711,-50.412872314453125,-15.157979011535645,0.7505784034729004,-0.1182294189929962,-3.39936637878418,42.58252334594727,46.75973510742188,101.05077362060548,-8.605749130249023,1.2485780715942385,-2.6703968048095703,176.11976623535156,-77.37647247314453,104.71871185302734,0.4402532577514648,0.5596907138824463,-1.818544864654541
1503.44660282135,164.74082946777344,-5.384448528289795,0.4922727048397064,-1.2772386074066162,-3.8193626403808594,-21.693500518798828,-49.72225570678711,-76.30409240722656,-136.6427459716797,-26.531269073486328,3.2070531845092773,-9.554155349731444,-43.29769134521485,-56.64776611328125,-26.673715591430664,0.4784002900123596,-1.6138207912445068,-2.787539482116699,35.2690544128418,52.10503768920898,91.33763122558594,-8.847270965576172,-2.238464832305908,-6.009623527526856,165.38356018066406,-76.89061737060547,114.24079895019533,-1.707754135131836,0.2744899392127991,-8.670293807983398
1503.5071454048157,160.95455932617188,-13.35442066192627,1.1544585227966309,4.291348457336426,-3.884328842163086,-27.247295379638672,-75.40389251708984,-76.04305267333984,-105.61730194091795,9.15019416809082,-3.523273468017578,-8.83515739440918,-39.38322448730469,-63.8709831237793,-42.30363464355469,-0.6247179508209229,-2.3806161880493164,-3.430131435394287,24.708385467529297,54.20102310180664,82.72704315185547,-2.012568473815918,-2.667723655700684,-8.605932235717773,160.9650421142578,-76.16722869873047,118.87869262695312,-1.4606819152832031,0.4303946495056152,-9.812686920166016
1503.536724805832,157.47491455078125,-25.558055877685547,2.3065545558929443,8.253120422363281,-2.3602066040039062,-21.913230895996094,-87.68656921386719,-74.1650390625,-97.67913055419922,12.62651252746582,-3.8121705055236816,-16.025413513183594,-29.90839385986328,-69.40663146972656,-62.85600662231445,-2.4211196899414062,-0.4137897491455078,-4.127696990966797,17.26592254638672,54.86833953857422,76.46157836914062,-2.4470090866088867,-2.1942596435546875,-8.752351760864258,160.48011779785156,-76.48724365234375,119.42749786376952,1.1834418773651123,3.2052478790283203,-8.397262573242188
1503.5668795108795,154.7602996826172,-40.994998931884766,3.9241397380828857,8.93411636352539,-1.468144416809082,-11.48008918762207,-93.30387878417967,-72.82464599609375,-98.93146514892578,-11.307594299316406,-13.631406784057615,-2.954164981842041,-12.34868335723877,-72.07012939453125,-88.88204193115234,-2.4834299087524414,0.7171072959899902,-6.13662052154541,14.144814491271973,54.98927688598633,74.13200378417969,-3.8970794677734375,-2.192226886749268,-10.042343139648438,158.37879943847656,-78.09564208984375,119.63587188720705,2.7523913383483887,4.282896041870117,-7.124665260314941
1503.5970389842987,150.4366912841797,-58.94124221801758,6.719878673553467,6.678325653076172,-1.0626795291900637,1.1612796783447266,-103.89533996582033,-71.15594482421875,-92.45001983642578,6.849048614501953,-9.942710876464844,-8.826990127563477,7.367025852203369,-71.96100616455078,-115.20350646972656,-3.0652308464050293,0.7926183938980103,-6.334935188293457,13.789865493774414,54.94782257080078,78.48493957519531,-2.2239718437194824,-1.6861770153045654,-10.113319396972656,155.066650390625,-79.761962890625,120.4171371459961,0.0136888828128576,0.2492479383945465,-12.7083740234375
1503.6567401885986,135.5824737548828,-78.07511138916016,20.592819213867188,-4.107563018798828,-0.3469828367233276,18.32706069946289,-115.73733520507812,-67.88630676269531,-83.74876403808594,2.0185441970825195,-1.3862180709838867,6.952947616577148,23.41875267028809,-69.80508422851562,-136.9943084716797,-2.5594191551208496,1.831817865371704,-6.572945594787598,15.564924240112305,54.606964111328125,90.34342956542967,-4.075547218322754,0.3168807625770569,-10.849218368530272,157.05538940429688,-78.7864761352539,116.05633544921876,0.4348261952400207,-2.889784336090088,-6.566978454589844
1503.6618008613586,34.57743835449219,-80.50588989257812,127.6865463256836,-20.20836639404297,8.980806350708008,25.462451934814453,-123.23171997070312,-64.01502990722656,-79.6955795288086,-4.718891143798828,0.0326985493302345,4.042239189147949,34.95867156982422,-66.3635025024414,-153.3541259765625,-2.4041218757629395,2.787619113922119,-6.314321517944336,18.615005493164062,53.09939956665039,108.5550765991211,-7.491985321044922,3.574185371398926,-15.601202011108398,162.62826538085938,-78.0443115234375,109.82093048095705,-1.8649914264678955,-3.2940683364868164,3.810708999633789
1503.6867384910583,27.698291778564453,-72.98566436767578,138.6021270751953,-33.05375671386719,4.13643741607666,-21.13714599609375,-121.62662506103516,-62.601356506347656,-81.88330078125,-6.111371994018555,-7.187943458557129,5.670402526855469,44.200340270996094,-62.571815490722656,-166.89479064941406,-4.820725440979004,3.429582118988037,-1.5940008163452148,18.39316749572754,50.37497329711914,126.65753936767578,-12.381967544555664,7.490401268005371,-19.00348281860352,173.74093627929688,-78.95012664794922,103.17205810546876,6.171806335449219,1.7850728034973145,5.75307559967041
1503.7467131614685,39.93999481201172,-75.29020690917969,125.2029266357422,-21.732776641845703,13.810798645019531,-4.736862182617188,-115.509033203125,-62.10063934326172,-88.04484558105469,-5.286802291870117,-6.845658302307129,6.776828765869141,52.60736846923828,-58.960079193115234,-179.94749450683594,-8.513206481933594,3.625483989715576,0.0005044937133789,20.85231208801269,51.46527862548828,136.22976684570312,11.941482543945312,2.867879867553711,-5.753984451293945,-179.4868927001953,-78.72810363769531,97.5849380493164,13.648635864257812,4.640524864196777,12.176372528076172
1503.753715991974,67.44222259521484,-78.65965270996094,102.4583969116211,9.817010879516602,0.9811220169067384,10.655128479003906,-107.08789825439452,-61.85277938842773,-96.85616302490234,-3.496322631835937,-9.63334846496582,5.376879692077637,60.76974487304688,-56.9487533569336,168.28712463378906,-11.232942581176758,7.990957260131836,5.725059509277344,32.424659729003906,53.92275238037109,131.69772338867188,6.079582214355469,-0.1658006608486175,-2.62666130065918,-179.05648803710938,-79.34191131591797,95.23894500732422,4.815524101257324,0.2688739895820617,8.510366439819336
1503.8070769309998,79.25140380859375,-80.64720153808594,89.75232696533203,4.347629547119141,3.9680347442626953,10.492645263671877,-88.5345230102539,-62.15854644775391,-111.12583923339844,2.699467182159424,-3.6120123863220215,-2.9858078956604004,70.4854965209961,-57.4459342956543,161.2382354736328,-8.556159973144531,9.05137825012207,6.081809043884277,32.17833709716797,57.49408721923828,114.94343566894533,-18.474761962890625,-3.6664719581604,-4.267226219177246,-175.97958374023438,-79.94477081298828,93.75711822509766,-3.073509693145752,-0.9970157146453856,4.606124877929688
1503.8371872901917,100.85954284667967,-80.81967163085938,71.39906311035156,0.0603434145450592,-2.2559523582458496,0.1744632720947265,-75.31912994384766,-60.48750686645508,-115.3327178955078,-24.04453659057617,-5.177457809448242,-8.948585510253906,83.67697143554688,-61.13117599487305,158.3663330078125,-7.274438858032227,1.5485663414001465,7.048974990844727,12.893340110778809,57.733848571777344,90.83404541015624,-8.437044143676758,5.280972480773926,-15.69865608215332,-172.13131713867188,-79.48198699951172,93.7249755859375,-2.715695858001709,-0.1905783116817474,-2.0057601928710938
1503.866545200348,116.69097137451172,-82.1448974609375,58.45939254760742,-4.516685485839844,-7.260988235473633,-1.1961936950683594,-69.43116760253906,-59.6381950378418,-108.81419372558594,-22.750415802001957,-13.110237121582031,-8.486974716186523,91.77737426757812,-67.5233154296875,158.00460815429688,-0.4456125497817993,-3.407973289489746,5.95816707611084,-4.330686092376709,53.96770477294922,70.10569763183594,-2.8635215759277344,1.8057427406311035,-8.11329460144043,-170.08349609375,-78.53794860839844,95.59400177001952,-3.524545192718506,-2.38478946685791,-6.323372840881348
1503.896704673767,131.74642944335938,-83.9095458984375,43.4478874206543,0.7963199615478516,1.730743646621704,1.462982177734375,-74.42011260986328,-60.21515274047852,-92.76162719726562,-10.814226150512695,-17.058734893798828,-8.157215118408203,94.74463653564452,-73.21049499511719,155.02294921875,5.440384864807129,-2.3731932640075684,-1.2596683502197266,-13.557623863220217,47.14788436889648,57.018341064453125,-2.134850025177002,-5.227532386779785,-5.673534393310547,-169.5018768310547,-76.12948608398438,98.7919921875,-1.6665725708007812,1.5662639141082764,-5.256649971008301
1503.9262244701383,153.00155639648438,-85.07789611816406,23.22521209716797,-0.5469043254852295,0.8314775228500366,0.4327230453491211,-88.42920684814453,-61.109771728515625,-73.17729187011719,-2.7797560691833496,-9.870645523071287,-10.67863655090332,99.08020782470705,-77.4090805053711,149.4612274169922,0.5577689409255981,1.1176671981811523,-5.581618309020996,-16.470428466796875,39.07349395751953,48.6662712097168,4.996380805969238,-4.79759693145752,-6.243146896362305,-173.24578857421875,-73.46060943603516,103.23143768310548,1.0944693088531494,0.7116671800613403,1.642807960510254
1503.9561548233032,178.56085205078125,-85.665283203125,-2.064352035522461,-0.4796497225761413,-1.743584156036377,0.7473878860473633,-106.8722152709961,-61.08233642578125,-54.06132125854492,0.6413567066192627,-6.197890281677246,-12.767511367797852,106.49298858642578,-80.52883911132812,143.91781616210938,-0.2332890033721923,-1.9354493618011477,-0.5589275360107422,-8.643145561218262,32.55559539794922,43.22492218017578,7.777304649353027,-8.053926467895508,-1.3046064376831057,-177.02981567382812,-72.11631774902344,106.77630615234376,-3.6477489471435542,0.4629440307617187,1.404536247253418
1503.986932516098,-155.68699645996094,-85.49333190917969,-28.246427536010746,-0.1522964239120483,1.0578947067260742,0.3228206634521484,-127.32575225830078,-59.94062042236328,-36.911739349365234,-2.9267964363098145,-1.494642734527588,-10.290771484375,106.92835998535156,-82.56932830810547,144.96731567382812,5.096856117248535,-6.333707809448242,2.3894996643066406,16.467315673828125,30.328052520751957,43.07521057128906,14.52390480041504,-24.368831634521484,-4.0256452560424805,-178.6898956298828,-70.87705993652344,109.19710540771484,-5.955719947814941,0.6252247095108032,-1.7961959838867188
1504.0169565677645,-132.55462646484375,-85.07980346679688,-50.76966094970703,-0.84255051612854,0.6148405075073242,0.4834423065185547,-145.9802703857422,-58.366119384765625,-22.680917739868164,-5.600115776062012,2.7753868103027344,-6.736677169799805,98.97976684570312,-83.14013671875,150.6085968017578,0.9434115886688232,-6.71217155456543,0.3292694091796875,55.30032730102539,27.373693466186523,54.305965423583984,-8.446502685546875,2.611783981323242,-19.723907470703125,179.00782775878906,-69.38915252685547,112.08438873291016,-1.2095460891723633,0.3231092095375061,-1.432088851928711
1504.0469057559967,-119.0167999267578,-83.97969818115234,-63.14527130126953,2.404150485992432,-2.131047248840332,-0.6693344116210938,-160.32395935058594,-57.29627990722656,-11.202083587646484,-4.6969804763793945,2.7551193237304688,-1.5245065689086914,88.70191192626953,-83.91775512695312,156.83924865722656,-4.217094421386719,-2.317042350769043,-0.052459716796875,79.89555358886719,15.967049598693848,65.54936981201172,-14.096515655517578,13.606279373168944,5.6702375411987305,175.64935302734375,-68.66061401367188,114.95222473144533,1.7661874294281006,1.4987101554870603,-1.5944347381591797
1504.1064224243164,-117.44536590576172,-82.48900604248047,-64.23526000976562,2.1532349586486816,0.8533360958099365,-0.8429527282714844,-169.51580810546875,-57.29292297363281,-2.081676483154297,0.5024509429931641,5.45587158203125,0.4070062637329101,60.11952972412109,-84.9679946899414,-177.88352966308594,-5.764798164367676,0.5588705539703369,1.0330209732055664,89.99161529541016,-1.1832059621810913,69.57056427001953,-3.709279537200928,3.0694093704223637,6.446653366088867,169.9757843017578,-67.7764892578125,117.7219696044922,3.809561729431152,1.4142255783081057,-2.945310592651367
1504.137139558792,-129.09478759765625,-80.98003387451172,-52.85955047607422,2.343448638916016,2.679342746734619,-1.6959266662597656,-172.1842803955078,-59.8100700378418,4.061033248901367,12.663070678710938,10.88328742980957,-5.327853202819824,11.550537109375,-83.39909362792969,-132.59625244140625,-3.9392409324646,-3.05936336517334,-1.6533117294311523,95.29268646240234,-19.070476531982425,67.94245910644531,6.905550003051758,0.6114755868911743,4.43205451965332,161.13003540039062,-66.93183898925781,122.3816375732422,0.7267149686813354,1.9069716930389404,-3.1766929626464844
1504.167290210724,-149.58956909179688,-78.48172760009766,-33.277610778808594,4.227689743041992,8.16647720336914,-1.9866113662719729,-169.40347290039062,-65.56358337402344,8.150378227233887,-20.03364944458008,3.248544692993164,11.324419021606444,-19.910079956054688,-78.2244873046875,-106.33636474609376,-3.630964756011963,0.9456394910812378,-3.093472957611084,95.84092712402344,-36.97998809814453,64.76026916503906,9.15945053100586,0.0714789927005767,3.980165481567383,153.024658203125,-67.36042785644531,127.53372955322266,-4.930414199829102,1.1004698276519775,-3.636840343475342
1504.1972818374634,-162.58363342285156,-74.6180191040039,-17.998811721801758,-0.7768124341964722,-1.7551655769348145,0.1253175735473632,-175.1366729736328,-64.9416732788086,7.158227920532227,18.38589859008789,3.892820358276367,-5.084301948547363,-34.61406326293945,-70.60132598876953,-96.13671112060548,-2.699732780456543,3.6415624618530273,-3.188631534576416,89.75516510009766,-56.646461486816406,61.32623291015625,4.501838684082031,1.9648146629333496,13.70688819885254,147.1520233154297,-68.47736358642578,133.2957305908203,-6.315910339355469,-1.568976879119873,-3.332485675811768
1504.2267363071442,-172.40313720703125,-69.21524047851562,-5.701723098754883,0.5203163623809814,-0.4503275156021118,-0.8154716491699219,-178.86862182617188,-69.0157699584961,6.40434455871582,10.398738861083984,6.155209541320801,13.0504150390625,-42.28299331665039,-61.63628387451172,-91.33799743652344,-2.08472204208374,3.3139305114746094,-3.9073214530944815,64.60232543945312,-73.13090515136719,67.46790313720703,-6.570276260375977,-4.09520435333252,31.67254638671875,138.29721069335938,-69.59832000732422,143.08236694335938,0.8650315999984741,1.3875236511230469,-3.687234401702881
1504.2570643424988,-177.37615966796875,-63.43350601196289,2.058119058609009,-2.032498836517334,3.2799296379089355,-0.5548362731933594,-178.4071807861328,-68.74995422363281,5.265628337860107,3.252601623535156,-0.9497833251953124,12.651973724365234,-49.066776275634766,-51.30177688598633,-86.76616668701172,-3.408428192138672,6.487937927246094,0.9785070419311525,34.459354400634766,-75.40670013427734,72.578369140625,3.332016944885254,13.909107208251951,1.2203731536865234,131.28758239746094,-69.20661926269531,150.45631408691406,2.55596923828125,4.330532073974609,2.89487361907959
1504.2871878147123,-179.76512145996094,-58.926856994628906,5.979025363922119,-0.8983858823776245,-3.294278621673584,1.4610300064086914,-174.39088439941406,-65.90360260009766,1.7870512008666992,7.820399284362793,-12.660669326782228,11.55483627319336,-52.46891403198242,-39.846099853515625,-81.75694274902344,-0.2650840282440185,6.554660797119141,6.754003524780273,35.28404235839844,-71.60120391845703,61.13267135620117,25.127479553222656,4.582304954528809,3.791294097900391,128.88494873046875,-67.60062408447266,150.92176818847656,-2.3150506019592285,-0.7495050430297852,11.922077178955078
1504.3161885738373,-179.9782257080078,-56.241188049316406,6.110867977142334,-0.5463489294052124,-3.10402250289917,1.1718254089355469,-167.117431640625,-63.172489166259766,0.0779225155711174,8.143278121948242,-8.389184951782227,19.52796936035156,-52.76685333251953,-27.66021728515625,-75.68136596679688,3.6431751251220703,11.989116668701172,16.251598358154297,50.86319351196289,-65.56926727294922,55.48098373413086,19.955955505371094,11.152996063232422,2.178720474243164,130.30459594726562,-66.75469970703125,148.44204711914062,-7.402573585510254,-2.6901559829711914,13.16387939453125
1504.3466954231262,-177.7588653564453,-55.282962799072266,3.0539968013763428,-1.470766305923462,-3.4865970611572266,3.417013168334961,-162.56649780273438,-58.22334671020508,-1.9338722229003904,10.597705841064451,-4.645301818847656,15.705347061157228,-46.43256378173828,-15.960915565490724,-68.92273712158203,-0.3461577892303467,8.795394897460938,30.712745666503903,72.3060531616211,-61.34127426147461,51.99459838867188,0.3659624457359314,15.398283004760742,16.793052673339844,132.10818481445312,-66.661376953125,144.97854614257812,0.12042698264122,-0.035757377743721,12.201536178588867
1504.4067764282229,-174.6998291015625,-56.08271026611328,-1.3378627300262451,-1.2992427349090576,-0.0401753038167953,2.633817672729492,-165.73239135742188,-53.75022888183594,-3.160202741622925,8.483001708984375,-2.713540554046631,7.424205780029297,-35.61208724975586,-5.458741664886475,-60.26495742797852,-0.97156822681427,-1.7711668014526367,22.283824920654297,82.66120147705078,-59.22932434082031,51.07991790771485,-8.597679138183594,2.2136893272399902,18.90245056152344,135.27609252929688,-66.64751434326172,140.5436248779297,-0.9995776414871216,-1.2737643718719482,8.893234252929688
