Timestamp,D4:22:CD:00:05:5D_EulerX,D4:22:CD:00:05:5D_EulerY,D4:22:CD:00:05:5D_EulerZ,D4:22:CD:00:05:5D_FreeAccX,D4:22:CD:00:05:5D_FreeAccY,D4:22:CD:00:05:5D_FreeAccZ,D4:22:CD:00:05:5E_EulerX,D4:22:CD:00:05:5E_EulerY,D4:22:CD:00:05:5E_EulerZ,D4:22:CD:00:05:5E_FreeAccX,D4:22:CD:00:05:5E_FreeAccY,D4:22:CD:00:05:5E_FreeAccZ,D4:22:CD:00:05:6B_EulerX,D4:22:CD:00:05:6B_EulerY,D4:22:CD:00:05:6B_EulerZ,D4:22:CD:00:05:6B_FreeAccX,D4:22:CD:00:05:6B_FreeAccY,D4:22:CD:00:05:6B_FreeAccZ,D4:22:CD:00:05:6E_EulerX,D4:22:CD:00:05:6E_EulerY,D4:22:CD:00:05:6E_EulerZ,D4:22:CD:00:05:6E_FreeAccX,D4:22:CD:00:05:6E_FreeAccY,D4:22:CD:00:05:6E_FreeAccZ,D4:22:CD:00:49:AA_EulerX,D4:22:CD:00:49:AA_EulerY,D4:22:CD:00:49:AA_EulerZ,D4:22:CD:00:49:AA_FreeAccX,D4:22:CD:00:49:AA_FreeAccY,D4:22:CD:00:49:AA_FreeAccZ
566.3893914222717,78.33638000488281,-81.01493835449219,3.8484179973602295,3.513078212738037,-1.7173058986663818,4.847304344177246,-19.601673126220703,-74.9103012084961,173.39710998535156,-3.216813564300537,-1.7175426483154297,2.642888069152832,-18.91922378540039,30.30901336669922,-60.69334030151367,-8.995473861694336,-1.7926619052886963,-5.273693084716797,-150.96253967285156,-64.5135726928711,-20.67341041564941,8.45123291015625,-6.261983871459961,1.156320571899414,160.83590698242188,-73.37834930419922,118.29562377929688,2.793417453765869,-2.296623706817627,-1.97298526763916
566.4538671970367,-173.80967712402344,-39.82908630371094,-126.77157592773438,-2.3665919303894043,4.970758438110352,-0.0389089584350585,152.543212890625,-62.12472534179688,-9.73053741455078,1.009899377822876,-6.062817573547363,11.638423919677734,-38.66559982299805,-18.19752311706543,-137.35720825195312,-3.854770660400391,-4.128902435302734,1.383832931518555,-75.47573852539062,-67.94073486328125,-158.10105895996094,-5.0006866455078125,-6.777823448181152,12.552879333496094,152.81277465820312,-67.42024230957031,138.40072631835938,1.8111603260040283,4.324541091918945,10.911945343017578
566.4836025238037,-176.0553741455078,-41.03181076049805,-124.66464233398438,-4.226886749267578,0.1640710234642028,2.2256908416748047,135.40516662597656,-61.72855758666992,7.310419082641602,3.1596603393554688,-2.00998592376709,14.582141876220703,-42.4013786315918,-11.13235855102539,-133.650146484375,-4.342000961303711,-0.2899835109710693,7.950435638427734,-40.58158493041992,-72.2078857421875,175.6982879638672,-11.510278701782228,-2.357180118560791,14.630218505859377,150.38995361328125,-68.21353149414062,141.29014587402344,-4.086672782897949,2.3393959999084477,8.972061157226562
566.5135929584503,-177.5675811767578,-42.844486236572266,-123.7724380493164,-3.06411361694336,-0.0311965979635715,1.374433517456055,128.08206176757812,-65.53591918945312,17.744895935058594,7.810879707336426,3.1568827629089355,13.459413528442385,-46.06947708129883,-4.894835948944092,-127.82965850830078,-1.5363636016845703,-2.8058180809021,17.066009521484375,6.20411491394043,-74.70525360107422,141.71267700195312,-11.55268096923828,-0.2005603909492492,7.915842056274414,152.11419677734375,-69.98298645019531,139.89353942871094,0.5983678102493286,3.1303834915161133,7.292583465576172
566.5435991287231,-178.319091796875,-45.83303451538086,-124.38710021972656,-1.7587807178497314,-0.8171038627624512,0.7532930374145508,133.76034545898438,-71.78501892089844,7.515519142150879,-4.011760711669922,-0.6268805265426636,7.9365234375,-43.40939712524414,2.942384719848633,-122.50877380371094,1.8955862522125244,-10.073413848876951,20.78012466430664,38.600494384765625,-74.43768310546875,121.11177825927734,-10.507963180541992,-4.533635139465332,3.0580062866210938,152.19505310058594,-71.10078430175781,139.53419494628906,1.2735874652862549,1.516193151473999,6.414905548095703
566.5738768577576,-178.38037109375,-48.93119812011719,-125.48572540283205,-1.754561185836792,-0.5977820158004761,0.3017549514770508,141.76461791992188,-73.4465103149414,-3.300262451171875,4.354766845703125,2.8080382347106934,2.2042722702026367,-32.02217483520508,13.212776184082031,-118.4232406616211,2.441051483154297,-12.048677444458008,13.747758865356444,52.08027648925781,-75.41706085205078,119.0122528076172,-5.849066734313965,-5.184975624084473,-0.8650245666503906,148.30796813964844,-72.70362091064453,143.1239471435547,-1.162388801574707,1.9921491146087649,3.2440338134765625
566.6048791408539,-176.76052856445312,-51.71499252319336,-127.11711883544922,-2.27370023727417,-0.3172893524169922,1.3203096389770508,154.08773803710938,-78.02229309082031,-16.44617462158203,-0.0342748239636421,3.28255558013916,-2.202362060546875,-17.040536880493164,23.728662490844727,-115.40675354003906,-2.8482351303100586,-15.450063705444336,9.313446044921877,47.56642532348633,-78.85700225830078,137.18804931640625,-5.437746047973633,-12.456171035766602,-4.703289031982422,145.61085510253906,-74.84918212890625,146.26705932617188,-2.422762870788574,1.3999741077423096,2.774001121520996
566.634948015213,-174.34474182128906,-55.024600982666016,-129.26791381835938,-1.8572568893432615,0.5577720403671265,2.892953872680664,174.4507598876953,-84.19903564453125,-37.15498733520508,1.4739480018615725,2.35357666015625,-5.256038665771484,-2.366199493408203,33.459468841552734,-114.3448486328125,-10.965261459350586,-9.185508728027344,2.3260374069213867,16.213298797607422,-81.2166976928711,-178.9542236328125,0.368220567703247,-14.80253791809082,-5.429838180541992,147.0927276611328,-76.75296783447266,145.7672119140625,-3.1896510124206543,-0.4489152431488037,3.7247934341430655
566.694066286087,-173.38865661621094,-59.59444808959961,-130.7693634033203,-3.053562641143799,-1.2446177005767822,4.866965293884277,-53.44880294799805,-85.73070526123047,-168.171875,1.005965232849121,2.1542444229125977,-6.003331184387207,7.239794731140137,41.45815658569336,-112.3889389038086,-9.935935974121094,-0.6672286987304688,-2.7382354736328125,-16.11686897277832,-78.08810424804688,-134.36285400390625,0.0425523966550827,-9.860956192016602,-6.156589508056641,151.81431579589844,-78.11029815673828,142.7980499267578,-2.2790117263793945,-0.95692241191864,-0.843475341796875
566.7240645885468,-173.49066162109375,-63.982513427734375,-131.73056030273438,-2.3989081382751465,-5.756260871887207,3.449915885925293,-25.75843048095703,-75.36422729492188,164.28684997558594,-2.823674201965332,1.504646062850952,-4.9864501953125,9.782139778137209,47.61367034912109,-107.73152160644533,-11.666561126708984,2.1848254203796387,-6.161592483520508,-27.10862159729004,-72.3609390258789,-107.8671875,0.2234877943992614,-8.580259323120117,-6.308971405029297,161.04286193847656,-78.87443542480469,135.6023406982422,-1.022665023803711,-1.1658921241760254,-4.1900787353515625
566.7540717124939,-175.67686462402344,-67.84144592285156,-133.20692443847656,-1.831694841384888,-0.935221552848816,-2.567351818084717,-20.55135726928711,-64.30035400390625,156.1450653076172,-7.928055763244629,4.447632789611816,-7.55015754699707,10.77929973602295,53.45138931274414,-104.82345581054688,-5.464199066162109,1.049640655517578,-10.557056427001951,-24.368244171142575,-66.38960266113281,-89.95458984375,1.7966947555541992,-8.932027816772461,-6.183612823486328,168.39540100097656,-79.0596694946289,129.320068359375,2.3612961769104004,-0.3150501251220703,-3.6665005683898926
566.7836010456085,-179.86795043945312,-71.19065856933594,-132.44674682617188,1.2397778034210205,-0.7046616077423096,-5.817375183105469,-21.61330795288086,-55.19591522216797,151.33169555664062,-10.382570266723633,9.189905166625977,-10.299774169921877,13.38429355621338,58.93255233764648,-105.87655639648438,-3.005656242370605,4.11424732208252,-11.915231704711914,-17.19512176513672,-60.9370231628418,-75.61077117919922,8.197721481323242,-10.162517547607422,-8.728670120239258,168.64248657226562,-79.61270904541016,128.33734130859375,1.3893961906433103,1.641322374343872,-5.17063045501709
566.8146231174469,176.48707580566406,-73.86103057861328,-128.81077575683594,2.769291400909424,0.6101466417312622,-5.184117317199707,-26.47542381286621,-48.70268630981445,149.17889404296875,-10.896322250366213,12.156003952026367,-10.38614273071289,13.07298183441162,63.23219680786133,-113.94381713867188,1.672717809677124,1.6214256286621094,-10.238409042358398,-17.233295440673828,-56.64997863769531,-62.59822082519531,10.330490112304688,-3.954352855682373,-10.15347671508789,166.479248046875,-80.7904281616211,129.09658813476562,-0.7353625297546387,0.4945546984672546,-7.668726921081543
566.8438127040863,172.4516143798828,-75.2689437866211,-123.65022277832033,5.945745468139648,0.090276762843132,-4.415802955627441,-33.24051284790039,-44.94093704223633,150.60377502441406,-9.653898239135742,11.21629524230957,-16.822189331054688,5.45997428894043,65.9461441040039,-129.6630859375,1.8596196174621584,-0.2570666074752807,-9.75889778137207,-24.790855407714844,-53.478912353515625,-50.82638168334961,10.268648147583008,0.341591477394104,-8.552812576293945,163.67849731445312,-82.52372741699219,130.89434814453125,-0.2056111395359039,-0.7148153781890869,-8.045904159545898
566.8734812736511,169.0944366455078,-75.19520568847656,-120.21920013427734,3.648381233215332,-0.6574290990829468,-5.241083145141602,-42.218746185302734,-44.42819595336914,154.21604919433594,-13.084636688232422,8.177131652832031,-19.230262756347656,-11.201542854309082,64.24480438232422,-152.9580078125,6.601456642150879,-1.5431921482086182,-9.451236724853516,-36.71728897094727,-50.52477264404297,-42.06420516967773,11.480300903320312,0.6603648662567139,-8.218341827392578,156.8256378173828,-83.99299621582031,136.56692504882812,0.7058792114257812,-0.9229114055633544,-5.780756950378418
566.90354347229,164.5452423095703,-73.61181640625,-116.71876525878906,1.109961748123169,-7.047586441040039,-2.1901192665100098,-53.32124710083008,-47.611289978027344,160.5206298828125,-14.194202423095703,13.502431869506836,-18.938400268554688,-29.805723190307617,54.79304885864258,-174.2786102294922,-7.903850555419922,2.5105528831481934,-20.806270599365234,-50.95342254638672,-47.56442642211914,-36.795257568359375,11.328607559204102,-1.6221864223480225,-9.490554809570312,143.60609436035156,-84.91138458251953,147.40562438964844,0.7019072771072388,-1.2525832653045654,-3.9613542556762695
566.9334766864777,160.4868927001953,-71.4149398803711,-111.48876953125,-5.125489234924316,-0.7572835683822632,1.006317138671875,-66.10440826416016,-51.299312591552734,169.6944122314453,-13.46523666381836,-5.796488761901856,-6.486912727355957,-45.97153854370117,43.564579010009766,174.3154296875,-23.629085540771484,4.49174690246582,-22.573211669921875,-67.38826751708984,-46.13943862915039,-32.969444274902344,11.559972763061523,-4.998282432556152,-6.620270729064941,135.634033203125,-85.4746322631836,151.57554626464844,-0.2459438145160675,-0.5401840209960938,-0.6484050750732422
566.9939863681793,155.27110290527344,-69.05707550048828,-103.99836730957033,-0.396344780921936,-2.4939498901367188,4.259095191955566,-65.68621826171875,-54.280540466308594,173.96237182617188,-14.141082763671877,-6.922886848449707,-4.902298927307129,-62.27573394775391,41.69529342651367,173.71189880371094,17.62857437133789,2.3247084617614746,-11.562976837158203,-83.24855041503906,-46.565242767333984,-29.655838012695312,16.240150451660156,-1.3320906162261963,-0.0565214157104492,129.8795623779297,-86.38875579833984,153.94290161132812,-6.237150192260742,-5.320016860961914,3.1082820892333984
567.0240004062653,149.76376342773438,-67.68653869628906,-97.4348373413086,-2.261540412902832,1.4869141578674316,5.56908130645752,-64.21270751953125,-58.171634674072266,175.40469360351562,3.806014060974121,6.41676139831543,20.559104919433597,-62.651100158691406,48.37332534790039,-176.82330322265625,-16.80225372314453,3.045939922332764,15.07499885559082,-96.87234497070312,-49.954322814941406,-27.686569213867188,19.793888092041016,2.311199188232422,0.9989919662475586,138.3057098388672,-86.06682586669922,142.41510009765625,-5.632429122924805,-2.731663227081299,5.194452285766602
567.0539920330048,141.1079864501953,-67.59904479980469,-91.3046646118164,-1.5309934616088867,0.7298935651779175,7.057806015014648,-74.16923522949219,-60.28238296508789,-177.9138946533203,-7.87143611907959,5.476346969604492,-4.082027435302734,-40.00218963623047,51.01706314086914,-161.13377380371094,-1.5277502536773682,1.776583194732666,-7.104083061218262,-108.7993392944336,-56.59816360473633,-26.955535888671875,11.586299896240234,-0.3624959588050842,7.850147247314453,153.94313049316406,-84.96012878417969,123.66510009765624,0.3159579038619995,-4.255496025085449,1.4517221450805664
567.0837924480438,130.14041137695312,-68.69254302978516,-84.77066802978516,0.4682176113128662,-5.967264175415039,6.389795303344727,-78.90796661376953,-63.06341171264648,-177.10520935058594,-9.341808319091797,2.7486910820007324,-4.624660491943359,-22.88601493835449,48.86439895629883,-138.24331665039062,-5.119051933288574,3.46803617477417,-7.615140914916992,-119.60557556152344,-63.53095626831055,-26.67584800720215,2.2223386764526367,-3.164273738861084,7.960395812988281,170.6693572998047,-82.8790512084961,103.3941650390625,5.796499252319336,-3.68034029006958,6.302509307861328
567.1137857437134,118.81970977783205,-69.98113250732422,-83.71983337402344,18.043136596679688,-0.7815467119216919,-1.1359977722167969,-72.41547393798828,-65.8486328125,176.33697509765625,-8.349653244018555,4.3028059005737305,-3.426858425140381,-7.530562877655029,39.7851448059082,-120.05799102783205,-7.082392692565918,5.069685935974121,-4.609992980957031,-134.18069458007812,-67.69621276855469,-22.966936111450195,-5.47984504699707,-3.4167590141296387,3.2741918563842773,179.98809814453125,-81.02955627441406,90.23974609375,6.654827117919922,0.3643235564231872,1.8537836074829104
567.1441714763641,125.52747344970705,-67.4986801147461,-101.89185333251952,30.82244873046875,3.8541064262390137,7.154474258422852,-66.12117004394531,-67.18993377685547,168.5001220703125,-6.857417106628418,3.6214075088500977,-2.559990882873535,5.247037410736084,27.495893478393555,-107.6490478515625,-0.0571722984313964,6.474895477294922,-7.722805976867676,-143.23683166503906,-67.44612121582031,-19.497522354125977,-11.195510864257812,-3.881731986999512,0.5374641418457031,-174.86871337890625,-79.09546661376953,83.79004669189453,-0.0363188385963439,2.8647241592407227,1.1915979385375977
567.1737005710602,140.20907592773438,-58.42702865600586,-121.89737701416016,16.521568298339844,-0.6460052728652954,5.80677604675293,-62.460914611816406,-67.52709197998047,162.2222137451172,-4.293701171875,3.186105728149414,-0.7165441513061523,10.232287406921388,13.605087280273438,-95.7228775024414,1.3524398803710938,3.1426186561584477,-7.907959938049316,-141.21932983398438,-65.49738311767578,-21.65312767028809,-7.962833404541016,-7.344988822937012,-1.476973533630371,-167.6586151123047,-78.38971710205078,79.25416564941406,0.937635898590088,2.666740894317627,3.5559778213500977
567.2038035392761,150.0929412841797,-46.95795822143555,-135.3529052734375,2.3510608673095703,-1.6318950653076172,-2.481934070587158,-54.2778434753418,-67.5311050415039,153.5657501220703,-3.856843948364258,1.48496413230896,-1.0952377319335938,9.834179878234863,-0.0105752684175968,-83.53267669677734,4.935459136962891,-1.5810809135437012,-5.018614768981934,-136.8655242919922,-64.27423095703125,-24.683734893798828,-3.85127067565918,-6.0115966796875,-3.3818483352661133,-164.5137481689453,-77.82037353515625,76.6409912109375,9.358217239379885,1.845815896987915,-0.2754421234130859
567.2336554527283,155.7905731201172,-35.75701904296875,-144.02127075195312,-3.0147948265075684,0.9793777465820312,-9.141965866088867,-47.63294982910156,-67.73159790039062,147.27194213867188,-4.753125190734863,1.44073486328125,-3.364882469177246,1.2105046510696411,-10.246222496032717,-72.13093566894531,6.708391189575195,0.6569328308105469,1.2169933319091797,-130.4881134033203,-64.60781860351562,-26.225399017333984,-0.0779318809509277,-2.9291648864746094,-3.772118091583252,-165.90597534179688,-78.24085998535156,76.43167877197266,6.383281707763672,0.4506255388259887,-2.9537582397460938
567.2938044071198,159.22581481933594,-26.677398681640625,-150.16445922851562,-2.8167877197265625,1.0894014835357666,-10.76328468322754,-48.23185729980469,-68.62854766845703,148.3070068359375,-4.726888656616211,-0.2569677829742431,-4.398420333862305,-12.826372146606444,-15.54426383972168,-63.66954803466797,-1.6505985260009766,1.575791358947754,1.9616870880126955,-120.24437713623048,-66.88672637939453,-27.26922416687012,1.8604612350463867,-2.532710075378418,-5.958251953125,-168.75747680664062,-78.9410400390625,77.12258911132812,-0.9188036918640136,0.900803565979004,-4.954232215881348
567.3242237567902,160.83108520507812,-20.89751434326172,-155.2654571533203,-4.6744384765625,0.5066932439804077,-11.620941162109377,-57.61408233642578,-69.87256622314453,159.5184783935547,-5.556398391723633,-1.4806580543518066,-3.2747244834899902,-21.651050567626957,-17.69976234436035,-59.25454711914063,-4.853463172912598,1.4997577667236328,3.1216697692871094,-107.69347381591795,-70.77619171142578,-30.430322647094727,5.955968856811523,-4.824461936950684,-6.931797981262207,-168.50074768066406,-79.03385925292969,75.89844512939453,-2.11649751663208,0.563768744468689,-5.683609008789063
567.3542401790619,160.35084533691406,-19.562501907348636,-159.67440795898438,-8.662878036499023,1.0273990631103516,-14.527379989624023,-73.78480529785156,-70.68516540527344,176.93019104003906,-6.6528825759887695,1.776648998260498,-2.8472676277160645,-23.016504287719727,-19.57621383666992,-57.8470573425293,-2.459643840789795,3.517982006072998,2.246912002563477,-97.57282257080078,-74.0549087524414,-37.4133186340332,2.547554016113281,2.069790363311768,-5.868941307067871,-164.89622497558594,-78.67255401611328,72.93255615234375,1.3790831565856934,-1.0527219772338867,-6.574883460998535
567.383950471878,158.44566345214844,-22.175413131713867,-162.78414916992188,-12.143789291381836,0.3963900208473205,-13.732053756713867,-91.03789520263672,-69.25733184814453,-165.5978240966797,-8.274913787841797,5.110867500305176,-7.095586776733398,-19.901145935058597,-23.519046783447266,-59.02120208740234,-0.1250118017196655,3.18115758895874,-3.836527824401856,-80.84661102294922,-76.44268798828125,-48.27511215209961,2.155951023101806,3.0168986320495605,-5.833680152893066,-161.78538513183594,-78.71465301513672,69.7945556640625,5.767998695373535,-2.122016429901123,-8.442510604858398
567.4139301776886,159.37667846679688,-27.63720321655273,-164.21182250976562,-4.845459938049316,-9.69329833984375,4.35591983795166,-102.97382354736328,-66.66932678222656,-153.6380157470703,-4.675358772277832,5.423828125,0.3111467361450195,-15.628273963928224,-31.7330322265625,-62.99604415893555,4.031744003295898,-4.4122819900512695,1.84591007232666,-56.37645721435547,-78.54511260986328,-64.65641784667969,8.966730117797852,-9.491012573242188,-6.567353248596191,-158.7613525390625,-79.18504333496094,64.8319320678711,1.902674674987793,-0.0603321269154548,-4.061796188354492
567.4439430236816,167.48294067382812,-27.85840606689453,-163.32627868652344,-30.476299285888672,-0.8376168012619019,5.944482803344727,-110.10233306884766,-64.22640228271484,-146.67428588867188,-4.748966217041016,4.7761430740356445,0.6911792755126953,-7.070956230163574,-41.985450744628906,-72.14997100830078,7.267199516296387,-16.548423767089844,15.96578598022461,-40.14566802978516,-81.27859497070312,-82.40008544921875,13.790414810180664,-14.704338073730469,0.0116815567016601,-157.07839965820312,-80.45840454101562,60.43624114990234,-1.0578498840332031,0.2017289400100708,4.989123344421387
567.4737982749939,164.60011291503906,-24.37509536743164,-159.9763946533203,-20.42453384399414,-12.47059440612793,11.397459030151367,-114.0240478515625,-63.57489013671875,-142.7869873046875,-4.058643341064453,3.853471279144287,0.4280872344970703,4.791621208190918,-47.43046569824219,-86.49455261230469,11.030662536621094,-29.912643432617188,24.265892028808597,-9.066752433776855,-84.6318130493164,-119.50757598876952,18.87085723876953,-8.244525909423828,11.569671630859377,-157.67100524902344,-80.51075744628906,59.28326416015625,-3.716951370239258,-0.3196507692337036,8.284492492675781
567.5037965774536,165.0903778076172,-17.100921630859375,-157.86170959472656,-20.35404586791992,-10.530553817749023,8.463054656982422,-116.7212371826172,-64.41654968261719,-140.00254821777344,-5.822806358337402,4.2818145751953125,-0.840367317199707,1.186869502067566,-45.59309005737305,-87.8213882446289,7.145062446594238,-23.741920471191406,5.080986022949219,48.19372177124024,-81.62362670898438,173.07464599609375,16.609939575195312,-3.093001365661621,17.762557983398438,-155.79727172851562,-79.62470245361328,58.15731430053711,-0.7109553813934326,0.5555717945098877,6.987871170043945
567.5340898036957,165.95953369140625,-10.16698932647705,-157.6732177734375,-18.154193878173828,-2.949724674224853,7.430822372436523,-117.2938003540039,-65.73985290527344,-139.63543701171875,-6.5302734375,4.391012191772461,-1.4485816955566406,-11.705873489379885,-40.3480110168457,-78.21497344970703,-1.3999099731445312,-18.662860870361328,14.174688339233398,57.87065505981445,-72.07108306884766,153.70803833007812,16.684894561767578,2.094949245452881,21.20572280883789,-155.27090454101562,-79.4339599609375,57.79258728027344,3.0996689796447754,1.5778231620788574,8.251863479614258
567.5936851501465,163.7317657470703,-5.180203437805176,-158.30406188964844,-11.361141204833984,3.2187399864196777,-0.3228025436401367,-115.17738342285156,-67.19163513183594,-142.41493225097656,-6.299135208129883,3.817067623138428,-1.4316883087158203,-18.9294548034668,-33.161014556884766,-73.73815155029297,-2.0630879402160645,-15.797624588012695,2.5561208724975586,64.85164642333984,-58.456878662109375,143.4562225341797,11.145479202270508,-6.783337593078613,19.44198989868164,-157.25721740722656,-80.48246002197266,59.74092102050781,2.689103603363037,2.133485794067383,6.599761962890625
567.6237595081329,163.68777465820312,-3.560633897781372,-158.07797241210938,-3.9413323402404794,3.181180953979492,-6.557825088500977,-111.00257110595705,-68.85839080810547,-147.91493225097656,-5.760720252990723,3.9137468338012695,0.1182508468627929,-26.87100601196289,-27.01600456237793,-74.30024719238281,-4.13161563873291,-8.339433670043945,-2.324509620666504,65.73353576660156,-44.24142837524414,139.32125854492188,8.630386352539062,6.075190544128418,11.423444747924805,-160.15089416503906,-81.1929702758789,62.59894561767578,3.140129566192627,2.0592269897460938,5.234457015991211
567.6540076732635,165.53790283203125,-6.092973709106445,-157.51246643066406,-2.316286087036133,5.321179389953613,-10.368492126464844,-103.75072479248048,-70.84850311279297,-156.8737030029297,-5.11630916595459,3.802614212036133,3.077263832092285,-35.193145751953125,-24.19367218017578,-80.15616607666016,-8.85845947265625,-2.3217368125915527,-2.7132697105407715,66.48700714111328,-29.486066818237305,142.2758026123047,2.8049936294555664,3.431462287902832,8.230020523071289,-166.027099609375,-81.67364501953125,68.17414855957031,3.0561861991882324,2.183858871459961,4.40186882019043
567.6836831569672,165.04879760742188,-13.380622863769531,-157.2444610595703,-3.8657922744750977,3.7818775177001953,-14.36180305480957,-93.08023834228516,-72.34780883789062,-168.33740234375,-4.009763717651367,0.9059526920318604,5.629206657409668,-41.52201461791992,-26.48527717590332,-90.031494140625,-9.903640747070312,2.6643614768981934,-1.6550912857055664,63.09425735473633,-14.141782760620115,147.10560607910156,-6.391647338867188,-6.564211845397949,6.420560836791992,-172.98855590820312,-81.921875,75.0682373046875,2.492931365966797,1.79976487159729,0.7091903686523438
567.7138555049896,162.31971740722656,-25.142526626586918,-157.17564392089844,-6.544698715209961,1.838134765625,-13.238946914672852,-86.09918212890625,-72.18515014648438,-176.55393981933594,-2.1671600341796875,0.6501374244689941,-0.8357152938842773,-47.62307357788086,-32.85087966918945,-100.8813934326172,-8.909955978393555,7.406394004821777,-0.7733173370361328,50.68739318847656,0.0728747099637985,149.14942932128906,-9.974655151367188,-11.081624984741213,-3.249561309814453,-177.28585815429688,-81.4154281616211,79.38550567626953,2.7283411026000977,-0.1142970323562622,-2.568124771118164
567.7439389228821,158.1242218017578,-40.394344329833984,-156.9626922607422,-7.377758979797363,0.3639410138130188,-6.966100692749023,-84.57198333740234,-70.67951202392578,178.3605499267578,-1.6657590866088867,3.254086971282959,-5.842409133911133,-48.39027404785156,-41.46089172363281,-112.86288452148438,-2.746654987335205,9.738353729248049,1.017168045043945,32.95216751098633,11.125717163085938,148.8693389892578,-3.385702610015869,-8.245889663696289,-12.048044204711914,-179.72061157226562,-80.12739562988281,82.31270599365234,2.276704788208008,-1.723334789276123,-3.0663628578186035
567.7739889621735,153.9259796142578,-58.32814407348633,-156.155029296875,-6.46533203125,-1.6686055660247805,2.97800350189209,-86.82831573486328,-68.71964263916016,174.70401000976562,-5.980719566345215,3.2167954444885254,-7.506755828857422,-41.78211975097656,-50.47007751464844,-126.71378326416016,-0.6367719173431396,6.928438186645508,-4.649184226989746,17.691524505615234,19.882369995117188,148.8487548828125,4.574013710021973,2.7570576667785645,-9.523078918457031,177.85328674316406,-78.98831939697266,85.37629699707031,2.132576942443848,0.4306291937828064,-4.778368949890137
567.8039879798889,151.49305725097656,-78.23542022705078,-153.10769653320312,-0.7518590688705444,-5.669631004333496,20.21497344970703,-88.4470443725586,-67.46066284179688,171.30078125,-9.170629501342772,4.01932430267334,-9.997509002685549,-33.904964447021484,-59.31107711791992,-142.48484802246094,-0.8595936298370361,4.435609817504883,-6.8734893798828125,15.920467376708984,27.30552864074707,150.48941040039062,3.877986907958984,0.4498722553253174,-8.539213180541992,173.772216796875,-78.42718505859375,89.10492706298828,2.784402370452881,1.5434579849243164,-6.589377403259277
567.8331427574158,-6.642443656921387,-84.31818389892578,14.649410247802734,20.50306701660156,-1.3641512393951416,21.50634002685547,-84.7524185180664,-67.33634948730469,167.27349853515625,-6.624077796936035,3.442530632019043,-8.574638366699219,-23.65089607238769,-67.33173370361328,-162.40884399414062,0.6206859350204468,2.510246753692627,-5.281266212463379,21.49284553527832,33.40903091430664,156.5323028564453,-2.1079111099243164,-3.4065260887146,-11.282630920410156,168.44937133789062,-78.69761657714844,93.48419189453124,0.0265193097293376,0.01502694375813,-6.639925003051758
567.8937585353851,-0.6481908559799194,-76.39205169677734,17.480497360229492,18.51011276245117,23.336158752441406,-25.693443298339844,-81.79875183105469,-67.15084075927734,165.77777099609375,-3.727414131164551,1.6808717250823977,-6.692821502685547,-8.29171085357666,-73.14285278320312,170.11790466308594,1.6237239837646484,2.358762264251709,-3.58091402053833,27.18686866760254,37.10782241821289,169.47628784179688,-4.881250381469727,-5.567649841308594,-16.657291412353516,166.79852294921875,-79.2945785522461,95.57897186279295,-2.809120178222656,-1.4309511184692385,-6.904889106750488
567.9238562583923,16.95882797241211,-79.0432357788086,0.0466977655887603,14.928409576416016,5.6830339431762695,-7.646471977233887,-87.53797912597656,-66.3761215209961,169.1396484375,-6.089695930480957,1.7733683586120603,0.2518138885498047,19.55801773071289,-75.00283813476562,131.6032257080078,4.739397048950195,4.546490669250488,-2.1727538108825684,29.449806213378903,36.36361312866211,-174.19300842285156,-13.364824295043944,-9.50666046142578,-20.065135955810547,168.93186950683594,-79.33926391601562,94.40119934082033,2.382711410522461,-4.283113479614258,-6.515388488769531
567.9538726806641,65.9136734008789,-81.49423217773438,-48.69382095336914,9.130727767944336,1.2509591579437256,0.9008750915527344,-90.16968536376952,-65.45752716064453,171.0439453125,-5.589143753051758,1.367138147354126,3.124471664428711,46.91633987426758,-72.16068267822266,97.5489501953125,6.453150749206543,3.8865208625793457,-1.023209571838379,25.71561050415039,35.53175354003906,-164.3346405029297,-3.648494243621826,-4.204194068908691,-12.080617904663086,169.15475463867188,-78.5553207397461,94.37059020996094,1.5638864040374756,-0.4768152832984924,1.726703643798828
567.9834945201874,112.84629821777344,-76.82426452636719,-91.46559143066406,-6.486420631408691,-10.032089233398438,1.54974365234375,-90.88369750976562,-64.3718490600586,171.25070190429688,-6.081608772277832,2.619365692138672,3.3280820846557617,61.04109954833984,-67.89302062988281,79.83557891845703,7.788786888122559,5.336583137512207,2.7773218154907227,27.075395584106445,37.27613067626953,-168.512939453125,6.338006973266602,7.941221237182617,-7.405141830444336,166.64175415039062,-79.28179168701172,97.05760192871094,1.708012580871582,1.1541216373443604,1.4998064041137695
568.0136098861694,129.8357696533203,-72.55699157714844,-104.10474395751952,-4.801218986511231,-11.197874069213867,-2.1368212699890137,-87.91368103027344,-62.65070343017578,169.153076171875,-8.21561050415039,1.712688684463501,1.5668210983276367,64.9760513305664,-66.67977142333984,75.82762908935547,5.578130722045898,8.185575485229492,1.7912445068359375,33.85076904296875,39.55349349975586,177.65846252441406,1.1683692932128906,-4.7941484451293945,-11.59640884399414,171.575439453125,-78.58040618896484,93.32438659667967,5.541129112243652,-1.6745448112487793,4.542226791381836
568.0436108112335,139.0682830810547,-71.21775817871094,-110.52555084228516,5.6378679275512695,-2.7710952758789062,3.306180000305176,-83.26074981689453,-60.09626770019531,166.81573486328125,-8.69479751586914,0.494598388671875,0.3602151870727539,64.20683288574219,-70.4399185180664,80.39305877685547,2.263221740722656,6.011220932006836,8.548748016357422,37.44909286499024,40.27291488647461,157.57933044433594,-5.643886566162109,-9.016473770141602,-9.670248031616213,174.91921997070312,-78.2739028930664,92.5102081298828,4.899870872497559,-1.5484669208526611,5.965330123901367
568.0738451480865,145.80606079101562,-71.3154296875,-120.45325469970705,-3.3277454376220703,-4.127853393554688,1.6409063339233398,-78.39260864257812,-57.1085319519043,165.6119842529297,-9.086627960205078,0.0525655522942543,0.4380559921264648,54.04143905639648,-77.30337524414062,95.21562957763672,4.077873229980469,3.462578773498535,11.658163070678713,40.094947814941406,36.38913345336914,138.1120147705078,-2.9786815643310547,-11.812370300292969,-9.780536651611328,178.02169799804688,-77.3969955444336,92.64501953125,1.086388349533081,-1.881109952926636,0.8197355270385742
568.103985786438,153.639404296875,-71.49613189697266,-126.6810531616211,-4.365891456604004,1.7672512531280518,3.7088851928710938,-70.16461181640625,-54.105567932128906,164.08457946777344,-12.289426803588867,2.9277167320251465,-6.76322078704834,31.2890739440918,-82.12538146972656,127.53118896484376,2.746249198913574,-1.7862601280212402,5.324390411376953,39.243350982666016,27.72877693176269,121.37687683105467,-6.285886764526367,-7.613327980041504,-12.145336151123049,179.51763916015625,-75.77942657470703,94.17283630371094,-2.1793017387390137,-2.018251419067383,1.3713226318359375
568.1341617107391,164.14913940429688,-71.62435913085938,-131.65159606933594,-3.1452908515930176,4.484086036682129,2.682011604309082,-54.91632080078125,-52.642486572265625,165.7781524658203,-22.18328094482422,27.37927627563477,-23.995040893554688,-2.737072706222534,-83.276123046875,174.52374267578125,-2.341667652130127,-4.805482864379883,1.280111312866211,35.718170166015625,16.706289291381836,107.07144165039062,-6.144345283508301,-1.95674729347229,-9.101484298706056,178.26612854003906,-74.11729431152344,99.29639434814452,-3.6013479232788086,-1.1322581768035889,-0.2137832641601562
568.1941184997559,171.5396728515625,-71.85688018798828,-139.72438049316406,-0.8423501253128052,-1.4536163806915283,-0.6521148681640625,-51.91268157958984,-55.51153564453125,177.22564697265625,-23.3172607421875,13.400110244750977,-15.807247161865234,-35.294429779052734,-80.37318420410156,-144.805908203125,-5.466236114501953,-10.650285720825195,-2.8184356689453125,26.61446762084961,6.7308349609375,93.1387710571289,2.921896457672119,13.939193725585938,-0.9733619689941406,176.6433563232422,-72.7437973022461,105.3734359741211,-3.947795391082764,1.7513391971588137,-2.551194667816162
568.2232525348663,176.68704223632812,-71.25489807128906,-145.8601531982422,0.6603144407272339,-4.069367408752441,-0.3710241317749023,-65.02737426757812,-60.79139709472656,-162.104248046875,-17.790122985839844,3.154977321624756,-10.772626876831056,-47.147308349609375,-76.40847778320312,-133.2843475341797,-6.163938522338867,-4.427483558654785,-6.963231086730957,32.087310791015625,3.8758890628814697,83.59005737304688,50.63616943359375,-3.570344924926758,-5.176328659057617,175.2482147216797,-72.44630432128906,108.47402954101562,1.8433175086975095,2.515627384185791,1.085886001586914
568.2532596588135,179.82920837402344,-70.10125732421875,-147.8523712158203,-0.1746034026145935,-2.579385280609131,-0.1726484298706054,-91.52100372314452,-65.27338409423828,-133.09593200683594,-10.226879119873049,-2.379947662353516,-11.22981071472168,-44.30021286010742,-73.85709381103516,-135.42994689941406,-11.030027389526367,0.7231154441833496,-3.512359619140625,58.407958984375,4.739344120025635,83.16694641113281,-23.483741760253903,-5.494640350341797,10.206584930419922,173.82931518554688,-72.7981185913086,109.72051239013672,0.6671953201293945,2.770730972290039,0.6298284530639648
568.2836179733276,-179.8726043701172,-68.53929901123047,-147.5198974609375,-1.72648024559021,-0.5056898593902588,0.0725898742675781,-123.59532165527344,-65.82823181152344,-102.119384765625,-0.8038445711135864,-3.3186655044555664,-9.604803085327148,-43.84299850463867,-71.60088348388672,-137.89047241210938,-10.342845916748049,2.3350634574890137,-1.779043197631836,57.28226852416992,2.9412081241607666,85.36834716796875,5.72719669342041,-10.056901931762695,3.123462677001953,171.617431640625,-73.37522888183594,112.1471939086914,-4.930107116699219,2.782581329345703,-1.4369049072265625
568.313747882843,179.03810119628906,-66.55382537841797,-146.1973876953125,-0.4414313435554504,-1.2613236904144287,-1.0496644973754885,-149.22874450683594,-64.34149932861328,-79.44508361816406,0.8483535051345825,-2.4377665519714355,-6.739419937133789,-48.59869003295898,-68.19487762451172,-137.23851013183594,-4.352202415466309,0.0463453531265258,0.349863052368164,64.76922607421875,-0.5043203830718994,86.16958618164062,6.441988945007324,-8.346563339233398,-2.3708667755126958,168.97247314453125,-74.37812805175781,114.6848602294922,-4.043479919433594,0.8838602304458618,-4.154892921447754
568.3441340923309,177.6810760498047,-64.2009506225586,-144.29591369628906,-1.9477922916412356,0.230155199766159,-1.035808563232422,-168.9976043701172,-64.12120056152344,-63.06396484375,5.508364677429199,-3.348672389984131,3.731583595275879,-53.09539031982422,-62.600528717041016,-136.4720458984375,-2.0289511680603027,3.299859046936035,-1.1380386352539062,78.6909408569336,-6.899104595184326,82.96714782714844,1.5533273220062256,-1.5214369297027588,-5.134780883789063,164.2285614013672,-75.57842254638672,118.8770523071289,-0.241298109292984,-0.0785234570503234,-5.5040283203125
568.3738474845886,175.9766082763672,-60.91782379150391,-141.45803833007812,-0.5562642812728882,-2.892425060272217,-1.747602462768555,-179.91111755371094,-66.61698150634766,-51.06427383422852,15.277029037475586,-7.152899742126465,2.8117637634277344,-55.70466232299805,-56.39357376098633,-136.58584594726562,-1.1760210990905762,2.974306583404541,-4.920759201049805,92.34959411621094,-15.845425605773926,76.14189910888672,0.5077563524246216,4.119955062866211,-2.4594764709472656,155.62461853027344,-76.15371704101562,126.1389389038086,0.7446086406707764,0.6772022247314453,-4.692880630493164
568.4040732383728,175.36395263671875,-57.43086624145508,-138.5783233642578,1.01002836227417,-3.734546661376953,-0.8371305465698242,-177.47097778320312,-70.65094757080078,-45.95830154418945,-4.917718887329102,22.562885284423828,20.082107543945312,-57.28813171386719,-50.20685958862305,-137.4145050048828,1.6065728664398191,1.7795538902282717,-6.293658256530762,99.672119140625,-27.69932556152344,66.72335052490234,3.134720802307129,7.164070129394531,3.6446571350097656,146.0434112548828,-75.6601791381836,133.98866271972656,-0.6485331058502197,0.1492079794406891,-2.813448429107666
568.4340708255768,175.24436950683594,-53.97536849975586,-135.36170959472656,1.8070595264434812,-2.290771484375,-2.4416446685791016,-174.85552978515625,-70.09976196289062,-46.08901977539063,-3.6231861114501953,-5.1976518630981445,5.841833114624023,-57.75690841674805,-44.35543441772461,-138.8244171142578,3.646047115325928,2.5637989044189453,-5.360285758972168,100.22272491455078,-42.282806396484375,55.96434783935547,11.12061882019043,11.674112319946287,8.985095977783203,137.28878784179688,-73.75151824951172,141.42333984375,0.7395522594451904,-1.1437761783599854,-2.834993839263916
568.4939529895782,175.08209228515625,-50.48036193847656,-133.28639221191406,-2.8497653007507324,1.018876552581787,0.0446538925170898,-176.7013397216797,-68.66757202148438,-46.76509094238281,5.871148109436035,0.4328736066818237,6.579704284667969,-57.64150238037109,-38.67426681518555,-139.64703369140625,3.644026279449463,4.133060455322266,-1.9560761451721191,95.64613342285156,-55.08651351928711,47.89459228515625,22.049732208251957,14.187421798706056,24.334327697753903,130.90823364257812,-72.25006866455078,147.59579467773438,-2.15783166885376,-0.3716573119163513,3.957365036010742
568.5282988548279,175.58372497558594,-47.40287399291992,-132.6043701171875,-1.020045042037964,0.8619017601013184,0.4839992523193359,-176.0387420654297,-67.30784606933594,-47.13357925415039,5.614372253417969,1.8893067836761477,13.20180892944336,-56.711181640625,-32.22169876098633,-138.90281677246094,7.026897430419922,2.4778785705566406,18.26018524169922,88.73358917236328,-58.5322151184082,47.054107666015625,14.077922821044922,16.126266479492188,7.309808731079102,126.53448486328124,-71.81986999511719,152.54034423828125,1.740143060684204,2.891716480255127,5.126920700073242
568.553816318512,176.58226013183594,-45.22319030761719,-132.75425720214844,-0.2007944285869598,-0.2423347532749176,1.367898941040039,-172.53208923339844,-65.99781799316406,-49.17699432373047,-0.2102615237236023,-5.14644718170166,13.084318161010742,-50.01175308227539,-23.34669303894043,-139.5576171875,7.126477241516113,0.1337668895721435,18.619850158691406,94.35802459716795,-55.30036163330078,48.29411697387695,17.301189422607422,13.824312210083008,3.7169599533081055,123.42676544189452,-71.74364471435547,154.11651611328125,1.9748170375823972,1.8840663433074951,9.435806274414062
568.584269285202,177.4638671875,-44.3608627319336,-133.38584899902344,-0.7722575664520264,1.0052223205566406,2.472235679626465,-169.15077209472656,-63.84994125366211,-54.1163215637207,3.809453010559082,-5.351274490356445,10.619911193847656,-44.85384750366211,-10.305771827697754,-138.645751953125,4.355335235595703,-3.1992220878601074,27.732685089111328,104.98533630371094,-52.58439254760742,54.67008209228516,-0.2429453730583191,4.348184585571289,17.539817810058594,122.1417236328125,-71.97264099121094,153.7223358154297,-5.93344783782959,0.2557645440101623,9.823043823242188
568.6133806705475,178.61318969726562,-45.093143463134766,-134.2758331298828,-0.3622668981552124,0.9120503664016724,2.580241203308105,-166.72373962402344,-62.94844436645508,-60.334320068359375,-8.559532165527344,-1.932185411453247,7.9250640869140625,-32.46546936035156,5.286019325256348,-136.0833282470703,-3.1366353034973145,-9.082345962524414,23.91458511352539,106.98445129394533,-54.69923400878906,59.52611541748047,-0.2641835808753967,2.215370178222656,8.65768051147461,124.6086883544922,-72.5978775024414,151.06494140625,-4.613009452819824,0.9733291864395142,7.581502914428711
