Timestamp,D4:22:CD:00:05:5D_EulerX,D4:22:CD:00:05:5D_EulerY,D4:22:CD:00:05:5D_EulerZ,D4:22:CD:00:05:5D_FreeAccX,D4:22:CD:00:05:5D_FreeAccY,D4:22:CD:00:05:5D_FreeAccZ,D4:22:CD:00:05:5E_EulerX,D4:22:CD:00:05:5E_EulerY,D4:22:CD:00:05:5E_EulerZ,D4:22:CD:00:05:5E_FreeAccX,D4:22:CD:00:05:5E_FreeAccY,D4:22:CD:00:05:5E_FreeAccZ,D4:22:CD:00:05:6B_EulerX,D4:22:CD:00:05:6B_EulerY,D4:22:CD:00:05:6B_EulerZ,D4:22:CD:00:05:6B_FreeAccX,D4:22:CD:00:05:6B_FreeAccY,D4:22:CD:00:05:6B_FreeAccZ,D4:22:CD:00:05:6E_EulerX,D4:22:CD:00:05:6E_EulerY,D4:22:CD:00:05:6E_EulerZ,D4:22:CD:00:05:6E_FreeAccX,D4:22:CD:00:05:6E_FreeAccY,D4:22:CD:00:05:6E_FreeAccZ,D4:22:CD:00:49:AA_EulerX,D4:22:CD:00:49:AA_EulerY,D4:22:CD:00:49:AA_EulerZ,D4:22:CD:00:49:AA_FreeAccX,D4:22:CD:00:49:AA_FreeAccY,D4:22:CD:00:49:AA_FreeAccZ
1485.5940215587616,142.2588348388672,-70.63839721679688,-71.27017974853516,0.2345567345619201,2.033719539642334,1.7525720596313477,-142.0570831298828,-75.5824203491211,-79.9103775024414,-3.577282428741455,-4.1087141036987305,11.9376220703125,-71.88311767578125,28.69775390625,-91.24569702148438,-8.335302352905273,13.632268905639648,-7.833108901977539,-42.773868560791016,-71.95826721191406,-88.88555145263672,3.648982048034668,-10.418386459350586,1.0978670120239258,125.57147216796876,-79.44020080566406,160.94586181640625,-6.194828987121582,-0.0990859717130661,2.8910865783691406
1485.65686917305,-177.2205352783203,-61.71276092529297,-94.37041473388672,-0.2367317378520965,0.0370327457785606,0.6395235061645508,-77.8682861328125,-64.76681518554688,-89.36231994628906,-1.7551801204681396,0.420507550239563,-1.4090776443481443,-17.95511817932129,5.691626071929932,-31.619325637817383,3.689706802368164,-3.677595615386963,13.723871231079102,148.9558868408203,-66.45037078857422,-3.286097526550293,-3.012014389038086,-3.7891669273376474,1.498029708862305,172.0023193359375,-74.7345199584961,103.2794189453125,-1.4918735027313232,2.510641574859619,1.986572265625
1485.6869413852692,-176.78225708007812,-63.5640983581543,-93.53272247314452,0.6468231678009033,-0.3255468010902405,0.3085832595825195,-80.56945037841797,-63.03538513183594,-89.39848327636719,-0.9752182960510254,0.6176769733428955,-2.238664150238037,-5.266401290893555,8.319212913513184,-21.690980911254883,-4.726524353027344,-2.549321174621582,3.381148338317871,164.65310668945312,-71.52671813964844,-10.13685417175293,-0.7590062618255615,-8.448591232299805,1.160477638244629,175.0443572998047,-77.71591186523438,102.32353973388672,-2.9626989364624023,1.9469871520996092,-0.2856502532958984
1485.717082977295,-176.6259307861328,-65.87088012695312,-92.47249603271484,0.0082089602947235,-0.2470933496952057,0.3925533294677734,-76.61346435546875,-59.08940124511719,-98.88121032714844,-0.2509617805480957,-0.3314698934555053,-3.005033493041992,-1.697728991508484,12.212735176086426,-12.57125759124756,-5.125231742858887,-22.110069274902344,4.84610652923584,-177.270263671875,-77.60971069335938,-15.900665283203123,-1.1991167068481443,-5.462227821350098,0.0618209838867187,-169.75515747070312,-79.75086212158203,90.57110595703124,-0.2139074802398681,1.2276921272277832,-0.3594427108764648
1485.7460668087006,-176.78175354003906,-68.71739196777344,-92.11756134033205,-0.4958912134170532,-1.1584439277648926,0.1968336105346679,-65.68904113769531,-54.743770599365234,-113.60853576660156,-3.976561069488525,-1.4363090991973877,-3.6610589027404794,4.880173206329346,18.044883728027344,-7.045727252960205,-0.8571901321411133,-14.532146453857422,-4.796477317810059,-141.6772003173828,-81.97571563720703,-35.34341812133789,-2.5928897857666016,-4.16591739654541,-0.6212034225463867,-155.01727294921875,-80.49787902832031,79.52078247070312,0.7467833757400513,1.6549603939056396,-1.7414960861206057
1485.7765669822693,-176.6205596923828,-71.63615417480469,-92.4691390991211,0.2109971046447754,-1.3979520797729492,-0.6556882858276367,-58.07380676269531,-50.65440368652344,-125.72129821777344,-10.892473220825195,-4.881237030029297,-7.314231872558594,4.843656063079834,23.626924514770508,-3.255208730697632,-4.141299247741699,-2.164027214050293,-11.611021041870115,-94.9021987915039,-83.26676177978516,-66.0482177734375,-3.0718202590942383,-7.285220146179199,-3.320195198059082,-144.7841033935547,-80.82630920410156,72.36099243164062,0.2007367610931396,1.070429801940918,-3.455829620361328
1485.8066239356997,-177.10403442382812,-74.10958099365234,-92.60881805419922,0.9395509958267212,-2.1696114540100098,-1.1719303131103516,-58.31896209716797,-48.95459747314453,-134.38096618652344,-16.372303009033203,-5.619866371154785,-10.42361831665039,1.4785579442977903,27.76093864440918,-2.281672716140747,-1.1387226581573486,-4.443734169006348,-9.207757949829102,-58.726539611816406,-83.21675872802734,-88.75072479248047,-0.9291675090789796,-8.198883056640625,-4.721357345581055,-137.2813262939453,-81.37675476074219,66.98400115966797,0.1327295899391174,-0.1795029044151306,-3.624202251434326
1485.8368682861328,-179.39096069335938,-75.61915588378906,-90.46283721923828,2.255286693572998,-2.444425106048584,-1.527544021606445,-64.73248291015625,-50.077125549316406,-139.06517028808594,-17.844966888427734,-2.5753331184387207,-11.639663696289062,1.4031888246536257,31.1706657409668,-5.718108177185059,1.6371591091156006,0.1416864991188049,-8.178604125976562,-31.55311393737793,-82.99658203125,-105.94608306884766,0.993398666381836,-7.832940101623535,-5.535975456237793,-129.73223876953125,-82.12521362304688,60.74745178222656,0.0314864888787269,-0.7791728973388672,-3.5157456398010254
1485.896369934082,175.0852813720703,-75.88663482666016,-84.93383026123047,2.019845485687256,-2.5353102684021,-1.2591161727905271,-75.08939361572266,-52.58521270751953,-138.11505126953125,-14.312370300292969,2.1159043312072754,-11.189302444458008,1.1304274797439575,34.013614654541016,-13.315889358520508,0.6980823278427124,3.0151267051696777,-10.673128128051758,-14.210628509521484,-82.54148864746094,-116.58899688720705,2.103500843048096,-6.678923606872559,-5.147014617919922,-122.81484985351562,-82.8753662109375,54.24125671386719,0.2498919367790222,-1.1121597290039062,-3.695634365081787
1485.9264483451843,167.99864196777344,-74.48036193847656,-77.39286804199219,3.047694683074951,-3.951922416687012,-1.4890460968017578,-86.41182708740234,-56.32334899902344,-132.797119140625,-16.64944076538086,-0.8514890670776367,-13.451833724975586,-0.6427174210548401,36.04436492919922,-24.97455406188965,2.037022113800049,2.651671886444092,-11.48647117614746,-7.180508136749268,-82.30823516845703,-118.81439208984376,2.6762380599975586,-5.810157775878906,-4.898955345153809,-122.39273071289062,-83.7310562133789,52.78683471679688,0.0017820687498897,-0.5926527976989746,-3.58189058303833
1485.957452058792,163.02012634277344,-71.45734405517578,-70.46324157714844,0.3309261202812195,-1.299690008163452,-1.1714887619018557,-104.62963104248048,-59.6053352355957,-119.18065643310548,-14.71967315673828,1.52897047996521,-3.0030975341796875,-5.142329216003418,36.744895935058594,-40.02335357666016,1.8264663219451904,2.8768177032470703,-12.970848083496094,-9.225336074829102,-82.80118560791016,-113.17017364501952,3.826549530029297,-4.76762580871582,-5.1059675216674805,-128.80886840820312,-84.50630950927734,56.48032760620117,0.096261441707611,-0.458795428276062,-2.430192470550537
1485.986867904663,159.8098602294922,-68.6671142578125,-65.46800994873047,-4.1185808181762695,2.0555224418640137,0.8930368423461914,-119.03656768798828,-61.66592025756836,-103.87064361572266,0.2819128632545471,-14.740118026733398,-1.5546579360961914,-10.773038864135742,34.392852783203125,-57.79645919799805,2.823749542236328,-4.401179313659668,-15.560068130493164,-23.78391456604004,-84.05340576171875,-96.43215942382812,5.1476335525512695,-4.371071815490723,-5.028927803039551,-128.6385955810547,-85.27325439453125,53.29164505004883,-1.6566495895385742,-1.8778576850891116,-0.430032730102539
1486.0417301654816,155.62806701660156,-67.4237289428711,-60.900482177734375,-0.7253663539886475,1.044879913330078,2.7710742950439453,-127.87230682373048,-63.91453552246094,-90.25111389160156,-1.4168882369995115,-15.759899139404297,2.267770767211914,-18.801738739013672,29.10223388671875,-75.35489654541016,8.476202011108398,-6.216335296630859,-19.77853012084961,-64.17741394042969,-84.49519348144531,-57.09859085083008,6.966936111450195,-5.753938674926758,-1.891010284423828,-116.36709594726562,-86.36886596679688,40.10841751098633,-4.573038101196289,-0.493840217590332,3.513618469238281
1486.0487320423126,149.62985229492188,-67.23258972167969,-54.44349670410156,0.8278429508209229,1.285731315612793,1.4518775939941406,-140.67022705078125,-63.869537353515625,-76.76675415039062,5.767232894897461,-2.1627912521362305,12.194839477539062,-38.98944091796875,22.56786727905273,-83.72978973388672,-3.713590145111084,-1.0774109363555908,-13.60202407836914,-110.0251693725586,-81.93980407714844,-18.018291473388672,9.97081184387207,-7.26816463470459,4.789119720458984,-134.16607666015625,-86.52684020996094,57.05394744873047,-0.8987994194030762,-2.868709087371826,5.167176246643066
1486.077074050903,142.4951171875,-67.95144653320312,-46.1572151184082,-0.0645713210105896,1.030477523803711,2.4699907302856445,-156.59107971191406,-61.70133590698242,-66.35540771484375,-2.534468173980713,0.3412463665008545,-0.842864990234375,-65.36800384521484,21.35810852050781,-84.56017303466797,-7.207949638366699,-2.3439249992370605,6.388698577880859,-148.53208923339844,-78.27334594726562,6.788256645202637,8.628067016601562,-4.15200138092041,7.27290153503418,-146.9081573486328,-85.93832397460938,68.0938491821289,2.7216010093688965,-4.274832725524902,3.7281360626220703
1486.1067998409271,133.7889404296875,-69.38518524169922,-38.15764617919922,1.589477300643921,-0.1354866027832031,3.831486701965332,-165.75372314453125,-62.344852447509766,-57.974830627441406,3.26663875579834,-3.6949362754821777,6.207208633422852,-72.77012634277344,21.9487247467041,-83.6763687133789,-5.872019767761231,-0.2457895278930664,11.129175186157228,177.21441650390625,-74.17333984375,23.767976760864254,4.627296447753906,4.678642272949219,4.738394737243652,-145.88140869140625,-85.52862548828125,64.97697448730469,5.789372444152832,-0.4447124004364013,0.8810024261474609
1486.136871099472,119.6024169921875,-71.97245788574219,-27.58945083618164,5.164414405822754,0.2386952936649322,3.5083799362182617,-171.72943115234375,-63.94954681396485,-51.27327728271485,-0.2473345100879669,-1.4735708236694336,0.9162874221801758,-62.21413040161133,22.3107967376709,-78.39518737792969,-15.483753204345703,-1.310293674468994,9.94758415222168,150.21324157714844,-70.04953002929688,35.49553680419922,2.599691867828369,7.190073013305664,3.261605262756348,-141.58241271972656,-84.94812774658203,58.26225280761719,7.096513748168945,0.5365736484527588,-1.3712158203125
1486.1964511871338,108.3447494506836,-73.05452728271484,-25.35664749145508,2.222373008728028,17.46817398071289,1.035161018371582,-177.1206512451172,-65.49976348876953,-45.68962860107422,0.1932034194469452,-1.3655509948730469,0.4343690872192383,-51.0897331237793,22.357988357543945,-65.68101501464844,-10.071388244628906,-3.247657299041748,5.643865585327148,133.73397827148438,-68.00724029541016,42.796875,6.6603193283081055,16.488525390625,0.8935060501098633,-146.2943878173828,-83.21664428710938,61.41309356689453,1.5249323844909668,-1.4180908203125,2.11795711517334
1486.226842403412,120.39705657958984,-68.33938598632812,-43.74533081054688,15.383251190185549,18.454753875732425,3.795477867126465,178.7288360595703,-68.5487289428711,-38.81452560424805,0.6733356714248657,-1.6250920295715332,0.0556716918945312,-38.1368522644043,16.77094268798828,-50.91775131225586,-12.83236312866211,0.9278082847595216,6.359951019287109,125.29501342773438,-67.88299560546875,47.179569244384766,1.920752048492432,6.132082939147949,-1.4446887969970703,-147.0216522216797,-82.40240478515625,62.26795196533203,2.340641975402832,-0.5977377891540527,0.9018373489379884
1486.2572538852692,139.7306365966797,-57.94890975952149,-61.875762939453125,7.273283958435059,8.778558731079102,6.988433837890625,175.90652465820312,-71.39498138427734,-31.372312545776367,0.4003601670265198,0.0899546891450882,-0.2798471450805664,-26.735042572021484,5.81456995010376,-36.90239334106445,-15.326519012451172,3.21329116821289,-10.882375717163086,123.8171615600586,-68.04220581054688,50.76753234863281,-0.5992664098739624,2.860664367675781,-2.1157350540161133,-143.57095336914062,-82.36158752441406,59.4675407409668,6.112839698791504,1.4498302936553955,0.0294885635375976
1486.2867822647097,149.4651336669922,-46.760520935058594,-73.97063446044922,2.305311679840088,-1.014021873474121,1.688441276550293,173.9474334716797,-73.1578369140625,-26.128103256225582,-0.6093642711639404,-2.5427818298339844,-0.8221826553344727,-24.999717712402344,-10.008818626403809,-20.78834724426269,-0.4578323364257812,-3.050277709960937,-21.692100524902344,124.15363311767578,-68.79348754882812,53.620792388916016,-2.5182442665100098,-4.969365119934082,-1.2876806259155271,-146.73902893066406,-82.53839111328125,62.34830856323242,6.144801139831543,0.3629752397537231,-1.0881757736206057
1486.316296339035,152.9595947265625,-36.386566162109375,-82.34921264648438,1.3612241744995115,-7.0503129959106445,-4.969252586364746,173.24969482421875,-74.66329956054688,-22.293359756469727,-0.2551347613334656,-3.0239758491516118,-1.483902931213379,-32.96677780151367,-26.962905883789062,0.0424195043742656,15.015447616577148,-0.0083136558532714,-11.090829849243164,122.7787857055664,-69.57302856445312,55.86051177978516,-1.6580851078033447,-3.106039047241211,-4.375414848327637,-155.08493041992188,-83.033935546875,69.7470932006836,2.695326328277588,-0.1638388931751251,-1.88692569732666
1486.3467564582825,155.67547607421875,-28.067819595336918,-88.24295043945312,-1.9165832996368408,-7.619999885559082,-12.133260726928713,174.5926513671875,-75.19438171386719,-20.83785820007324,-0.2365552186965942,-4.73387336730957,-2.6448631286621094,-47.7665901184082,-36.90986633300781,25.722415924072266,10.599132537841797,7.03867244720459,1.679213523864746,122.75405883789062,-70.40406036376953,57.30746841430664,-0.9559533596038818,-0.6743909120559692,-5.738149642944336,-160.55087280273438,-83.54141998291016,74.12397003173828,0.8443690538406372,-0.1613931059837341,-3.549947738647461
1486.376774072647,159.82257080078125,-23.178211212158203,-92.49037170410156,-0.9874192476272584,-5.20750617980957,-15.74485969543457,176.5885467529297,-73.79615020751953,-22.359310150146484,-0.8335787057876587,-6.078121185302734,-2.359116077423096,-55.66720199584961,-36.80531311035156,46.19539260864258,-3.8266544342041016,13.405986785888672,3.607598304748535,125.12071990966795,-71.51754760742188,57.9469108581543,0.0840462744235992,-0.6167285442352295,-5.378019332885742,-164.34237670898438,-83.18980407714844,76.95609283447266,1.6904757022857666,-1.092206954956055,-5.494510650634766
1486.4066050052645,165.83477783203125,-21.93459892272949,-96.7532730102539,-4.577527046203613,-5.496488571166992,-8.692312240600586,179.7515411376953,-70.89606475830078,-26.475255966186523,0.8120471239089966,-2.7573790550231934,-1.7093029022216797,-53.3841667175293,-31.68128967285156,51.75553512573242,-5.928404808044434,13.46491241455078,-9.164833068847656,128.88824462890625,-72.76220703125,58.697975158691406,0.8253636360168457,-1.1042442321777344,-4.344803810119629,-168.9136199951172,-82.5494384765625,80.93830871582031,1.0927610397338867,-0.75484299659729,-4.014466285705566
1486.4366850852966,167.0946502685547,-25.06975746154785,-101.0848159790039,-5.650261878967285,-8.060647964477539,-11.000118255615234,-177.23095703125,-66.96588134765625,-31.463871002197266,-0.9275170564651488,-1.4743311405181885,-0.943089485168457,-50.84202575683594,-26.916820526123047,48.13954925537109,-4.529880523681641,2.402222156524658,-11.211709976196287,132.13494873046875,-73.77584838867188,60.38603210449219,1.5159189701080322,-2.283271312713623,-3.4934611320495605,-171.4373779296875,-82.3665771484375,83.36412048339844,-0.5275726318359375,0.1982823610305786,-3.7059497833251953
1486.4967737197876,167.10128784179688,-27.857446670532227,-104.11408996582033,-6.03745174407959,6.607097625732422,27.647750854492188,-175.13104248046875,-62.78990173339844,-36.27366256713867,0.2911335229873657,-2.8207807540893555,-0.5193977355957031,-49.185176849365234,-24.815860748291016,41.643646240234375,0.9441969394683838,-4.736083984375,-10.676355361938477,133.3597412109375,-74.05862426757812,63.349884033203125,1.899287700653076,-3.0230445861816406,-1.6600589752197266,-170.62367248535156,-82.20673370361328,82.04181671142578,3.669923782348633,1.0173261165618896,-1.7687788009643557
1486.5268959999084,167.33326721191406,-26.89010238647461,-103.77685546875,-7.379767417907715,-13.824472427368164,-2.451782703399658,-173.8885955810547,-58.69631576538086,-40.697059631347656,-1.7720911502838137,-1.5270695686340332,0.3366842269897461,-49.4761962890625,-27.64894676208496,37.10540390014648,2.155463218688965,-1.9764292240142824,-14.790922164916992,131.5499725341797,-72.52954864501953,68.02970123291016,4.618631362915039,-9.402645111083984,6.758277893066406,-170.02090454101562,-82.33901977539062,79.28314208984375,5.491580009460449,-1.724009990692139,1.7056970596313477
1486.5568962097168,171.65794372558594,-25.506214141845703,-101.79544067382812,-6.89265251159668,-15.940549850463867,0.5285120010375977,-173.5006103515625,-55.81480407714844,-43.18294143676758,0.3517341613769531,-2.384268283843994,1.7804279327392578,-57.28613662719727,-36.44000244140625,36.000389099121094,7.4646453857421875,-0.7222630977630615,-8.815059661865234,119.8523941040039,-67.90955352783203,75.72909545898438,7.036990165710449,-2.2590861320495605,19.121326446533203,-171.4903564453125,-82.72479248046875,78.6859130859375,-2.9176101684570312,0.2924419045448303,0.0405864715576171
1486.5871977806091,174.21218872070312,-24.155134201049805,-100.3935089111328,-11.928882598876951,-14.08536148071289,7.410238265991211,-174.09815979003906,-53.67467880249024,-44.23887252807617,0.4430223107337951,-1.0524234771728516,1.628190040588379,-71.79949188232422,-53.68075942993164,42.81141662597656,22.94077682495117,3.564692497253418,22.40682983398437,106.85169982910156,-56.51089096069336,87.23249816894531,11.437772750854492,0.9379110336303712,24.25491714477539,-174.9832763671875,-82.08141326904297,81.87107849121094,-3.945122241973877,-0.2023413479328155,9.34035301208496
1486.6171913146973,171.77784729003906,-22.46271324157715,-99.7771224975586,-10.812681198120115,-14.760801315307615,6.11913013458252,-175.558837890625,-52.569557189941406,-44.54481506347656,0.6521464586257935,-1.8353283405303955,1.8106822967529297,-73.19287109375,-70.78160858154297,48.90819549560547,-5.979944229125977,24.96944808959961,44.02120208740234,96.90586853027344,-37.04786682128906,95.5869140625,17.094234466552734,4.171151161193848,32.53584289550781,-175.7859649658203,-82.33822631835938,83.56449127197266,1.670393705368042,1.8096261024475095,7.115049362182617
1486.6465921401978,168.5470428466797,-21.69387626647949,-99.26119232177734,-6.1671552658081055,-10.460721969604492,-1.0078649520874023,-177.01097106933594,-53.45001983642578,-44.070404052734375,0.0462714284658432,-1.9137732982635496,1.3433160781860352,-62.13457489013672,-71.97671508789062,51.73625946044922,14.60359001159668,22.55762481689453,-2.4422922134399414,84.63394165039062,-15.829245567321776,99.94971466064452,16.136585235595703,13.283121109008787,13.799365997314451,-178.99888610839844,-82.10285949707031,87.21101379394531,4.328733444213867,1.8078863620758057,5.621312141418457
1486.6858286857605,167.77890014648438,-22.343259811401367,-98.75741577148438,-6.41827392578125,-3.724520683288574,1.7621383666992188,-178.17527770996094,-55.69415283203125,-43.69276428222656,-0.5451611280441284,-2.120243549346924,0.777435302734375,-72.37528991699219,-62.23794937133789,59.24362564086914,13.680736541748049,13.568769454956056,14.334070205688477,71.66577911376953,4.4289069175720215,101.99772644042967,9.77503776550293,13.567110061645508,1.7575206756591797,177.74203491210938,-82.6762466430664,90.9693603515625,3.5195555686950684,1.7533915042877195,4.115553855895996
1486.7172491550446,165.2037811279297,-25.190284729003903,-98.05853271484376,-6.353604316711426,-4.937768936157227,-3.591634750366211,-179.40370178222656,-58.89897537231445,-43.341007232666016,0.139182299375534,-1.812624216079712,0.8163919448852539,-81.23072814941406,-54.25382995605469,58.37489700317383,-1.4240219593048096,4.949638366699219,10.531551361083984,58.4970932006836,21.18350601196289,104.47391510009766,6.927402496337891,6.966638565063477,-4.690919876098633,174.10569763183594,-82.81580352783203,94.8710708618164,3.35847282409668,1.762493133544922,1.8819084167480469
1486.7368359565735,161.2743682861328,-30.43813705444336,-96.35093688964844,-4.846527099609375,-3.4349942207336426,-4.689260482788086,179.19155883789062,-62.749755859375,-42.40699005126953,0.4945195913314819,-2.1990532875061035,0.2881412506103515,-80.24095916748047,-52.51763153076172,54.17359924316406,-0.2606401443481445,3.22839879989624,-0.5615825653076172,51.7650032043457,34.41303253173828,108.99014282226562,3.763440608978272,2.083616256713867,-5.340882301330566,169.9604949951172,-82.60015869140625,98.99337768554688,2.785686016082764,0.7020962238311768,-1.396296501159668
1486.7967755794523,157.28350830078125,-37.62572479248047,-93.53434753417967,-2.391073703765869,-2.7356057167053223,-6.207242965698242,177.70977783203125,-66.72148132324219,-40.915470123291016,0.0660025924444198,-2.949112892150879,-0.5159749984741211,-83.99250030517578,-54.16236114501953,52.666969299316406,1.7626986503601074,0.833946943283081,-7.098626136779785,63.69173431396485,46.00313568115234,115.86604309082033,-2.1843295097351074,0.6140944957733154,-6.098400115966797,164.49368286132812,-82.15046691894531,104.3185577392578,1.8015153408050537,0.4309892058372497,-3.292914390563965
1486.8269279003143,153.09408569335938,-46.6181640625,-89.59229278564453,-0.7073715925216675,-2.8375415802001958,-5.751344680786133,176.43338012695312,-70.26578521728516,-39.421661376953125,0.2562870979309082,-2.8596019744873047,-1.4060211181640625,-94.66244506835938,-57.99930191040039,54.91624069213867,-2.623721122741699,0.3857014179229736,-2.937192916870117,88.8914566040039,54.36543273925781,128.04867553710938,-5.71810245513916,-2.0738863945007324,-7.071504592895508,160.56039428710938,-81.52603912353516,107.91085052490234,1.52939772605896,-0.2626389265060425,-4.824277877807617
1486.8570137023926,147.5325164794922,-56.90558242797852,-83.73719024658203,0.7266472578048706,-2.295602321624756,-2.622837543487549,176.11441040039062,-73.01383972167969,-38.70541763305664,-0.0519057437777519,-3.0748696327209477,-2.862306594848633,-106.28106689453124,-63.016746520996094,60.32346725463867,-4.285642623901367,1.4018902778625488,-3.7741641998291016,109.18983459472656,57.15026473999024,143.94410705566406,-11.217340469360352,3.2397537231445312,-3.167900562286377,159.38552856445312,-80.74755859375,108.3547134399414,1.8057010173797607,-0.6909781694412231,-6.229551315307617
1486.8870193958282,138.21026611328125,-67.80887603759766,-72.2996597290039,4.878878593444824,-3.703703403472901,1.6411018371582031,176.87388610839844,-74.66597747802734,-40.24970626831055,-0.1429825723171234,-2.555441379547119,-2.5760340690612797,-119.9495849609375,-67.91755676269531,69.17967987060547,-3.242591857910156,2.111505508422852,-4.369684219360352,107.46372985839844,53.21090316772461,159.01890563964844,-12.575336456298828,-2.037357807159424,-7.580598831176758,159.91958618164062,-79.7299575805664,106.69298553466795,2.8020339012146,-0.0730106383562088,-5.424480438232422
1486.916608095169,117.0099639892578,-77.05970001220703,-45.254859924316406,6.351311683654785,4.636551856994629,6.1300859451293945,179.57774353027344,-75.41567993164062,-44.16635513305664,2.160977840423584,-2.880788326263428,0.74237060546875,-135.85833740234375,-72.32528686523438,76.91751861572266,-6.073660850524902,5.873106002807617,-4.30244255065918,98.87854766845705,44.15245056152344,170.69808959960938,-12.309942245483398,-4.68453311920166,-16.9744873046875,159.84877014160156,-78.93888092041016,105.78130340576172,2.9034433364868164,0.5784839391708374,-2.2689743041992188
1486.9469201564789,80.33214569091797,-79.55795288085938,0.2620831727981567,7.439723968505859,13.470159530639648,3.306827545166016,-176.451904296875,-75.26190948486328,-49.5369758605957,1.0457382202148438,-3.3955788612365723,-0.9882583618164062,-154.57835388183594,-76.72097778320312,87.31153869628906,-6.533694267272949,1.8644728660583496,-5.332305908203125,102.07798767089844,35.08781433105469,-179.08363342285156,-16.44000244140625,-0.2066748142242431,-20.375389099121094,159.91200256347656,-78.88980865478516,104.81312561035156,2.337553024291992,-0.7855424880981445,-0.3651952743530273
1486.9769201278689,61.19200134277344,-78.47938537597656,24.192445755004883,6.5329790115356445,30.74734115600586,-12.144449234008787,-169.98895263671875,-74.11394500732422,-58.09048080444336,0.8320401906967163,-3.235053539276123,0.8005342483520508,177.5376739501953,-79.37492370605469,108.76280212402344,-2.67899227142334,1.0913889408111572,-5.4638214111328125,118.68507385253906,30.964038848876957,-172.0287628173828,8.097640991210938,-13.80686378479004,-4.751616477966309,160.90188598632812,-79.12871551513672,103.16072082519533,3.777564525604248,-3.352260112762451,1.8302106857299805
1487.0067110061646,75.70731353759766,-80.51858520507812,8.17155933380127,14.461915969848633,1.0012104511260986,-0.4959449768066406,-160.49449157714844,-73.22016906738281,-68.12841796875,0.3952476382255554,-3.7677388191223145,2.3713455200195312,145.00473022460938,-78.15716552734375,133.4896240234375,-2.780768871307373,-0.7481825351715088,-4.837347984313965,129.81553649902344,34.491363525390625,-171.94085693359375,-1.2125566005706787,4.592667579650879,6.242420196533203,161.00009155273438,-78.65571594238281,103.81221771240234,3.0289440155029297,-4.239590644836426,3.203582763671875
1487.036878824234,99.8516845703125,-82.91465759277344,-16.306819915771484,-0.3566915988922119,-2.8324923515319824,2.147115707397461,-148.6641845703125,-73.22769165039062,-78.29948425292969,0.8252140283584595,-4.846132278442383,2.7930126190185547,126.78759765625,-73.64571380615234,140.02407836914062,-5.167721748352051,0.4288747310638428,-2.7522549629211426,128.1891632080078,39.827823638916016,-176.54751586914062,2.308528423309326,-2.1114606857299805,-5.416143417358398,159.11656188964844,-78.8009262084961,107.37548828125,-0.7018283605575562,-1.074173927307129,-0.0112180709838867
1487.0958693027496,128.03024291992188,-82.46558380126953,-44.23493957519531,2.9202218055725098,-7.055848121643066,8.788427352905273,-130.40542602539062,-74.24449920654297,-92.3425750732422,0.4515804052352905,-9.029918670654297,1.7738113403320312,117.27835083007812,-68.19673156738281,135.0853729248047,-6.965399742126465,6.572181701660156,2.621890068054199,122.74769592285156,48.68963241577149,172.11831665039062,-7.45231819152832,-7.606235504150391,1.0941925048828125,158.80487060546875,-78.34619140625,108.84776306152344,-1.042252540588379,0.0745221227407455,-0.5886383056640625
1487.1267247200012,150.4403076171875,-81.01592254638672,-63.44731521606445,-8.461128234863281,4.096473693847656,0.7887754440307617,-112.5467300415039,-73.33866119384766,-100.52165222167967,-15.586984634399414,-3.865614414215088,-2.638397693634033,112.66522216796876,-63.056827545166016,128.22303771972656,-7.033241271972656,13.455265045166016,3.4721546173095703,104.08989715576172,57.25644302368164,146.8830108642578,-9.766351699829102,-2.7929763793945312,-8.394287109375,159.95895385742188,-76.45980072021484,109.53839874267578,-3.326460838317871,-0.6339612007141113,1.6111927032470703
1487.1568565368652,162.6873016357422,-80.06993865966797,-76.28581237792969,1.0721616744995115,0.8033159971237183,1.7679567337036133,-117.47967529296876,-69.65766143798828,-88.55947875976562,-26.98099899291992,-2.566768169403076,3.09467887878418,117.33758544921876,-59.84288024902344,123.98096466064452,-7.658637046813965,13.235301971435549,1.3562631607055664,74.70602416992188,57.26713943481445,111.79303741455078,-6.640837669372559,-3.8319735527038574,-10.150564193725586,161.5034942626953,-74.69998931884766,110.41039276123048,-6.794881820678711,0.2597340941429138,1.4531240463256836
1487.1867735385897,173.04815673828125,-79.67633056640625,-86.89208984375,0.375845730304718,1.3983588218688965,0.777562141418457,-136.98426818847656,-61.33365249633789,-69.03910064697266,-11.997379302978516,-6.046754837036133,8.231782913208008,129.31057739257812,-60.346656799316406,122.37543487548828,3.933970451354981,2.8065810203552246,6.370601654052734,51.5135498046875,49.1585807800293,81.46556091308594,1.409160852432251,0.9257644414901732,-15.155967712402344,164.89727783203125,-73.60623931884766,109.03553009033205,-1.956787347793579,1.8746535778045652,0.6200323104858398
1487.216697692871,-178.23789978027344,-79.7802505493164,-96.33245849609376,-0.1613349914550781,0.4159495234489441,0.8168411254882812,-148.1191864013672,-52.170875549316406,-55.58275985717773,-3.189180850982666,-5.160582542419434,0.5579366683959961,129.3068084716797,-63.67935180664063,120.58928680419922,-2.0462088584899902,4.796574592590332,-0.0814008712768554,41.392086029052734,38.73054885864258,60.72133255004883,13.069581985473633,2.26124906539917,-13.440118789672852,165.0261993408203,-72.71903228759766,109.48533630371094,0.4567598700523376,1.770627498626709,2.647430419921875
1487.2469110488892,-170.67762756347656,-80.18730926513672,-105.0811996459961,1.3352136611938477,-0.3711280226707458,0.0111093521118164,-153.63275146484375,-43.880897521972656,-45.85026931762695,0.5069551467895508,-4.444141387939453,-5.157293319702148,131.61244201660156,-67.20880126953125,119.23870086669922,-3.366915225982666,0.7277451753616333,-0.2917318344116211,43.91300964355469,30.198394775390625,48.31900787353516,22.61367416381836,-4.472631454467773,-5.0156450271606445,164.084716796875,-72.38056945800781,110.48221588134766,-1.9689083099365237,1.5184905529022217,0.5636091232299805
1487.2769103050232,-163.89291381835938,-80.39500427246094,-112.33346557617188,0.961544394493103,-1.134401798248291,-0.1894359588623047,-156.285400390625,-37.533668518066406,-38.31667709350586,2.240199565887451,-0.903770923614502,-8.947746276855469,131.93716430664062,-70.75955963134766,116.1877212524414,-4.128741264343262,-0.7973487377166748,0.0773048400878906,62.26571273803711,25.61481475830078,44.42807388305664,5.629014015197754,-4.9231719970703125,-8.826663970947266,163.9800567626953,-72.54460906982422,110.14842224121094,-2.588405132293701,1.4914870262145996,-1.173295974731445
1487.3074264526367,-158.97027587890625,-80.29327392578125,-117.554443359375,0.95890474319458,-1.3540832996368408,-0.5597667694091797,-158.43020629882812,-33.23933029174805,-32.05328750610352,1.2786879539489746,-1.2495629787445068,-9.898805618286133,131.71682739257812,-73.49726104736328,113.47613525390624,-6.315224647521973,-0.857736349105835,-1.7538042068481443,73.60987091064453,22.336275100708008,42.793678283691406,-10.949502944946287,21.50906753540039,18.48482131958008,163.43687438964844,-73.01734924316406,110.46587371826172,-1.4691214561462402,0.7983728647232056,-1.8263211250305176
1487.3374280929563,-155.49168395996094,-79.8994140625,-120.98221588134766,1.0316028594970703,-1.533668041229248,-0.3845081329345703,-163.23141479492188,-30.76431655883789,-25.92740249633789,-0.3970871567726135,-2.18192195892334,-6.409608840942383,133.1283721923828,-75.47528839111328,111.42259979248048,-4.679491996765137,-0.948560118675232,-2.818686485290528,70.37499237060547,20.31304359436035,37.881629943847656,2.755455017089844,-4.207951545715332,-2.790879249572754,160.89544677734375,-73.10549926757812,112.9465789794922,0.1555357277393341,1.3987853527069092,-2.1820473670959477
1487.397222518921,-153.82469177246094,-79.24959564208984,-122.00366973876952,1.7646727561950684,-1.6700830459594729,-0.4382848739624023,-170.60350036621094,-30.42493438720703,-19.33519744873047,4.723751068115234,-1.921006679534912,-5.869959831237793,135.3189239501953,-77.3549575805664,109.04923248291016,-4.321077346801758,-0.0104439258575439,-2.8330116271972656,80.16667938232422,17.693681716918945,34.05443572998047,-1.8592941761016848,-0.7940300703048706,-4.075516700744629,156.4954071044922,-73.05936431884766,116.44368743896484,-0.8263589143753052,0.5588947534561157,-1.1536474227905271
1487.4273698329926,-153.5876007080078,-78.43280029296875,-120.74665069580078,1.7681171894073486,-1.3394827842712402,-0.5015840530395508,-176.556640625,-33.52146530151367,-12.2423095703125,12.048831939697266,-0.1172837316989898,-6.981285095214844,138.51109313964844,-79.72444915771484,105.68649291992188,-3.313140392303467,1.085993766784668,-1.8106012344360352,91.3259048461914,12.099905014038086,31.12413787841797,-0.9496626853942872,3.535890579223633,0.565791130065918,148.88931274414062,-72.93730163574219,122.51146697998048,-2.254152774810791,0.7809464931488037,-1.5136632919311523
1487.457709789276,-155.97039794921875,-77.23995208740234,-117.18323516845705,-1.694556474685669,-1.1726818084716797,-0.0389013290405273,-177.23544311523438,-39.05770111083984,-7.097682476043701,4.290426254272461,11.024370193481444,14.99709701538086,144.84902954101562,-82.57978820800781,98.63175964355467,-3.204658508300781,2.2090697288513184,-2.574387550354004,95.23439025878906,1.828056812286377,28.75621032714844,3.0246124267578125,2.5680413246154785,-1.8913512229919436,140.58233642578125,-72.27268981933594,129.2264862060547,-2.3841772079467773,0.8528392314910889,-1.2816381454467771
1487.4869012832642,-160.4650421142578,-75.52165222167969,-112.17170715332033,-0.4858664274215698,-1.255459547042847,-0.1523895263671875,-170.95773315429688,-41.52704620361328,-6.581367492675781,15.363422393798828,1.6609165668487549,2.4789438247680664,162.1805419921875,-85.32617950439453,80.93514251708984,-3.736958503723145,3.618575096130371,-3.184790134429932,93.08773040771484,-14.359651565551758,26.976964950561523,9.822782516479492,7.213869094848633,3.741897583007813,133.3760528564453,-71.50764465332031,135.62754821777344,-3.894928455352783,-1.1392590999603271,-1.648298263549805
1487.5166895389557,-164.58140563964844,-73.27510070800781,-106.25677490234376,1.632059097290039,-0.8945032358169556,-0.5027694702148438,-172.95291137695312,-43.10860443115234,-7.169917583465576,11.587059020996094,-3.894394397735596,-0.296945571899414,-156.0355682373047,-86.51283264160156,39.56866455078125,-3.373142719268799,1.6951024532318115,-3.797144889831543,78.16717529296875,-33.41031646728516,28.00808906555176,24.24458694458008,12.899038314819336,24.64739990234375,128.23434448242188,-70.40350341796875,141.0206756591797,-3.350778102874756,-1.3507273197174072,-1.447850227355957
1487.5470697879791,-168.42669677734375,-70.88429260253906,-100.60121154785156,-2.0336599349975586,0.1930271089076995,0.5970983505249023,-178.60833740234375,-44.02882766723633,-5.885770320892334,15.465417861938477,3.3529744148254395,6.083725929260254,-113.80624389648438,-85.70354461669922,-2.720953702926636,0.4684844017028808,7.708318710327148,-1.5373620986938477,58.533485412597656,-40.81993103027344,35.07560729980469,27.165477752685547,4.470410346984863,9.709720611572266,124.4891586303711,-69.73126220703125,145.40960693359375,3.4204721450805664,1.014662742614746,0.8289871215820312
1487.5766756534576,-173.66314697265625,-68.82182312011719,-95.8101577758789,3.0991177558898926,-0.2131242752075195,-0.7202987670898438,-176.58291625976562,-44.45171737670898,-6.342109680175781,18.244781494140625,5.448679924011231,6.116399765014648,-82.02841186523438,-83.7756576538086,-35.129295349121094,-6.449105262756348,12.649686813354492,1.1023883819580078,60.35541915893555,-35.47189712524414,30.163686752319336,23.877243041992188,-1.9117693901062007,6.171473503112793,124.24797058105467,-69.65876770019531,145.6953887939453,2.4095163345336914,1.5118649005889893,1.469839096069336
1487.6071639060974,-174.13320922851562,-67.4758071899414,-94.3899154663086,-1.4583210945129397,1.5882041454315186,1.6157140731811523,-171.0308074951172,-42.30341720581055,-8.449860572814941,13.664995193481444,-5.152215957641602,6.125056266784668,-60.58713912963867,-79.08753967285156,-51.238887786865234,-5.6453857421875,8.134748458862305,7.808805465698242,73.61341094970703,-22.78448486328125,26.15469741821289,18.454872131347656,14.280603408813477,3.764503479003906,127.13044738769533,-69.53267669677734,143.06927490234375,-3.497285842895508,-1.8771884441375728,5.662225723266602
1487.637264251709,-173.78707885742188,-67.2355728149414,-94.2294692993164,-0.5027670860290527,0.5717220306396484,1.1492185592651367,-170.30572509765625,-37.18117904663086,-11.459671020507812,12.488956451416016,-5.493863105773926,5.971658706665039,-63.06969451904297,-69.30738067626953,-47.65856170654297,-12.783388137817385,14.058250427246094,10.195018768310549,82.16387176513672,-9.477259635925291,27.446393966674805,12.271841049194336,16.164878845214844,-5.695420265197754,131.12136840820312,-69.66575622558594,139.65423583984375,-2.051577091217041,0.7889962196350098,4.531497001647949
