Timestamp,D4:22:CD:00:05:5D_EulerX,D4:22:CD:00:05:5D_EulerY,D4:22:CD:00:05:5D_EulerZ,D4:22:CD:00:05:5D_FreeAccX,D4:22:CD:00:05:5D_FreeAccY,D4:22:CD:00:05:5D_FreeAccZ,D4:22:CD:00:05:5E_EulerX,D4:22:CD:00:05:5E_EulerY,D4:22:CD:00:05:5E_EulerZ,D4:22:CD:00:05:5E_FreeAccX,D4:22:CD:00:05:5E_FreeAccY,D4:22:CD:00:05:5E_FreeAccZ,D4:22:CD:00:05:6B_EulerX,D4:22:CD:00:05:6B_EulerY,D4:22:CD:00:05:6B_EulerZ,D4:22:CD:00:05:6B_FreeAccX,D4:22:CD:00:05:6B_FreeAccY,D4:22:CD:00:05:6B_FreeAccZ,D4:22:CD:00:05:6E_EulerX,D4:22:CD:00:05:6E_EulerY,D4:22:CD:00:05:6E_EulerZ,D4:22:CD:00:05:6E_FreeAccX,D4:22:CD:00:05:6E_FreeAccY,D4:22:CD:00:05:6E_FreeAccZ,D4:22:CD:00:49:AA_EulerX,D4:22:CD:00:49:AA_EulerY,D4:22:CD:00:49:AA_EulerZ,D4:22:CD:00:49:AA_FreeAccX,D4:22:CD:00:49:AA_FreeAccY,D4:22:CD:00:49:AA_FreeAccZ
2307.480877637863,173.65802001953125,-51.44223785400391,-50.527130126953125,-0.7720228433609009,-0.3963767290115356,0.6085004806518555,-169.0974884033203,-44.14943313598633,-75.59827423095703,-4.290740966796875,-14.331954956054688,11.770479202270508,-66.7703628540039,-19.556787490844727,-106.73383331298828,13.074041366577148,4.787519454956055,33.48784637451172,92.1087875366211,-42.60613632202149,-31.47732925415039,12.212722778320312,1.9042043685913088,11.11323356628418,150.4502716064453,-67.44535827636719,125.24781799316406,-0.3826635479927063,-3.12986421585083,7.767362594604492
2307.565891504288,171.35635375976562,-70.91293334960938,-138.87828063964844,3.1354260444641118,1.8145718574523928,-0.3445081710815429,-147.78639221191406,-72.77336120605469,-37.211669921875,0.3941623568534851,-12.010257720947266,15.10452651977539,-88.8057861328125,17.901668548583984,-68.06542205810547,14.815929412841797,-2.329658508300781,12.967609405517578,53.282936096191406,-76.3703842163086,58.48540878295898,11.225595474243164,6.262615203857422,10.770402908325195,-153.42587280273438,-70.72306823730469,71.96368408203125,3.344490528106689,2.848525047302246,0.735198974609375
2307.5964283943176,174.50241088867188,-65.55928039550781,-140.22486877441406,4.297857284545898,-0.7135920524597168,0.8190784454345703,154.91542053222656,-71.25386810302734,21.061372756958008,0.2860287427902221,-4.108992576599121,21.904613494873047,-78.15495300292969,25.548664093017575,-67.65324401855469,18.2915153503418,-6.382567405700684,24.953208923339844,-9.514640808105469,-83.24436950683594,118.54264831542967,13.64169692993164,7.571647644042969,12.636960983276367,-164.04837036132812,-74.228515625,82.24322509765625,7.456350326538086,0.8407975435256958,8.047679901123047
2307.6254918575287,178.564208984375,-62.46223068237305,-144.03781127929688,1.3102624416351318,3.527822494506836,2.593271255493164,136.8914794921875,-64.49909210205078,37.88753509521485,0.328438401222229,2.334866523742676,17.86705780029297,-53.93056869506836,32.68821716308594,-60.75585174560547,22.24209976196289,-15.162267684936523,26.04732894897461,-70.54159545898438,-62.74420928955078,-171.60165405273438,-10.351390838623049,16.560340881347656,13.074666976928713,176.3028564453125,-74.31096649169922,100.91664123535156,-0.6018000841140747,-2.043752670288086,10.852537155151367
2307.6860733032227,-178.966064453125,-61.31243515014648,-146.443115234375,1.5389204025268557,2.178079128265381,2.2657899856567383,136.2457733154297,-62.86021423339844,39.83667755126953,-2.561913013458252,8.094144821166992,6.608222961425781,-24.302988052368164,33.678524017333984,-44.42291641235352,-2.9289755821228027,-17.915863037109375,15.973005294799805,-82.94156646728516,-59.41779708862305,-151.6256103515625,-22.736255645751957,-0.8089859485626221,6.980871200561523,173.754638671875,-72.2588119506836,103.33439636230467,-2.656470775604248,-0.5305405855178833,11.832712173461914
2307.7160732746124,-177.63526916503906,-62.196571350097656,-147.51124572753906,3.903975009918213,-0.610633373260498,2.6813220977783203,138.6956787109375,-65.32792663574219,38.50971984863281,-2.20776891708374,9.569391250610352,-6.391002655029297,-8.005436897277832,26.06346893310547,-29.98397827148437,-10.795021057128906,-24.0825309753418,7.96076774597168,-98.93305206298828,-65.03765869140625,-134.71572875976562,-12.29621696472168,-1.1645605564117432,8.107233047485352,-179.68170166015625,-73.01671600341797,98.37195587158205,-1.8842802047729488,1.884258508682251,11.476993560791016
2307.746073484421,-176.942138671875,-65.7136459350586,-146.58831787109375,0.7067018747329712,1.649681806564331,4.051617622375488,138.49195861816406,-70.95113372802734,38.56869888305664,0.5211595296859741,11.170965194702148,-12.263391494750977,2.157944917678833,18.95781517028809,-25.31158447265625,-9.42269515991211,-18.20185852050781,-2.640285015106201,-105.91139221191406,-67.72376251220703,-123.65374755859376,-9.212762832641602,-2.307680606842041,3.817760467529297,-166.8995361328125,-74.65392303466797,89.29582214355469,-0.2395258545875549,1.529510259628296,7.881072998046875
2307.7756266593933,-177.87054443359375,-71.95951080322266,-142.23565673828125,-2.930300235748291,2.832606315612793,9.82437515258789,134.5869598388672,-79.21652221679688,41.63448715209961,2.8541154861450195,12.50370979309082,-13.105754852294922,9.701656341552734,16.50859832763672,-26.34756851196289,-3.0562686920166016,-5.59310245513916,-9.214794158935549,-97.57858276367188,-67.92487335205078,-123.56704711914062,-9.669828414916992,-2.72107458114624,-0.4257240295410156,-149.65084838867188,-75.04426574707031,77.71299743652344,-0.1511872708797454,0.5528746843338013,2.5579614639282227
2307.80562710762,-179.1260223388672,-79.17829132080078,-146.04544067382812,-3.635167598724365,0.8175805807113647,4.586047172546387,38.890567779541016,-87.60044860839844,139.44683837890625,1.438086986541748,11.091632843017578,-11.14507293701172,13.355992317199709,18.43497467041016,-31.02943420410156,0.8006278276443481,-3.3386058807373047,-7.2911272048950195,-78.57640075683594,-66.72227478027344,-127.78557586669922,-7.341893196105957,-2.212224006652832,-2.9943642616271973,-135.78941345214844,-73.70325469970703,69.89299774169922,-0.0341510996222496,0.1896184980869293,-7.389010429382324
2307.8366270065308,177.37026977539062,-80.46087646484375,-144.4430694580078,7.486412048339844,-4.343915939331055,-6.033658027648926,-16.856664657592773,-75.95844268798828,-163.45188903808594,-3.2249650955200195,1.4967658519744873,-8.136573791503906,14.842825889587402,24.03156280517578,-38.32292938232422,-0.2850876450538635,2.1979990005493164,-11.925844192504885,-53.83859634399414,-64.88020324707031,-132.22647094726562,-8.387655258178711,-4.2732648849487305,-9.29900360107422,-132.63951110839844,-72.53903198242188,69.60908508300781,5.782809257507324,2.107603073120117,-11.533296585083008
2307.865631818772,178.58074951171875,-79.73733520507812,-138.7181854248047,-1.4279744625091553,-9.650463104248049,-8.607353210449219,-20.48866271972656,-63.59479904174805,-163.33782958984375,-9.48284149169922,-7.134695053100586,-5.175092697143555,9.245073318481444,30.66615295410156,-46.9520149230957,-1.7442281246185305,-2.8716530799865723,-13.610918045043944,-39.038368225097656,-63.02935028076172,-133.85440063476562,-4.405935287475586,-8.518758773803711,-15.026906967163086,-133.35523986816406,-73.78726959228516,68.8548812866211,6.00731086730957,0.596831202507019,-11.038150787353516
2307.896162986756,-177.09536743164062,-81.82648468017578,-135.59251403808594,2.3505306243896484,1.138939380645752,-11.60585594177246,-26.316801071166992,-53.728660583496094,-166.18434143066406,-17.84969711303711,-10.494638442993164,-8.018388748168945,-1.090350866317749,38.250030517578125,-60.5825080871582,6.677788734436035,-7.374330520629883,-13.573081970214844,-37.37163162231445,-62.16782760620117,-132.80331420898438,-0.8803466558456421,-6.183392524719238,-12.687761306762695,-132.13668823242188,-75.77568054199219,67.21566772460938,-1.1696512699127195,-0.1115030646324157,-8.13603401184082
2307.956160068512,176.74850463867188,-81.49857330322266,-127.4050750732422,4.384822845458984,13.69964599609375,0.6304340362548828,-30.907941818237305,-47.64046478271485,-169.341552734375,-18.263835906982425,0.61887526512146,-7.097621917724609,-15.74282169342041,41.70336151123047,-81.79434204101562,-4.138728141784668,-7.789306640625,-23.64603805541992,-39.63176345825195,-61.80244827270508,-131.32496643066406,0.8038663864135742,-4.636916160583496,-10.27035903930664,-126.82780456542967,-77.42535400390625,62.66771697998047,-5.220663070678711,-0.7482619285583496,-5.899768829345703
2307.9857306480408,173.81634521484375,-80.21263122558594,-124.5973892211914,-2.2443714141845703,6.101232528686523,-4.148688316345215,-24.47133445739746,-43.32048034667969,-171.9210205078125,-14.923179626464844,-1.0671710968017578,-16.36258316040039,-29.567014694213867,36.83429718017578,-100.92189025878906,-6.289822578430176,-12.034051895141602,-18.928863525390625,-40.48100280761719,-61.61957550048828,-131.3865203857422,-0.0880754590034484,-5.708498954772949,-8.860994338989258,-115.80913543701172,-78.27452087402344,53.98689651489258,-2.116281509399414,-0.1052784025669097,-3.591826915740967
2308.015728473664,171.4580841064453,-79.10482025146484,-123.08892059326172,2.017866611480713,-7.006570816040039,0.5464496612548828,-22.945669174194336,-44.207130432128906,-170.84156799316406,-15.74334716796875,-9.398576736450195,-23.194374084472656,-33.49778747558594,34.69735336303711,-105.1658706665039,3.2683348655700684,5.479397773742676,-8.128097534179688,-39.73473358154297,-61.84614181518555,-132.65586853027344,-1.263887882232666,-5.385529518127441,-6.704715728759766,-112.41859436035156,-79.146240234375,51.44223785400391,1.725313663482666,1.1081278324127195,-2.8111443519592285
2308.045726776123,168.6477508544922,-78.14591979980469,-117.46493530273438,-2.112560272216797,-1.771188259124756,1.7474822998046875,-32.9676628112793,-50.86850357055664,-166.1705322265625,-13.09377098083496,-8.109804153442383,-15.72113037109375,-28.533618927001957,36.921722412109375,-99.35135650634766,-9.811843872070312,1.058887958526611,-2.900160789489746,-36.25774002075195,-62.45523071289063,-134.48240661621094,-1.0111136436462402,-5.567188262939453,-5.718488693237305,-118.69326782226562,-80.07516479492188,57.479827880859375,-0.1597310602664947,-3.1201887130737305,0.049346923828125
2308.076272010803,164.41384887695312,-77.48160552978516,-110.4583511352539,0.1341104507446289,-0.5234789848327637,0.938654899597168,-48.9976806640625,-58.06430435180664,-157.04315185546875,-16.064674377441406,2.174871921539306,2.248459815979004,-16.1359806060791,37.77443313598633,-93.6184310913086,2.107608795166016,5.8971710205078125,-9.302087783813477,-32.25740432739258,-62.56768798828125,-134.84844970703125,-0.397138774394989,-8.701208114624023,-4.565625190734863,-124.50828552246094,-80.97447967529297,62.18153762817383,-2.518925666809082,-2.248913288116455,2.884805679321289
2308.1063985824585,156.71737670898438,-76.80818176269531,-102.03620910644533,-0.9938557147979736,-0.6358809471130371,2.127161026000977,-47.271785736083984,-61.45675277709961,-153.46286010742188,-1.7104671001434326,-16.972854614257812,-5.022946357727051,-8.741809844970703,36.383487701416016,-83.61282348632812,-1.029209852218628,-1.6552090644836426,-10.651618957519531,-32.08163833618164,-62.765995025634766,-132.62425231933594,1.5907907485961914,-10.497291564941406,-4.908557891845703,-128.45480346679688,-81.58170318603516,64.61444091796875,-0.6461734771728516,-1.186138153076172,0.4287662506103515
2308.136397600174,146.95692443847656,-76.79307556152344,-92.44266510009766,-1.1880924701690674,0.5671162605285645,4.400136947631836,-51.494911193847656,-65.37882232666016,-150.32652282714844,-6.46217155456543,4.521740913391113,15.258661270141602,-5.251864910125732,32.30112838745117,-70.99126434326172,-2.583457469940185,-4.779869079589844,-12.902517318725586,-38.09074783325195,-64.3663330078125,-128.9519500732422,0.8054437637329102,-9.493436813354492,-5.609128952026367,-128.01385498046875,-82.34222412109375,62.86787414550781,0.0044946214184165,-0.3668225407600403,0.2020902633666992
2308.166412830353,134.7543182373047,-76.86083984375,-81.60954284667969,0.0707865506410598,-1.8035383224487305,0.8010654449462891,-64.64968872070312,-67.98319244384766,-141.20272827148438,-6.887640953063965,-1.7724847793579102,9.569084167480469,-3.641019821166992,25.750356674194336,-58.036869049072266,-5.684881210327148,-6.575669288635254,-9.905710220336914,-51.00212097167969,-67.34976196289062,-122.7779769897461,-2.050619602203369,-8.39146614074707,-2.7232213020324707,-130.77618408203125,-83.46409606933594,63.80278396606445,2.502732276916504,-0.6938489675521851,3.644455909729004
2308.195941209793,121.7554168701172,-76.41645812988281,-72.29515838623047,-0.731634259223938,-2.5732431411743164,-1.7222299575805664,-72.07275390625,-70.34130859375,-136.03294372558594,-6.037884712219238,2.829802989959717,-2.2040233612060547,-1.537217140197754,18.118186950683597,-47.221378326416016,-7.150390625,-1.900338888168335,-0.7461538314819336,-69.70887756347656,-70.0130844116211,-112.83790588378906,-2.4642491340637207,-8.957029342651367,3.4534692764282227,-136.9591522216797,-84.0643310546875,66.4757080078125,6.6587018966674805,-3.6892590522766113,2.592863082885742
2308.256040334701,114.5242156982422,-74.18709564208984,-72.56258392333984,5.304733276367188,-2.9766101837158203,5.155580520629883,-71.06157684326172,-73.05362701416016,-136.9577178955078,-7.044044494628906,-4.704204559326172,-0.5645980834960938,-0.6592814326286316,8.90885066986084,-38.03153991699219,-13.104822158813477,7.391881942749023,2.319984436035156,-90.29706573486328,-71.18377685546875,-101.74452209472656,-0.8335546255111694,-8.292474746704102,5.666007041931152,-140.5539093017578,-82.80538177490234,66.10692596435547,5.1090087890625,0.7963675260543823,-0.2337512969970703
2308.2855880260468,114.79656219482422,-72.42237854003906,-84.85931396484375,18.02381134033203,-0.1325263679027557,6.095850944519043,-70.38911437988281,-74.99961853027344,-138.32847595214844,-6.817019462585449,-1.2646141052246094,-0.4590110778808594,-3.173163890838623,-5.149503231048584,-27.02138328552246,-4.859045028686523,4.898131370544434,-1.4884099960327148,-108.32262420654295,-72.12516784667969,-91.56045532226562,0.1131945550441742,-3.6279430389404297,3.330327033996582,-144.31057739257812,-80.88070678710938,66.46149444580078,7.906231880187988,0.0857378542423248,-2.2467761039733887
2308.316584825516,128.7883758544922,-67.02607727050781,-106.06389617919922,21.89278793334961,-0.1024596691131591,7.983516693115234,-66.64590454101562,-76.1279525756836,-142.76675415039062,-6.507453918457031,-1.311622142791748,-0.4008045196533203,-12.708189964294434,-21.572694778442383,-11.42032527923584,10.875089645385742,8.413408279418945,1.114274024963379,-122.2659912109375,-72.8853530883789,-85.50273895263672,-0.4527708292007446,0.5175105333328247,2.8024559020996094,-149.01795959472656,-79.41537475585938,69.96595001220703,-0.5554788112640381,-0.2824198007583618,5.606663703918457
2308.345584392548,144.01898193359375,-57.5799560546875,-124.32870483398438,12.420778274536133,-0.3031232953071594,6.447444915771484,-59.3919792175293,-76.68831634521484,-149.87745666503906,-5.763765335083008,-2.4645919799804688,0.6468257904052734,-36.05644607543945,-33.265567779541016,8.298727035522461,7.498943328857422,4.8092241287231445,0.1061620712280273,-133.9777069091797,-72.03145599365234,-86.60240173339844,-1.3658058643341064,4.629496574401856,7.150093078613281,-151.419921875,-79.1692886352539,71.83464050292969,1.5362277030944824,3.7580742835998535,4.88623046875
2308.3761179447174,151.6064453125,-47.02592086791992,-137.7987060546875,1.6094520092010498,-1.9592645168304443,0.077117919921875,-51.98306274414063,-76.59051513671875,-156.70028686523438,-5.0264892578125,-3.013054847717285,2.8145666122436523,-53.2466049194336,-36.38951873779297,24.982540130615234,-3.907880783081055,-0.311049222946167,13.658849716186523,-134.00628662109375,-72.41082763671875,-88.15977478027344,0.2006299793720245,2.4024829864501958,6.07689380645752,-152.63893127441406,-79.42880249023438,73.2605209350586,7.348630905151367,2.14835262298584,0.5980978012084961
2308.406117916107,155.92884826660156,-36.61295700073242,-146.89158630371094,-4.7716569900512695,1.4581546783447266,-6.382266044616699,-34.5655403137207,-74.57588958740234,-168.6682586669922,-4.956947326660156,-0.3469366431236267,-4.133913040161133,-54.88721466064453,-33.713523864746094,31.38827133178711,-5.515252113342285,8.829492568969727,-4.23360538482666,-128.10960388183594,-73.96405029296875,-86.31997680664062,-5.171072006225586,-1.055315017700195,1.131805419921875,-157.45639038085938,-79.66397094726562,78.14727020263672,4.007338523864746,0.8421791791915894,0.0732898712158203
2308.436256885529,159.87249755859375,-27.917259216308597,-152.63656616210938,-7.412884712219238,3.4422335624694824,-13.352426528930664,-36.17464065551758,-75.51547241210938,-163.40673828125,-1.992945671081543,-2.106995105743408,-1.2957611083984375,-60.34941482543945,-31.20441627502441,31.323251724243164,-5.470062255859375,3.518803119659424,-9.415620803833008,-126.30320739746094,-75.89936828613281,-80.89722442626953,-4.9831390380859375,-3.532238483428955,-1.9384102821350095,-161.74136352539062,-79.65229034423828,82.5815658569336,-0.282852292060852,0.1668745279312133,-2.5769057273864746
2308.466267108917,163.83273315429688,-23.44209098815918,-156.09573364257812,-5.594151496887207,4.414172172546387,-16.28388214111328,-48.29318237304688,-76.34738159179688,-151.03846740722656,-0.3524149060249328,5.362029075622559,-8.500907897949219,-68.24420166015625,-31.05220603942871,29.43918800354004,-2.7732324600219727,-1.48974347114563,-4.991464614868164,-129.4433135986328,-78.53076934814453,-72.95191192626953,-4.325699806213379,-4.754748344421387,-5.37535572052002,-163.0378875732422,-79.09984588623047,85.97277069091797,-3.075289726257324,-1.9301490783691408,-8.264892578125
2308.4958040714264,166.88267517089844,-22.86940193176269,-158.52125549316406,-7.4229841232299805,3.722542762756348,-12.459566116333008,-69.78691864013672,-75.40794372558594,-133.09620666503906,-12.247413635253906,11.816761016845703,-14.949995040893556,-74.92770385742188,-34.26908493041992,27.69088554382324,1.4278757572174072,-0.3527466058731079,-8.718460083007812,-142.2932891845703,-82.04594421386719,-60.0387077331543,-0.2048954367637634,-3.8641724586486816,-6.291337966918945,-163.25335693359375,-78.19954681396484,89.54240417480469,-0.1276028454303741,1.0169572830200195,-10.255510330200195
2308.555803060532,166.26182556152344,-26.83052062988281,-159.55856323242188,-12.879959106445312,0.7369433641433716,-16.24359893798828,-97.63274383544922,-73.36544799804688,-114.1505355834961,-7.316965103149414,-4.000178337097168,-8.292739868164062,-86.39678192138672,-41.413211822509766,28.330900192260746,4.61221981048584,-2.504167079925537,-6.704041481018066,174.67869567871094,-86.05300903320312,-19.081626892089844,2.264530658721924,-2.195509910583496,-5.924065589904785,-161.02340698242188,-77.86332702636719,89.05768585205078,4.798789978027344,4.20212459564209,-7.176379203796387
2308.586344718933,170.97714233398438,-29.259096145629883,-158.2303466796875,4.328969955444336,10.935232162475586,39.57760620117188,-112.60761260986328,-71.24112701416016,-99.2887725830078,-5.236128807067871,-18.91852569580078,11.284292221069336,-103.26493072509766,-51.7254638671875,35.24772644042969,2.9926657676696777,1.5792076587677002,13.187959671020508,92.40898895263672,-82.67332458496094,64.0726089477539,-0.5893601179122925,-4.996820449829102,-2.9020795822143555,-157.30966186523438,-78.87489318847656,84.22296905517578,7.413139343261719,2.6445212364196777,-5.037801742553711
2308.6155292987823,177.1501007080078,-26.445371627807617,-153.56907653808594,-17.807647705078125,-3.126407623291016,3.3859691619873047,-123.79711151123048,-68.42288970947266,-87.42921447753906,-5.585258483886719,3.7358570098876953,-1.623764991760254,-112.1388931274414,-63.67682266235352,46.180572509765625,7.12033748626709,23.22408676147461,32.562347412109375,78.55108642578125,-73.14697265625,79.08824920654297,-3.730682849884033,-9.107385635375977,0.9511537551879884,-155.69418334960938,-78.46565246582031,80.18670654296875,-2.8666210174560547,-5.1489458084106445,-1.0158557891845703
2308.646530866623,173.389892578125,-20.79084014892578,-149.74435424804688,-16.00961685180664,-11.101341247558594,15.243844985961914,-130.94085693359375,-67.87972259521484,-79.9521484375,-6.674949645996094,-0.2157257497310638,0.2654895782470703,-104.6158447265625,-65.69586944580078,46.64109420776367,14.961381912231444,7.065505027770996,5.059037208557129,76.8128890991211,-62.04230499267578,82.76972198486328,-0.3905664682388305,-13.435871124267578,1.0721759796142578,-156.5891571044922,-76.99220275878906,81.04104614257812,-4.8556318283081055,-4.765042304992676,14.932613372802734
2308.6762874126434,168.8426971435547,-12.29284381866455,-149.5452117919922,-20.20088195800781,-8.365262985229492,13.458683013916016,-133.8214111328125,-68.53669738769531,-77.22138977050781,-7.94548225402832,-1.165089130401611,-0.7665824890136719,-100.4125747680664,-57.17041015625,43.86222076416016,15.864913940429688,4.418674468994141,17.507492065429688,79.64508819580078,-50.47651290893555,83.81388854980469,2.0290932655334477,-19.171554565429688,5.914051055908203,-153.02728271484375,-77.90079498291016,78.55644226074219,8.385950088500977,5.151285171508789,8.892387390136719
2308.706279039383,164.08763122558594,-3.8075761795043945,-151.3449249267578,-17.891399383544922,-5.6544389724731445,6.066492080688477,-131.1631317138672,-69.85408782958984,-80.53556823730469,-7.533525466918945,-1.0279700756072998,-0.8356342315673828,-92.81073760986328,-50.52113723754883,40.01626205444336,6.595425605773926,5.06615161895752,15.37872314453125,80.41029357910156,-37.18114471435547,82.93273162841797,6.302714347839356,-23.367889404296875,22.83966064453125,-153.11021423339844,-78.17232513427734,77.93292999267578,5.673340797424316,3.115324020385742,6.423530578613281
2308.746287584305,162.99185180664062,1.983097791671753,-152.930908203125,-11.47053337097168,2.0999069213867188,-0.4243478775024414,-123.73301696777344,-71.68800354003906,-89.18730926513672,-6.946150779724121,-0.6966037750244141,1.499690055847168,-88.43415832519531,-48.3139877319336,35.055389404296875,3.996656894683838,4.283966064453125,9.538858413696287,73.82445526123047,-21.779027938842773,80.3731460571289,8.776273727416992,-12.200197219848633,26.608089447021484,-155.761474609375,-78.29045104980469,79.9018783569336,4.618803977966309,3.125911235809326,10.838783264160156
2308.766304731369,162.64218139648438,3.0235769748687744,-153.9004669189453,-2.7638235092163086,6.409625053405762,-6.411429405212402,-110.50948333740234,-74.04983520507812,-103.8488998413086,-7.602901458740234,-2.506570816040039,5.55079460144043,-89.9084243774414,-48.37839889526367,29.716920852661133,2.389375686645508,-0.7038329839706421,3.4547014236450195,63.27718734741211,-6.552255630493164,76.22993469238281,3.7101354598999023,-0.6455948352813721,16.206741333007812,-161.36676025390625,-78.14466094970703,84.5036849975586,6.551852226257324,3.748960018157959,8.417898178100586
2308.7958331108093,161.73590087890625,-0.937679648399353,-154.73788452148438,-0.1701491177082061,7.661262512207031,-12.028690338134766,-78.88035583496094,-75.41390991210938,-136.3135223388672,-5.043842315673828,-11.207170486450195,9.46627426147461,-92.43343353271484,-50.83543014526367,25.046804428100582,-5.88935661315918,1.750453233718872,5.189136505126953,54.1641960144043,5.070430755615234,72.39079284667969,-2.4825778007507324,0.9824426174163818,9.742450714111328,-172.1689453125,-78.4448471069336,93.1510238647461,4.087813377380371,2.204565525054932,6.981386184692383
2308.856022119522,159.9773406982422,-9.260782241821287,-155.11441040039062,-0.924210786819458,5.098937034606934,-16.131732940673828,-44.63821792602539,-72.96131896972656,-163.6034698486328,-5.11607837677002,-3.082134246826172,-3.553696632385254,-93.57549285888672,-55.3478889465332,20.45465087890625,-5.577915191650391,2.2923507690429688,-0.6123743057250977,48.64116668701172,13.464741706848145,70.13704681396484,-8.576129913330078,2.499284267425537,1.0504722595214844,174.8905487060547,-78.7110366821289,104.58065795898438,-1.100949764251709,0.626563549041748,3.089366912841797
2308.885573863983,157.87449645996094,-20.63282585144043,-154.6689910888672,-4.010601043701172,2.4593148231506348,-15.792600631713867,-15.328015327453612,-69.29042053222656,-179.95040893554688,-12.093379974365234,-1.068988561630249,-12.173755645751951,-96.40155792236328,-60.50283432006836,15.719407081604004,-5.670814514160156,0.3171062469482422,-5.842416763305664,51.05860137939453,20.442068099975582,68.8847885131836,-6.666646957397461,0.833311915397644,-8.903589248657227,166.27957153320312,-78.36785888671875,113.04993438720705,-0.5745933055877686,-1.3529167175292969,-4.679999351501465
2308.915573358536,155.7178955078125,-34.197505950927734,-153.40631103515625,-5.974018096923828,-0.7151778936386108,-12.717414855957031,-4.564453125,-67.5802993774414,173.0985565185547,-1.6869256496429443,-6.381992340087891,-10.166738510131836,-99.76010131835938,-65.17716979980469,10.640905380249023,-5.734673500061035,1.0947332382202148,-8.163167953491211,59.52327728271485,26.536481857299805,68.77999877929688,-5.1068115234375,0.0629463791847229,-11.979543685913086,162.2749786376953,-77.5891342163086,117.36316680908205,1.3264045715332031,0.8326202630996704,-10.305227279663086
2308.945572376251,153.9856719970703,-49.43131637573242,-151.0957794189453,-5.763200759887695,-2.3390841484069824,-6.09751033782959,-4.031626224517822,-65.6798324584961,168.94847106933594,-1.1422851085662842,1.5692400932312012,-9.299642562866213,-99.87591552734376,-68.84180450439453,4.169789791107178,-4.793192863464356,2.1804823875427246,-10.111223220825195,61.48551559448242,31.1450138092041,69.37556457519531,-7.506878852844238,3.446866989135742,-6.488691329956055,158.32379150390625,-77.21744537353516,120.8692855834961,0.738094687461853,2.3534226417541504,-9.94192123413086
2308.976116657257,149.9006805419922,-66.62457275390625,-145.6025848388672,-2.550887107849121,-0.0039110295474529,6.367534637451172,-2.695178508758545,-63.64943313598633,167.78469848632812,-13.650035858154297,10.858997344970703,-8.771387100219727,-96.522705078125,-71.19475555419922,-3.851125478744507,-4.506169319152832,4.153419494628906,-10.432706832885742,52.02340698242188,33.432830810546875,71.6520767211914,-5.109071731567383,-0.1133837550878524,-11.939769744873049,153.1204833984375,-77.54356384277344,124.41547393798828,0.3272064328193664,-0.5491992235183716,-7.758113861083984
2309.0061180591583,98.51138305664062,-83.55262756347656,-96.00723266601562,8.614269256591797,3.6528711318969727,17.841171264648438,-2.6091887950897217,-63.32966995239258,168.2354736328125,1.1001503467559814,0.8753353357315063,-1.2779970169067385,-90.03937530517578,-72.09721374511719,-13.343759536743164,-2.632756233215332,6.207144737243652,-9.804258346557615,40.53873062133789,33.007102966308594,76.44770812988281,-0.976636290550232,-1.671539306640625,-13.274206161499023,147.9364013671875,-78.3319320678711,128.4245147705078,0.5020806789398193,0.1753776371479034,-10.196622848510742
2309.036118030548,6.216771602630615,-74.54706573486328,-3.4076004028320312,17.32980728149414,-18.09997940063477,7.9553070068359375,-7.215805530548096,-65.16578674316406,170.14215087890625,-1.5926527976989746,-1.1128244400024414,-1.892242431640625,-80.79258728027344,-72.03131103515625,-23.832439422607425,-1.015408277511597,5.203291893005371,-9.093461990356444,34.28287506103516,31.1479606628418,84.1884765625,1.3684308528900146,2.395717144012451,-10.874588012695312,141.34779357910156,-78.8396224975586,133.44761657714844,2.4061479568481445,0.9754689931869508,-7.375042915344238
2309.0759201049805,14.63247013092041,-70.18537139892578,1.220146417617798,18.952110290527344,31.743282318115234,-21.088565826416016,-18.145301818847656,-68.41415405273438,176.44725036621094,-3.122373580932617,-4.136570930480957,-0.2473249435424804,-72.81613159179688,-71.61773681640625,-32.126468658447266,-2.053358554840088,2.4375643730163574,-7.963682174682617,33.4892692565918,29.127317428588867,95.10253143310548,-1.73058819770813,7.596639633178711,-12.33159065246582,135.7122802734375,-79.76380157470703,138.38209533691406,-0.4259846210479736,-2.563479423522949,-2.0023269653320312
2309.0960097312927,34.891258239746094,-72.76715087890625,-13.594552040100098,12.30571174621582,3.869118690490722,-4.441130638122559,-29.251562118530277,-70.28356170654297,-174.6180877685547,-7.9045867919921875,-4.511829376220703,2.823537826538086,-68.01319122314453,-71.69563293457031,-35.60819625854492,-3.1392922401428223,3.349205493927002,-5.237661361694336,34.25241470336914,27.426794052124023,107.122802734375,-7.015894889831543,10.99436378479004,-13.504928588867188,146.20851135253906,-80.54924011230469,129.67291259765625,3.388382911682129,-4.734796524047852,0.5922231674194336
2309.1561191082,67.607177734375,-73.99259185791016,-41.36418533325195,11.496191024780272,1.897069215774536,1.4107465744018557,-36.410789489746094,-70.16685485839844,-168.38356018066406,-8.096004486083984,-0.5690683126449585,1.573812484741211,-66.14593505859375,-71.86429595947266,-34.47892761230469,-1.827871561050415,5.411847114562988,-1.7538776397705078,34.51119613647461,26.953269958496094,114.81138610839844,-4.092225074768066,-8.475072860717773,-8.963285446166992,150.54287719726562,-80.54537200927734,125.81845092773438,1.1196010112762451,-0.4199432730674743,3.325721740722656
2309.1860949993134,99.94960021972656,-71.08221435546875,-70.61052703857422,3.053708076477051,-5.985147476196289,7.74915885925293,-39.2544174194336,-68.05228424072266,-165.90696716308594,-6.796216011047363,0.5910794734954834,4.183789253234863,-70.88753509521484,-72.3003921508789,-26.80983161926269,-1.600024938583374,4.061243057250977,1.8568172454833984,25.903291702270508,25.942747116088867,112.57623291015624,-1.5519917011260986,-3.633487701416016,-7.244272232055664,154.36927795410156,-81.47071838378906,123.00597381591795,3.562728881835937,2.028661727905273,3.11016845703125
2309.2160942554474,116.88702392578124,-68.71025085449219,-85.48843383789062,-6.474615097045898,-15.96546745300293,-1.7676687240600586,-36.93578720092773,-65.24571990966797,-166.78115844726562,-6.469109535217285,-2.068897247314453,7.100826263427734,-84.15901947021484,-73.44001770019531,-9.404322624206545,-0.86080002784729,3.7146458625793457,5.492863655090332,17.12605857849121,24.300800323486328,106.41785430908205,-4.492259979248047,-2.6739063262939453,-5.072123527526856,165.38941955566406,-82.19828033447266,114.6635513305664,6.763826370239258,-0.3092974424362182,6.052310943603516
2309.2460951805115,128.06460571289062,-69.0573959350586,-96.0270004272461,-5.656039237976074,4.82291316986084,8.514835357666016,-26.48761749267578,-61.138916015625,-170.574462890625,-1.89039158821106,-7.696000099182129,5.293974876403809,-101.60321044921876,-74.2770767211914,14.745355606079102,-0.489168643951416,5.962092399597168,9.144735336303713,8.749107360839844,21.96316909790039,97.24439239501952,-5.528063774108887,2.813683032989502,-4.487056732177734,173.5847930908203,-82.66880798339844,109.46903228759766,2.406705379486084,-2.487179756164551,2.550229072570801
2309.275738716125,136.3249969482422,-69.89644622802734,-105.39542388916016,-3.345409870147705,1.0061006546020508,3.250083923339844,-15.347214698791504,-59.5281867980957,-170.39988708496094,-18.911815643310547,-3.9203286170959473,-5.222684860229492,-114.32903289794922,-74.37647247314453,36.59928131103516,3.254733085632324,4.282937049865723,9.008049011230469,2.395890951156616,18.341915130615234,84.68057250976562,-5.31871509552002,9.106767654418944,-6.867176055908203,-174.24566650390625,-81.71952056884766,101.19281005859376,-4.019644737243652,-2.8597660064697266,-1.1150827407836914
2309.305737733841,147.58299255371094,-71.61797332763672,-114.78929138183594,-1.722532033920288,0.299020767211914,0.6291875839233398,-9.46725368499756,-63.79558563232422,-166.36671447753906,-36.09171295166016,-9.36359405517578,-12.329706192016602,-125.95372772216795,-71.99530792236328,50.70303726196289,2.1242079734802246,0.8995970487594604,6.189411163330078,2.1142868995666504,13.83537483215332,70.43846130371094,1.3817245960235596,5.945512771606445,-4.947823524475098,-168.7747344970703,-78.99034118652344,101.29759979248048,-4.335555076599121,-0.9050480127334596,-2.6421499252319336
2309.3359003067017,157.6948699951172,-71.86776733398438,-122.75405883789062,-5.444477081298828,-6.839288711547852,6.158259391784668,-11.679908752441406,-73.30693054199219,-157.25140380859375,-20.59872055053711,-6.612663269042969,-9.383249282836914,-129.7425537109375,-68.66604614257812,54.08217239379883,-1.3953962326049805,-2.605172634124756,1.902975082397461,9.979817390441896,10.131549835205078,56.13985824584961,2.3821840286254883,-3.1344003677368164,-3.887885093688965,-168.38998413085938,-75.59265899658203,106.07212829589844,-2.1929478645324707,3.487186908721924,-2.721353054046631
2309.3659155368805,164.72317504882812,-70.85504150390625,-128.68109130859375,4.493356704711914,1.5483522415161133,-0.1645498275756836,-36.350093841552734,-83.85279846191406,-125.9490203857422,-8.015901565551758,-3.28350830078125,-8.594038009643555,-128.75489807128906,-65.75960540771484,54.314483642578125,-1.7647531032562256,-3.9719395637512207,-1.3267335891723633,21.097488403320312,8.301225662231445,42.75323486328125,5.020875930786133,-4.091461181640625,-8.413318634033203,-172.0188446044922,-73.13311767578125,109.57955932617188,3.5385961532592773,4.422598838806152,5.280440330505371
2309.396452903748,169.01480102539062,-70.69841003417969,-131.14271545410156,2.15969467163086,0.0499712377786636,1.542008399963379,-142.7982177734375,-81.79204559326172,-14.603263854980469,0.9757524728775024,-2.6861557960510254,-10.872688293457031,-130.5867462158203,-64.51437377929688,54.55923843383789,-4.815284729003906,-2.134653091430664,-0.5247869491577148,35.778831481933594,8.48330307006836,32.89455032348633,2.7265138626098637,-10.30365753173828,-7.680011749267578,-175.57875061035156,-72.35924530029297,112.25029754638672,-2.241790771484375,3.3112735748291016,1.862873077392578
2309.455451965332,172.0396270751953,-71.84552764892578,-133.0820770263672,-1.837073564529419,2.64833402633667,0.924870491027832,-160.72366333007812,-72.10499572753906,5.549079895019531,3.597093105316162,1.5688276290893557,-12.033191680908203,-130.9408721923828,-65.89215850830078,51.68428421020508,-1.698915719985962,5.697700500488281,-1.4864120483398438,54.07569885253906,8.064566612243652,27.3460750579834,-3.127776622772217,-14.75369644165039,-6.594047546386719,-179.6492156982422,-70.78018951416016,116.45768737792967,-4.330339431762695,1.104300022125244,0.3183546066284179
2309.4860095977783,175.62327575683594,-73.19873809814453,-137.83547973632812,-2.9919533729553223,2.02294397354126,0.052861213684082,-165.42758178710938,-64.65381622314453,11.904464721679688,2.486898422241211,2.71336030960083,-11.176349639892578,-128.11614990234375,-68.98788452148438,42.50059127807617,-7.093830108642578,3.0478053092956543,1.4067344665527344,74.94022369384766,2.856259346008301,27.23581314086914,-8.088972091674805,-7.662322044372559,-8.865156173706055,175.73963928222656,-69.91761779785156,120.23854064941406,-3.7691245079040527,0.8848319053649902,-0.2281970977783203
2309.5159978866577,179.83258056640625,-73.39102172851562,-143.5738525390625,-1.0534286499023438,-0.8635854721069336,-0.8105497360229492,-168.1280059814453,-60.207305908203125,15.058838844299316,1.96823525428772,1.4830965995788574,-9.01447868347168,-118.96575164794922,-71.9113540649414,28.07155036926269,-4.824117660522461,-1.4444847106933594,-1.852735996246338,90.92310333251952,-8.266509056091309,25.94368934631348,-5.596693992614746,1.3354759216308594,3.007689476013184,170.4962158203125,-69.9236068725586,124.14511108398438,-1.6229958534240725,1.5694525241851809,-2.667323112487793
2309.5459983348846,-178.72622680664062,-72.11061096191406,-146.2283935546875,-1.1761047840118408,-2.748562812805176,-1.4459218978881836,-170.72425842285156,-59.45102691650391,16.8614559173584,3.6921019554138175,5.119546890258789,-6.5698089599609375,-104.86800384521484,-73.42504119873047,9.038025856018066,-3.135025978088379,-0.5180567502975464,-5.602972984313965,104.25650024414062,-22.43949317932129,18.075096130371094,2.8071327209472656,2.7918386459350586,-0.8315362930297852,164.07081604003906,-69.72869110107422,128.6768341064453,-0.4467225670814514,0.16470468044281,-4.29085636138916
2309.5755486488342,178.92247009277344,-69.38682556152344,-143.0333709716797,-1.3815951347351074,-1.6742591857910156,-1.4930734634399414,-172.66775512695312,-63.20750045776367,17.94779396057129,3.46448278427124,1.787933349609375,0.4942989349365234,-87.83132934570312,-73.51458740234375,-13.443092346191406,-2.5086069107055664,0.0779772996902465,-7.746631622314453,124.3021469116211,-36.5850715637207,4.770184516906738,9.234375,-7.28291130065918,8.730070114135742,156.8909149169922,-69.09913635253906,133.33375549316406,-1.2673890590667725,0.3843976855278015,-3.614367961883545
2309.606549501419,174.74981689453125,-65.1221694946289,-135.94517517089844,-1.95479679107666,-3.3907675743103027,-0.8552007675170898,-177.34156799316406,-69.80078125,21.505956649780277,1.1584701538085938,0.4852111935615539,8.417402267456055,-71.6754379272461,-71.77823638916016,-36.04179382324219,-4.663083076477051,-1.913532018661499,-9.000913619995117,141.78611755371094,-50.84593963623047,-13.355498313903809,4.394826889038086,-14.98466682434082,19.771709442138672,150.83294677734375,-69.27473449707031,137.3773651123047,-2.467092037200928,-0.5749318599700928,-2.116139888763428
2309.636549949646,172.02023315429688,-59.850528717041016,-128.9654998779297,0.7501825094223022,-1.0506672859191897,-1.605576515197754,-177.44956970214844,-70.0561294555664,21.88589096069336,-1.2169489860534668,-0.5076924562454224,21.565113067626957,-59.22209167480469,-68.07378387451172,-55.79645538330078,-2.261934757232666,6.864397048950195,-5.368432998657227,138.08364868164062,-61.50621795654297,-37.06583786010742,-16.40131378173828,-14.03741455078125,28.991680145263672,146.7728729248047,-70.48860931396484,141.52603149414062,-1.9641540050506592,-2.623892307281494,-3.7020883560180655
2309.665562391281,171.57212829589844,-54.95347595214844,-123.33965301513672,4.524413108825684,1.467267990112305,-1.891249179840088,-171.67510986328125,-70.22199249267578,15.361790657043455,3.1761279106140137,10.428091049194336,10.394948959350586,-49.47414016723633,-61.71859359741211,-72.70010375976562,-1.9815571308135984,7.131801605224609,1.127218246459961,109.2046890258789,-62.27773284912109,-46.97600555419922,32.94263458251953,-1.8550841808319087,-6.986344337463379,142.8695831298828,-71.25056457519531,145.833740234375,-1.7791693210601809,2.752070426940918,-0.8350677490234375
2309.696093797684,172.28494262695312,-51.11834716796875,-119.57389831542967,5.310052871704102,-2.264291286468506,1.2379493713378906,-164.5366668701172,-68.23594665527344,9.055912971496582,11.807985305786133,-5.185920715332031,14.051580429077148,-45.54499053955078,-54.08842468261719,-83.5897445678711,-0.3831405639648437,7.471216201782227,3.7820348739624015,109.29076385498048,-59.831031799316406,-49.772499084472656,24.742713928222656,-19.48645401000977,-9.56088638305664,138.6632080078125,-71.72998809814453,149.58042907714844,-2.7206664085388184,0.6603889465332031,3.9169435501098633
2309.7560937404637,173.75537109375,-48.69927597045898,-117.22924041748048,0.8179072141647339,1.527004957199097,0.6498003005981445,-164.03564453125,-64.84309387207031,6.907616138458252,8.132623672485352,-6.694400787353516,14.93373680114746,-48.39926910400391,-46.31899642944336,-86.28819274902344,-3.705141544342041,16.4757080078125,6.047486305236816,119.76570129394533,-59.78011703491211,-46.33479309082031,3.51047420501709,3.925344944000244,10.813756942749023,139.39657592773438,-71.1535873413086,149.72010803222656,0.5295335054397583,-2.1161675453186035,5.926462173461914
2309.785825252533,175.2308349609375,-47.81835174560547,-115.82118225097656,-2.0415945053100586,1.5160017013549805,2.9218149185180664,-165.61993408203125,-62.4992561340332,7.905770778656006,3.747735023498535,-3.122228145599365,11.934547424316406,-59.26091384887695,-37.58169174194336,-78.67144775390625,-7.383709907531738,26.239341735839844,10.05889892578125,124.66744232177734,-59.60458755493164,-42.63044738769531,9.302745819091797,-2.975471973419189,12.592391967773438,139.97621154785156,-70.57813262939453,149.46221923828125,-1.959255933761597,-2.274918556213379,9.420751571655272
