Timestamp,D4:22:CD:00:05:5D_EulerX,D4:22:CD:00:05:5D_EulerY,D4:22:CD:00:05:5D_EulerZ,D4:22:CD:00:05:5D_FreeAccX,D4:22:CD:00:05:5D_FreeAccY,D4:22:CD:00:05:5D_FreeAccZ,D4:22:CD:00:05:5E_EulerX,D4:22:CD:00:05:5E_EulerY,D4:22:CD:00:05:5E_EulerZ,D4:22:CD:00:05:5E_FreeAccX,D4:22:CD:00:05:5E_FreeAccY,D4:22:CD:00:05:5E_FreeAccZ,D4:22:CD:00:05:6B_EulerX,D4:22:CD:00:05:6B_EulerY,D4:22:CD:00:05:6B_EulerZ,D4:22:CD:00:05:6B_FreeAccX,D4:22:CD:00:05:6B_FreeAccY,D4:22:CD:00:05:6B_FreeAccZ,D4:22:CD:00:05:6E_EulerX,D4:22:CD:00:05:6E_EulerY,D4:22:CD:00:05:6E_EulerZ,D4:22:CD:00:05:6E_FreeAccX,D4:22:CD:00:05:6E_FreeAccY,D4:22:CD:00:05:6E_FreeAccZ,D4:22:CD:00:49:AA_EulerX,D4:22:CD:00:49:AA_EulerY,D4:22:CD:00:49:AA_EulerZ,D4:22:CD:00:49:AA_FreeAccX,D4:22:CD:00:49:AA_FreeAccY,D4:22:CD:00:49:AA_FreeAccZ
1402.0108127593994,177.21273803710938,-46.88787460327149,-1.615604281425476,-1.536735773086548,-0.0824158787727356,2.583404541015625,-153.80763244628906,-57.23049545288086,-72.73558807373047,-10.54099464416504,2.522090435028076,11.489273071289062,-72.42194366455078,8.506369590759277,65.21337890625,-16.535663604736328,7.263416290283203,18.607341766357425,78.13591766357422,-54.69926834106445,28.64558219909668,9.063749313354492,8.652687072753906,9.184808731079102,121.3676528930664,-73.84493255615234,141.21002197265625,-1.8880271911621092,1.1402714252471924,10.448171615600586
1402.020817041397,178.71066284179688,-48.82641220092773,-4.026362419128418,-0.9182063341140748,-0.5260512828826904,2.2040367126464844,-148.8816375732422,-59.47187805175781,-78.05652618408203,0.0679720789194107,3.6733922958374015,3.373044013977051,-57.91374969482422,24.05611801147461,67.89515686035156,-0.5929183959960938,10.470727920532228,18.771907806396484,89.23998260498047,-60.21694946289063,29.76106834411621,3.1173200607299805,4.474026679992676,8.381521224975586,126.87014770507812,-73.578369140625,136.80458068847656,-3.6138176918029785,-0.5399205684661865,8.237249374389648
1402.0278103351593,-179.296630859375,-52.18258666992188,-7.344311237335205,-1.0914783477783203,-1.229058027267456,3.123551368713379,-135.57647705078125,-62.1854362487793,-87.56806182861328,-0.0750772207975387,5.456381797790527,-3.4598169326782227,-38.41525650024414,36.71439743041992,69.69782257080078,3.5403542518615723,6.881678581237793,3.634319305419922,100.87696075439452,-66.32962036132812,32.80508041381836,-2.7918615341186523,3.418461322784424,3.1464433670043945,130.54869079589844,-74.33733367919922,135.66175842285156,-3.563241958618164,2.615675926208496,3.9352035522460938
1402.077587366104,174.59336853027344,-37.88779830932617,-147.25502014160156,0.4424255490303039,-1.361607789993286,2.0640316009521484,148.1479949951172,-65.45053100585938,37.34508514404297,-1.0023767948150637,8.733409881591797,1.468902587890625,-40.2244873046875,-7.48742151260376,-45.43482971191406,7.901086807250977,-3.83974027633667,30.97412109375,170.3988037109375,-62.93037796020508,-45.629730224609375,-4.714206695556641,-8.974878311157227,17.81690216064453,-166.4695587158203,-76.74663543701172,92.35565185546876,-1.0239808559417725,-0.9096784591674804,6.581874847412109
1402.1074268817902,176.6927490234375,-40.746829986572266,-149.2933807373047,0.1064594388008117,-1.4222805500030518,1.766657829284668,-158.35479736328125,-68.3780288696289,-11.378804206848145,-3.983898639678955,3.1771483421325684,-0.7269878387451172,-23.434011459350582,-1.29685378074646,-40.91009521484375,3.215953826904297,-3.603010654449463,9.326011657714844,158.7477264404297,-60.92703628540039,-31.334753036499023,-2.3355488777160645,-10.968109130859377,14.965898513793944,-146.73394775390625,-73.52234649658203,75.50383758544922,1.5583393573760986,1.9233627319335935,6.46551513671875
1402.1375999450684,179.06211853027344,-45.68294143676758,-150.75384521484375,-3.040252208709717,-2.1352458000183105,5.144951820373535,-129.74349975585938,-65.34410858154297,-38.81172561645508,-3.608277797698975,2.457794666290283,-7.003857612609863,-10.754663467407228,5.915595531463623,-35.8757438659668,-1.5305700302124023,-4.302143096923828,2.9095888137817383,143.70755004882812,-59.57984161376953,-5.324630260467529,2.260188102722168,-7.509450912475586,7.898237228393555,-137.87942504882812,-72.30559539794922,70.08999633789062,1.428335428237915,2.202476024627685,4.023523330688477
1402.196576833725,-178.6199951171875,-53.138126373291016,-151.84136962890625,-4.25797176361084,2.3916501998901367,5.857115745544434,-114.42626953125,-63.37327575683594,-57.24384307861328,-6.126648902893066,4.46114444732666,-12.577285766601562,1.032079577445984,13.128914833068848,-32.82748031616211,0.1911089420318603,-7.796818733215332,-1.6280193328857422,142.89915466308594,-58.6517219543457,11.86422634124756,1.5943212509155271,-6.679633140563965,5.754471778869629,-132.83847045898438,-70.9909439086914,68.40406799316406,0.0614083930850029,2.023983955383301,-1.633814811706543
1402.2275803089142,-178.4134521484375,-62.805965423583984,-154.0631103515625,-8.14628791809082,-0.3555397987365722,6.141487121582031,-107.78205871582033,-60.08433532714844,-71.99272918701172,-8.575138092041016,6.4229841232299805,-11.526037216186523,12.17266082763672,19.261409759521484,-31.9317626953125,-0.1053745746612548,-6.740828514099121,-5.839238166809082,143.6991424560547,-57.3228759765625,24.294097900390625,1.609666109085083,-7.756579399108887,-0.5768108367919922,-129.92620849609375,-69.04610443115234,68.63621520996094,-1.2639355659484863,1.1881980895996094,-7.525040626525879
1402.25661277771,177.05064392089844,-73.05697631835938,-155.78701782226562,-1.455552101135254,-1.2034709453582764,0.8655405044555664,-106.64813232421876,-55.92444610595703,-83.2735366821289,-11.08787727355957,2.7576589584350586,-6.483242988586426,21.83460807800293,24.1632022857666,-31.404315948486328,-1.04834246635437,-5.760663986206055,-6.476288795471191,142.08238220214844,-56.15065383911133,33.625423431396484,2.6454639434814453,-6.139782905578613,-7.084057807922363,-128.14852905273438,-67.49990844726562,69.45414733886719,0.9847527742385864,1.7715535163879397,-9.721521377563477
1402.287687778473,172.06719970703125,-77.5184097290039,-150.10008239746094,13.567384719848633,-4.861815452575684,-6.914975166320801,-109.6479721069336,-51.8265495300293,-89.20498657226562,-12.887441635131836,0.0687733739614486,-4.288481712341309,30.85072898864746,27.81381607055664,-31.786880493164062,-1.8669776916503904,-4.490200996398926,-7.379977226257324,139.60438537597656,-55.56993865966797,40.87594985961914,1.6975467205047607,-4.810863494873047,-9.316205978393556,-125.1265106201172,-67.17598724365234,68.21380615234375,0.9857267141342164,1.819896459579468,-8.317878723144531
1402.3176872730255,170.53012084960938,-76.11102294921875,-140.25840759277344,5.277281761169434,0.0010791204404085,-7.800225257873535,-115.05654907226562,-47.83981704711914,-90.7584228515625,-14.191560745239258,-3.459874153137207,-5.277494430541992,38.06599807739258,30.984539031982425,-35.024436950683594,0.3662170171737671,0.6750593185424805,-8.644960403442383,136.61807250976562,-55.208255767822266,46.48042678833008,1.8356502056121824,-4.462778091430664,-7.206573486328125,-120.6959228515625,-67.64081573486328,64.90255737304688,0.5793718099594116,2.6020798683166504,-8.241029739379883
1402.346685409546,169.0836944580078,-73.61897277832031,-134.03135681152344,-1.1222715377807615,-0.009056381881237,-9.680824279785156,-126.07361602783205,-44.41259002685547,-87.95157623291016,-17.996356964111328,-6.326764106750488,-5.995719909667969,37.80804061889648,33.29742431640625,-42.924617767333984,4.618954658508301,5.583621978759766,-8.890419006347656,131.3290557861328,-54.71718597412109,51.00880813598633,1.9050593376159668,-2.8011584281921387,-7.239725112915039,-116.06604766845705,-68.6179428100586,60.66508483886719,0.0333938375115394,3.2980456352233887,-8.650457382202148
1402.377205133438,168.26751708984375,-74.09339904785156,-132.6975555419922,-4.916665077209473,-3.1853647232055664,-8.577543258666992,-139.97213745117188,-41.24225234985352,-81.65046691894531,-7.861217498779297,-7.765917778015137,-1.899764060974121,30.094947814941406,34.62488555908203,-57.399681091308594,6.009579658508301,0.4352614879608154,-11.189130783081056,125.99784088134766,-54.49039459228516,55.1474723815918,3.4818572998046875,-0.4971624612808227,-8.805168151855469,-110.69894409179688,-69.77238464355469,56.090858459472656,0.5480926036834717,0.1766796112060547,-5.416511535644531
1402.4072031974792,165.39535522460938,-73.60552215576172,-134.53489685058594,-5.639111518859863,-5.760088920593262,-0.5993976593017578,-148.01490783691406,-38.368751525878906,-74.8879165649414,-9.058168411254885,-8.84596061706543,8.681798934936523,17.960586547851562,33.314598083496094,-77.74195861816406,3.6885323524475098,-13.406625747680664,-17.607315063476562,122.83102416992188,-54.8902473449707,59.04012680053711,3.787168025970459,0.2541740536689758,-6.064809799194336,-105.9034194946289,-70.99736785888672,50.69061279296875,1.57588791847229,0.55724036693573,-1.8657283782958984
1402.4372067451477,163.2832489013672,-72.69532775878906,-133.22279357910156,-4.394582748413086,-9.3560791015625,-0.8620548248291016,-147.7344512939453,-38.00015640258789,-68.99702453613281,3.5665431022644043,-21.783496856689453,-11.114505767822266,1.781022071838379,27.13514518737793,-96.05812072753906,-2.3298258781433105,-17.32248306274414,-26.103168487548828,120.89202880859376,-56.15615081787109,61.63163757324219,3.029958724975586,1.636518478393555,-2.147592544555664,-107.69496154785156,-72.34109497070312,49.44198989868164,4.368431091308594,-0.1207575649023056,1.134784698486328
1402.4971606731417,162.05621337890625,-71.03958129882812,-128.46676635742188,-4.399065971374512,-3.5603432655334477,3.984259605407715,-150.28793334960938,-40.00614929199219,-63.06827545166016,10.817216873168944,-21.020294189453125,-10.600177764892578,-12.977678298950195,22.565975189208984,-103.21585083007812,-2.3392157554626465,6.125777244567871,-19.49700927734375,118.89469909667967,-57.30450820922852,61.79751586914063,5.105792045593262,1.654026746749878,4.243472099304199,-111.88746643066406,-74.69508361816406,48.98128509521485,-2.955735683441162,-1.0994248390197754,6.358592987060547
1402.5271489620209,158.53334045410156,-69.81266021728516,-122.9178237915039,-3.841261863708496,-1.857432842254639,5.773007392883301,-158.10525512695312,-41.326148986816406,-57.4286003112793,12.333221435546877,-1.4598500728607178,6.328630447387695,-20.757701873779297,24.381208419799805,-96.6380615234375,-8.023002624511719,3.534474849700928,-8.089040756225586,115.54041290283205,-57.08956146240234,59.40480041503906,10.89326286315918,1.0704395771026611,6.301666259765625,-115.10552215576172,-77.11751556396484,48.11567687988281,-3.7037429809570312,-2.7481436729431152,7.985387802124023
1402.557469367981,152.4549560546875,-69.07601165771484,-115.53937530517578,-4.284055709838867,-0.1808914840221405,6.6100006103515625,-163.74978637695312,-43.66797637939453,-51.90689849853516,3.9392590522766113,-9.262054443359377,-1.702387809753418,-21.22740936279297,26.493209838867188,-82.73422241210938,-13.853078842163086,-14.883962631225586,-16.09716033935547,105.10012817382812,-55.13811111450195,56.2564582824707,9.307432174682615,-2.011265754699707,5.098846435546875,-117.45601654052734,-77.73714447021484,48.37545776367188,0.5231648683547974,-2.988953113555908,2.565274238586426
1402.5871806144714,143.71826171875,-68.27423858642578,-107.78472137451172,-3.5802130699157715,-3.948811054229736,5.6968841552734375,-166.80030822753906,-45.1557846069336,-48.17106246948242,0.9748148918151855,-7.446281433105469,-0.4730615615844726,-15.343796730041504,24.944849014282227,-65.85778045654297,-5.249295234680176,-10.590808868408203,-11.621009826660156,88.76943969726562,-51.38735961914063,53.42267227172852,9.324283599853516,10.619461059570312,0.3752813339233398,-124.21900177001952,-76.20066833496094,53.28346252441406,6.612583160400391,1.0019299983978271,-1.921259880065918
1402.6171810626984,134.1271514892578,-67.2567138671875,-101.64873504638672,-1.8357789516448972,-6.564572334289551,6.118783950805664,-167.21014404296875,-46.76591491699219,-45.51288986206055,1.5126111507415771,-4.291984558105469,0.923776626586914,-14.022531509399414,18.93277931213379,-53.3760986328125,-11.325353622436523,0.1975364685058593,1.529998779296875,78.6141586303711,-47.46289443969727,52.93474578857422,11.968730926513672,15.270315170288086,-7.560007095336914,-134.04254150390625,-73.73786926269531,58.51860809326172,10.887203216552734,1.091777801513672,-4.218280792236328
1402.6481835842133,125.834228515625,-67.66720581054688,-98.30604553222656,11.322952270507812,-6.65883731842041,0.7083959579467773,-168.03274536132812,-49.22018051147461,-43.57209396362305,2.970409393310547,-4.259209632873535,0.8935050964355469,-11.406042098999023,11.760544776916504,-45.16642379760742,-12.935916900634766,5.277043342590332,7.722232818603516,75.11663055419922,-44.63059616088867,54.32544708251953,2.972599983215332,12.886922836303713,-7.066058158874512,-143.48695373535156,-71.4889907836914,62.92710113525391,4.430758476257324,0.979678988456726,2.6485166549682617
1402.6771066188812,128.5403289794922,-65.89286804199219,-109.26093292236328,33.017822265625,2.7338409423828125,10.992469787597656,-169.23788452148438,-52.2532958984375,-41.98638534545898,2.009215831756592,-4.512096405029297,-2.036606788635254,-6.168479919433594,5.599875450134277,-38.07974624633789,-3.0986456871032715,16.735183715820312,4.7152099609375,71.30513000488281,-43.4909553527832,56.16092300415039,4.118387222290039,15.192947387695312,-5.140109062194824,-147.85293579101562,-69.88933563232422,66.41007232666016,0.9022886753082277,5.944549560546875,8.850236892700195
1402.7071068286896,140.953125,-58.44642639160156,-127.83583068847656,16.726993560791016,-3.5460925102233887,6.435390472412109,-169.7051239013672,-54.93605041503906,-40.43926239013672,3.166840076446533,-5.430978775024414,-4.582500457763672,-14.440966606140137,0.0629197135567665,-30.89360809326172,-1.240382194519043,28.32717514038086,-11.053068161010742,72.7371826171875,-42.83663940429688,59.11940002441406,1.3688879013061523,14.394433975219728,-0.1574935913085937,-149.64035034179688,-69.2796401977539,68.51004791259766,7.615236282348633,3.72393798828125,1.4434633255004885
1402.7374687194824,150.1327362060547,-48.4084358215332,-143.17364501953125,4.851038932800293,-3.6199755668640137,-1.0405387878417969,-168.5945281982422,-56.04093551635742,-39.508975982666016,3.884510517120361,-6.143560409545898,-7.246637344360352,-42.66073989868164,-8.330564498901367,-21.81662368774414,-8.68136978149414,-8.836170196533203,-9.93354034423828,77.1285171508789,-41.65040969848633,61.747108459472656,-3.1041698455810547,7.656485557556152,-1.0111198425292969,-151.86708068847656,-69.76905822753906,70.56444549560547,4.057531356811523,1.4151630401611328,-1.3056344985961914
1402.797382593155,156.44871520996094,-37.89999771118164,-153.76304626464844,-3.1429333686828613,0.2241183817386627,-9.667205810546877,-164.8207244873047,-54.71296691894531,-39.84908676147461,3.3330202102661133,-7.667863845825195,-6.671125411987305,-70.37004852294922,-16.24030113220215,-10.369071006774902,-1.7190096378326416,-4.808608055114746,11.926870346069336,80.9262924194336,-39.71928024291992,62.94096755981445,0.8017990589141846,4.533626556396484,-5.50153923034668,-154.16937255859375,-70.65167236328125,73.18180847167969,-1.6090223789215088,2.786731719970703,-4.8418073654174805
1402.8273725509644,161.77354431152344,-28.78992080688477,-160.13223266601562,-4.460855484008789,3.178030490875244,-16.334598541259766,-164.03541564941406,-50.17962646484375,-40.93770217895508,-1.0728535652160645,-6.532293319702148,-2.003244400024414,-88.42804718017578,-22.279281616210938,1.4736765623092651,0.1609656810760498,3.774434089660645,13.31114387512207,85.06245422363281,-37.07623672485352,63.63261032104492,0.2260341048240661,3.642071723937988,-8.616109848022461,-155.78286743164062,-71.33264923095703,75.42472839355469,-0.6426961421966553,1.2335736751556396,-6.214007377624512
1402.8573882579803,167.079345703125,-22.5959529876709,-164.45794677734375,-2.1488075256347656,5.658907890319824,-13.176830291748049,-165.53224182128906,-44.01622772216797,-43.24900817871094,-0.990652322769165,-7.48773193359375,-5.950965881347656,-93.6728057861328,-28.54869079589844,13.4398193359375,-0.889826774597168,7.634767532348633,5.529416084289551,90.22276306152344,-33.93545150756836,64.0991439819336,-0.6736764907836914,3.040610313415528,-8.686023712158203,-155.6581573486328,-71.66498565673828,76.79767608642578,2.259953022003174,-0.6719645261764526,-5.895166397094727
1402.8870108127594,168.61827087402344,-20.185047149658203,-168.3854217529297,-3.674910545349121,3.553135395050049,-12.000282287597656,-166.01376342773438,-38.757450103759766,-44.868934631347656,5.966587066650391,-2.5601072311401367,0.5004987716674805,-90.96454620361328,-35.75979232788086,24.979412078857425,-0.2978911399841308,8.421638488769531,2.1567211151123047,94.97035217285156,-30.4831485748291,64.58150482177734,-0.979468584060669,1.930525779724121,-7.016496658325195,-154.42041015625,-71.24372100830078,78.01836395263672,2.6523890495300293,0.1470830738544464,-7.650918006896973
1402.9169173240662,164.1535186767578,-21.799604415893555,-170.8942108154297,-7.5401716232299805,4.558819770812988,-8.838628768920898,-165.30035400390625,-34.2150764465332,-45.788482666015625,3.399131298065185,-5.562450408935547,-0.4042263031005859,-83.10687255859375,-44.6791877746582,34.0319709777832,2.33388614654541,9.61644172668457,-1.014115333557129,97.28622436523438,-26.883901596069336,65.40169525146484,0.4046449065208435,0.6653701066970825,-6.699517250061035,-152.39801025390625,-70.19153594970703,78.84381866455078,1.807105541229248,1.9587547779083248,-6.705061912536621
1402.9469237327576,162.69326782226562,-26.605369567871094,-170.1304473876953,-11.536821365356444,-1.930236577987671,-13.474546432495115,-165.02488708496094,-31.30077743530273,-45.02103042602539,6.028951644897461,-4.070645332336426,1.7034645080566406,-81.86593627929688,-52.55781555175781,40.57721328735352,7.327948570251465,11.902055740356444,-0.772526741027832,96.63870239257812,-23.60979461669922,66.73084259033203,0.4009605646133423,0.604546308517456,-6.629090309143066,-151.36541748046875,-71.84053802490234,78.34099578857422,7.339670181274414,1.191596269607544,2.961061477661133
1402.9774425029757,168.9417266845703,-28.81242561340332,-169.33741760253906,-4.457618713378906,7.020740509033203,30.71301651000977,-165.34213256835938,-30.2817440032959,-43.02971267700195,0.7650008201599121,-6.420957565307617,-0.9140405654907228,-83.94336700439453,-56.39411163330078,44.53059387207031,4.445898056030273,10.470712661743164,9.643037796020508,94.46883392333984,-21.381547927856445,68.82498168945312,4.785159111022949,2.667654037475586,-2.223894596099853,-148.83486938476562,-74.75460052490234,75.50494384765625,-4.272007942199707,0.0771307349205017,-1.2140684127807615
1403.0074334144592,171.92318725585938,-28.52274703979492,-167.7169189453125,-24.833778381347656,7.165966033935547,6.192607879638672,-166.93504333496094,-30.01619911193848,-42.03801345825195,-0.3287329077720642,-6.367117881774902,-1.0106678009033203,-79.09278106689453,-56.23040771484375,42.363162994384766,9.824104309082031,8.580718994140625,7.352216720581055,94.8634796142578,-18.059717178344727,71.16059112548828,7.090131759643555,7.055319786071777,11.946052551269531,-146.9515380859375,-74.48860931396484,75.40657043457031,1.370413303375244,1.0051829814910889,5.775049209594727
1403.037432432175,172.84927368164062,-25.433422088623047,-166.4303436279297,-29.98199462890625,0.8947001695632935,10.08396339416504,-169.44915771484375,-29.75007057189941,-42.51388168334961,3.224695205688477,-5.658444404602051,-0.2614336013793945,-76.16156768798828,-51.78775405883789,39.61537551879883,11.108526229858398,6.971408843994141,7.076047897338867,95.07852935791016,-10.86650848388672,73.8055419921875,18.31650161743164,18.87246322631836,21.576568603515625,-150.4787139892578,-72.85652923583984,79.8556137084961,10.72467041015625,0.0603923052549362,9.939558029174805
1403.0974209308624,171.5575714111328,-21.23641586303711,-165.34226989746094,-28.80501937866211,2.59134292602539,7.303920745849609,-171.18807983398438,-31.63555908203125,-42.72700881958008,3.2092175483703613,-5.355978965759277,1.1300649642944336,-77.20166015625,-45.40584945678711,36.20449066162109,13.186819076538086,5.428168296813965,9.675043106079102,93.11739349365234,3.360145568847656,75.04584503173828,17.094619750976562,21.41003799438477,26.295040130615234,-154.15115356445312,-73.0329818725586,83.07622528076172,1.9800641536712649,1.4047176837921145,6.6663970947265625
1403.1275761127472,168.28565979003906,-16.691558837890625,-162.70240783691406,-17.7769775390625,-3.587419033050537,8.15427017211914,-172.6194610595703,-36.53132629394531,-42.83583068847656,1.0575940608978271,-5.782088279724121,2.729745864868164,-80.11363220214844,-38.96916580200195,31.199928283691406,9.663673400878906,1.5841004848480225,9.77679443359375,87.07673645019531,21.37884330749512,72.59092712402344,22.215621948242188,21.548992156982425,9.221418380737305,-156.8208770751953,-74.18622589111328,85.55118560791016,2.981576919555664,3.12978744506836,9.354185104370115
1403.1569335460665,170.69699096679688,-13.157559394836426,-160.7987823486328,-10.226552963256836,-1.530341625213623,8.761138916015625,-173.82583618164062,-44.98135757446289,-43.77989959716797,2.2153353691101074,-8.708965301513672,4.302952766418457,-82.53876495361328,-33.69516372680664,25.22593116760254,6.708846092224121,0.4727697372436523,5.879816055297852,80.02600860595703,40.10208511352539,70.72429656982422,31.119190216064453,12.732454299926758,-1.9498748779296875,-162.66407775878906,-75.1636734008789,90.36341857910156,10.731218338012695,5.610213279724121,6.938564300537109
1403.187610387802,171.23110961914062,-12.662080764770508,-159.83872985839844,-2.438878536224365,4.353716850280762,5.060331344604492,-170.3442840576172,-56.98810577392578,-42.488372802734375,-1.246617555618286,-4.975436210632324,6.273622512817383,-87.14476013183594,-31.70503234863281,19.49486351013184,1.5490717887878418,-0.4346402287483215,1.638357162475586,81.6211166381836,57.33728790283203,78.62322235107422,11.016674041748049,16.259944915771484,-7.503068923950195,-173.65220642089844,-75.84524536132812,98.74635314941406,5.624768257141113,4.108339309692383,5.995674133300781
1403.2166531085968,171.12648010253906,-15.157916069030762,-159.1591033935547,2.300340175628662,4.435144424438477,-4.503655433654785,-163.7822723388672,-58.83989334106445,-40.509307861328125,-20.874248504638672,7.099570274353027,2.240266799926758,-92.77857971191406,-34.699615478515625,14.809242248535156,-2.123807907104492,1.4888930320739746,1.053980827331543,92.995361328125,69.43608856201172,100.89104461669922,-8.058069229125977,14.37503433227539,-5.722691535949707,175.60845947265625,-76.065185546875,106.9373779296875,-1.554603099822998,2.5818934440612797,2.2454519271850586
1403.2478330135343,169.79551696777344,-20.90691947937012,-158.1973419189453,1.3823490142822266,2.764955520629883,-14.32120132446289,-164.1774139404297,-51.14959716796875,-40.42951583862305,-3.054479122161865,-5.364933013916016,-5.65418815612793,-97.6279067993164,-42.006595611572266,11.01172924041748,-3.7328014373779297,2.027352333068848,-4.529585838317871,116.62378692626952,74.9773941040039,137.936279296875,-7.971639633178711,2.8344602584838867,-6.487931251525879,169.26995849609375,-75.95074462890625,112.0482940673828,-1.6503267288208008,1.6981403827667236,-10.2796630859375
1403.2776412963867,166.83419799804688,-29.30967330932617,-157.01393127441406,-3.670111656188965,1.9536874294281008,-20.36532211303711,-168.30093383789062,-44.17036819458008,-40.05979919433594,14.755876541137695,-9.045082092285156,-19.599925994873047,-102.0040283203125,-51.45453643798828,8.547000885009766,-2.0727639198303223,1.5714383125305176,-7.895119667053223,150.4696044921875,71.75530242919922,177.98074340820312,1.9293763637542725,-3.811683654785156,-11.053703308105469,165.24818420410156,-74.7366943359375,115.37167358398438,-0.2800109982490539,-1.8521254062652588,-13.023733139038086
1403.3066375255585,162.22911071777344,-40.19611740112305,-155.8923797607422,-5.891785621643066,-0.2195034027099609,-17.753009796142578,-167.890625,-45.62059020996094,-39.80123519897461,10.371225357055664,-3.965745449066162,-15.407953262329102,-106.5849380493164,-60.49504089355469,7.724903106689453,-2.52834415435791,1.8948447704315183,-7.172987937927246,176.16976928710938,63.318946838378906,-162.30076599121094,-8.990873336791992,1.969545125961304,-6.638708114624023,164.76400756835938,-74.28124237060547,116.22901916503906,-2.896248340606689,-3.565713882446289,-4.966344833374023
1403.367110967636,157.70648193359375,-53.95768737792969,-153.5133514404297,-4.051509857177734,-1.599247932434082,-9.447986602783203,-164.1927490234375,-46.59758758544922,-40.11685562133789,6.773845672607422,-7.264183044433594,-6.740139007568359,-110.41888427734376,-68.7782211303711,8.890034675598145,-2.1240406036376958,2.2455615997314453,-6.438810348510742,-178.2579803466797,53.4164924621582,-159.7136688232422,-11.612491607666016,2.454374313354492,-12.039373397827148,163.37603759765625,-75.3166732788086,117.97341918945312,-0.1537317633628845,2.3535475730896,-7.530583381652832
1403.3971433639526,151.9539337158203,-69.71280670166016,-147.39578247070312,1.8298726081848145,-1.773618221282959,0.2873497009277344,-167.7891845703125,-43.779518127441406,-41.2838134765625,5.397621154785156,-9.968212127685549,-2.1959633827209477,-115.62457275390624,-72.21846008300781,5.96664571762085,-15.863981246948242,11.107599258422852,-3.5714988708496094,171.752197265625,43.5091667175293,-166.8129119873047,-15.223127365112305,-2.905828952789306,-14.385974884033203,157.8725128173828,-76.72056579589844,122.67809295654295,4.259692192077637,1.1475446224212646,-9.380470275878906
1403.427303314209,127.66922760009766,-83.72640228271484,-118.77693939208984,14.130744934082031,-2.296787738800049,5.763762474060059,-171.70285034179688,-41.31964492797852,-42.597686767578125,11.156805038452148,-8.321598052978516,4.855368614196777,-108.43682098388672,-73.05962371826172,-4.069263458251953,-6.913921356201172,9.612699508666992,-4.691159248352051,163.824951171875,36.49082565307617,-175.049072265625,-16.342369079589844,4.747949600219727,-20.83313751220703,150.7463836669922,-77.33934020996094,129.64138793945312,0.2215401232242584,-0.2862336039543152,-4.581718444824219
1403.4573047161102,26.7991943359375,-81.44673156738281,-12.27409839630127,19.969646453857425,23.548656463623047,9.119709014892578,-168.12998962402344,-41.68157196044922,-43.87912368774414,4.394609451293945,-7.900442123413086,1.6769113540649414,-96.38807678222656,-73.09043884277344,-13.943049430847168,-0.9847549200057985,2.76711368560791,-7.209787368774414,175.0406951904297,36.81389999389648,-173.45401000976562,1.1839497089385986,-15.82695198059082,-5.345709800720215,150.4734649658203,-78.05786895751953,131.92337036132812,-2.194770812988281,-0.7714076042175293,2.469893455505371
1403.486810922623,18.848461151123047,-76.95267486572266,-9.635011672973633,25.122303009033203,-5.384883880615234,-11.458868026733398,-165.8408203125,-41.57952880859375,-47.292476654052734,2.808387279510498,-10.516838073730469,-1.260944366455078,-91.0689697265625,-72.82431030273438,-18.848398208618164,0.3471231460571289,0.7686672210693359,-7.374787330627441,-160.1091766357422,44.10758209228516,-162.09425354003906,-3.682948112487793,5.968350410461426,-3.5700578689575195,158.53004455566406,-79.82709503173828,126.89015197753906,6.564519882202148,3.205625534057617,3.881669044494629
1403.5168161392212,44.87846374511719,-79.84625244140625,-34.53632736206055,20.87576675415039,0.3523085117340088,-3.301743984222412,-161.92141723632812,-41.03586196899414,-50.79683303833008,5.487941741943359,-8.361228942871094,-1.2680091857910156,-95.21247100830078,-73.29061126708984,-15.80884838104248,-2.6836328506469727,2.8598999977111816,-4.123472213745117,-128.4464874267578,52.26873016357422,-138.88595581054688,-8.6109619140625,8.648563385009766,-22.98797607421875,169.5400848388672,-81.2856216430664,118.86151885986328,14.528566360473633,6.321290016174316,11.689947128295898
1403.5468945503235,99.55223846435548,-80.35543823242188,-82.29499053955078,-10.911870956420898,-15.739423751831056,8.15345573425293,-157.02194213867188,-38.88084030151367,-54.433631896972656,7.563401222229004,-11.871509552001951,-2.538330554962158,-108.76475524902344,-74.71735382080078,0.3253132402896881,-4.272763252258301,7.416834831237793,3.517449378967285,-98.33195495605467,55.64715194702149,-108.33515167236328,-3.144965648651123,-1.048830509185791,-20.770732879638672,174.19644165039062,-82.07332611083984,113.78327941894533,0.9575120210647584,1.290571212768555,1.2084617614746094
1403.577731370926,113.45490264892578,-81.50666809082031,-97.43460083007812,-11.869558334350586,-8.310384750366211,3.4562301635742188,-150.14764404296875,-36.70621871948242,-58.34773254394531,2.8813018798828125,-12.387935638427734,-1.940720558166504,-123.8836669921875,-75.44168853759766,23.15861320495605,-4.749517440795898,15.967363357543944,14.600666046142578,-72.82579040527344,53.90640640258789,-79.94935607910156,-2.337809562683105,3.4270424842834477,-11.332805633544922,174.4458465576172,-80.23060607910156,113.18820190429688,0.7400608062744141,-1.671064853668213,-3.1285400390625
1403.6068654060364,132.288330078125,-82.76480865478516,-119.90313720703124,-10.00689697265625,1.5600008964538574,7.263031005859375,-143.7691650390625,-33.73179626464844,-59.179874420166016,-15.44915008544922,-7.730896949768066,7.05125617980957,-125.79541778564452,-74.99722290039062,34.38069152832031,0.7482831478118896,4.1468706130981445,7.629739761352539,-53.42116928100586,49.27008056640625,-57.82051467895508,4.489877700805664,-3.764056205749512,2.0164108276367188,178.28494262695312,-77.34398651123047,109.25473022460938,0.6140007972717285,-0.9352869987487792,-0.3900566101074219
1403.6676232814789,151.04368591308594,-81.96979522705078,-132.8574981689453,1.7520418167114258,1.2531557083129885,-2.3423385620117188,-137.3690643310547,-29.465412139892575,-56.93087387084961,-16.415279388427734,-7.2717132568359375,3.408393859863281,-121.1710433959961,-72.6885986328125,35.697608947753906,2.5418052673339844,-0.1661798954010009,4.541910171508789,-37.9576416015625,44.17054748535156,-43.41110610961914,3.0040783882141118,-4.965961456298828,16.579875946044922,179.0272216796875,-74.52240753173828,110.3514633178711,-7.412153244018555,-2.4101505279541016,1.963057518005371
1403.6977705955503,167.79888916015625,-81.82819366455078,-148.7171630859375,-0.7877181768417358,2.435849189758301,1.681239128112793,-131.77926635742188,-24.92673110961914,-52.34859085083008,-13.563724517822266,-7.907881736755371,-6.68822193145752,-115.6328353881836,-69.04068756103516,33.94902420043945,2.213987350463867,0.4623552560806274,2.481492042541504,-21.049406051635746,39.91752624511719,-33.667694091796875,6.798680305480957,-12.369646072387695,17.44762420654297,175.72479248046875,-73.3943862915039,117.62244415283205,-6.789899826049805,-4.320834159851074,0.2401142120361328
1403.727727174759,-175.83689880371094,-81.25940704345703,-165.6438446044922,0.2734211683273315,-0.2308223247528076,0.1615533828735351,-130.38687133789062,-20.376441955566406,-45.71896743774414,-7.862677574157715,-5.522342681884766,-9.880666732788086,-112.5305633544922,-65.3876724243164,32.04575729370117,-0.5701417922973633,0.780839204788208,-2.3422493934631348,0.9189901351928712,37.26507568359375,-25.130311965942383,0.6080294847488403,4.718815803527832,-3.228332996368408,168.53170776367188,-73.21550750732422,126.3187255859375,-0.0310910977423191,0.5466405153274536,2.422842025756836
1403.7567188739777,-162.2048797607422,-80.67091369628906,-178.6399688720703,1.3440852165222168,0.2303853631019592,0.8024177551269531,-133.49037170410156,-16.407541275024414,-37.60707092285156,-5.513792991638184,-3.386149406433105,-11.464910507202148,-110.44792938232422,-63.2343635559082,29.54767799377441,-1.496493577957153,-3.1245179176330566,-4.924282073974609,13.456890106201172,31.88556289672852,-17.962263107299805,2.954059600830078,17.695396423339844,-2.456376552581787,162.73681640625,-72.90616607666016,132.6728057861328,0.2132581770420074,3.8244528770446777,0.5271158218383789
1403.7872653007507,-152.90957641601562,-80.49972534179688,170.89173889160156,0.4833078384399414,0.4810641407966614,0.4911079406738281,-141.2903289794922,-12.761531829833984,-29.58026123046875,-1.7147316932678225,-0.7905721664428711,-6.166784286499023,-109.05059051513672,-63.85673141479492,26.23768424987793,-3.910232543945313,-2.939574241638184,-1.41839599609375,22.92125129699707,25.23797607421875,-11.437637329101562,2.573073387145996,4.776644706726074,-5.19394588470459,158.2965545654297,-72.41007995605469,137.90333557128906,-3.548426628112793,2.619785785675049,-1.4519500732421875
1403.817260980606,-145.16598510742188,-80.3109359741211,161.78128051757812,-0.9989638328552246,0.0442662388086319,-0.1094379425048828,-151.24893188476562,-10.020028114318848,-23.140233993530277,-1.1591365337371826,-3.545126914978028,1.9052848815917969,-103.50767517089844,-66.47868347167969,19.51418113708496,-5.005898475646973,-0.1940317153930664,0.649226188659668,35.64149475097656,17.3306827545166,-3.375860929489136,7.916101455688477,10.562566757202148,-9.098703384399414,156.30955505371094,-72.06236267089844,140.17820739746094,-2.349815368652344,1.4936950206756592,-3.133671760559082
1403.847262382507,-142.5326690673828,-79.97621154785156,157.39356994628906,-1.1748054027557373,-1.4241328239440918,-0.8768854141235352,-159.348388671875,-8.909963607788086,-18.39970588684082,9.843114852905272,5.432764053344727,-7.777020454406738,-95.65557861328124,-68.88719177246094,9.618392944335938,-1.9864325523376465,1.3658342361450195,-2.784146785736084,40.77840805053711,8.00903034210205,7.539909839630127,15.027353286743164,14.266563415527344,-5.20574951171875,154.88894653320312,-71.63075256347656,140.4224395751953,0.8516489267349243,1.4569644927978516,-4.599884033203125
1403.8767857551577,-148.95654296875,-79.15447235107422,162.0452880859375,-2.049355983734131,-7.915045738220215,-1.3988409042358398,-158.5948944091797,-11.463695526123049,-17.98837661743164,15.36988639831543,10.015586853027344,-11.222429275512695,-89.77404022216797,-69.90995025634766,-2.383517026901245,-2.3164873123168945,3.365008354187012,-4.319460868835449,34.98846435546875,0.7146996855735779,21.74477195739746,22.45648956298828,14.172100067138672,-4.036690711975098,152.59664916992188,-70.70622253417969,139.22625732421875,2.428915023803711,0.516421914100647,-5.5960693359375
1403.907024383545,-158.88409423828125,-77.12804412841797,171.88778686523438,-1.0850377082824707,-6.169659614562988,-1.8936352729797363,-154.93966674804688,-14.521342277526855,-19.1492862701416,2.38116455078125,-19.193607330322266,32.64703369140625,-81.8505630493164,-69.68871307373047,-17.171659469604492,-4.796080589294434,1.7147841453552246,-3.825716495513916,30.302261352539062,-3.1466329097747803,35.32066345214844,24.18258285522461,11.697210311889648,-8.745826721191406,149.18247985839844,-70.00127410888672,137.26287841796875,1.546253681182861,0.2811732888221741,-4.946475028991699
1403.9666540622711,-169.56321716308594,-73.99821472167969,-176.6400604248047,-0.6754498481750488,3.1223249435424805,0.0845651626586914,-162.8075714111328,-13.569086074829102,-19.960508346557617,23.62563705444336,-3.1841115951538086,-6.714173316955566,-68.90962219238281,-67.71916198730469,-33.24967575073242,-1.3958821296691897,-3.1030397415161133,-7.039237022399902,45.43229293823242,-6.108492851257324,39.17231750488281,10.748947143554688,0.734750509262085,-2.034548759460449,144.8928680419922,-70.51428985595703,136.9821319580078,-4.011320114135742,1.54329514503479,-5.255401611328125
1403.9976677894592,-179.02383422851562,-69.13613891601562,-166.39620971679688,-1.215533971786499,0.7589496374130249,-0.0033092498779296,-166.7589874267578,-11.867461204528809,-21.07520866394043,24.521800994873047,-8.207029342651367,2.9142065048217773,-61.08155059814453,-64.7000503540039,-46.31816101074219,0.4896754026412964,-2.9765992164611816,-10.492998123168944,59.99407958984375,-5.911300659179688,36.82659912109375,3.72977876663208,7.777426719665527,6.183260917663574,142.67025756835938,-71.23664855957031,137.06948852539062,-6.842615127563477,0.2062863707542419,-1.6013364791870115
1404.0268325805664,177.1204833984375,-63.21421432495117,-160.89039611816406,2.683609962463379,2.2412233352661133,-0.8394241333007812,-166.98011779785156,-7.369824409484863,-21.594327926635746,17.513351440429688,-22.021942138671875,-2.5698494911193848,-59.27540969848633,-62.41584777832031,-56.04850006103516,-4.271081924438477,3.683373928070069,-7.222002983093262,59.03204727172852,-4.788008689880371,35.81250762939453,8.738327026367188,7.75352668762207,-8.328685760498047,138.00918579101562,-71.42355346679688,139.6822967529297,0.5811437368392944,0.8288575410842896,3.6901988983154297
1404.060116291046,175.45333862304688,-57.45161056518555,-158.30430603027344,0.9131138324737548,-1.2748591899871826,-0.0034828186035156,-159.9548797607422,-4.7345051765441895,-21.02821159362793,28.99054718017578,-17.491783142089844,-7.883742332458496,-60.41143798828125,-59.01795196533203,-64.81117248535156,-2.601740837097168,20.370216369628903,2.272073745727539,53.20539474487305,-2.6852471828460693,34.5922737121582,17.227336883544922,8.182308197021484,-2.996288299560547,133.9223175048828,-71.29227447509766,143.85958862304688,-0.2618244290351867,-3.0535888671875,9.277793884277344
1404.1171386241913,175.77870178222656,-53.24078750610352,-157.69979858398438,1.9371404647827148,3.204360008239746,1.4819650650024414,-155.47479248046875,-1.9957432746887207,-21.88493156433105,15.438512802124023,-12.431333541870115,-2.1556649208068848,-57.371131896972656,-52.55283737182617,-71.97039031982422,-10.955547332763672,21.767799377441406,11.513742446899414,46.80572891235352,0.5554218292236328,30.12768173217773,20.41217041015625,11.413700103759766,-2.456814765930176,133.63662719726562,-71.5359878540039,145.08897399902344,-3.5744400024414062,-1.0513079166412354,12.120420455932615
1404.1472861766815,176.93568420410156,-51.10972213745117,-157.58253479003906,1.6825087070465088,0.1887778043746948,3.2295618057250977,-159.322509765625,-0.995072901248932,-22.630544662475582,13.689325332641602,-2.441183090209961,-6.923811912536621,-56.77559661865234,-42.2994499206543,-70.85032653808594,-7.686587333679199,24.58624649047852,12.966793060302734,43.76893997192383,3.210121154785156,23.33261108398437,26.185523986816406,14.21416473388672,-8.60675048828125,135.2637939453125,-71.65504455566406,143.346923828125,-1.3339717388153076,-1.7395784854888916,9.420364379882812
1404.151287317276,177.80877685546875,-51.45532989501953,-156.6711883544922,1.9639325141906736,0.0111561454832553,3.399045944213867,-158.86892700195312,-4.618187427520752,-25.805381774902344,10.148870468139648,1.231494665145874,0.1856241226196289,-59.9880485534668,-28.3516845703125,-63.691707611083984,-6.456607818603516,19.77347183227539,23.58872604370117,46.04291915893555,4.239527702331543,19.85711479187012,15.325889587402344,12.019697189331056,-6.930255889892578,138.38902282714844,-71.09263610839844,140.60377502441406,-2.3498220443725586,-1.349985122680664,8.078506469726562
