Timestamp,D4:22:CD:00:05:5D_EulerX,D4:22:CD:00:05:5D_EulerY,D4:22:CD:00:05:5D_EulerZ,D4:22:CD:00:05:5D_FreeAccX,D4:22:CD:00:05:5D_FreeAccY,D4:22:CD:00:05:5D_FreeAccZ,D4:22:CD:00:05:5E_EulerX,D4:22:CD:00:05:5E_EulerY,D4:22:CD:00:05:5E_EulerZ,D4:22:CD:00:05:5E_FreeAccX,D4:22:CD:00:05:5E_FreeAccY,D4:22:CD:00:05:5E_FreeAccZ,D4:22:CD:00:05:6B_EulerX,D4:22:CD:00:05:6B_EulerY,D4:22:CD:00:05:6B_EulerZ,D4:22:CD:00:05:6B_FreeAccX,D4:22:CD:00:05:6B_FreeAccY,D4:22:CD:00:05:6B_FreeAccZ,D4:22:CD:00:05:6E_EulerX,D4:22:CD:00:05:6E_EulerY,D4:22:CD:00:05:6E_EulerZ,D4:22:CD:00:05:6E_FreeAccX,D4:22:CD:00:05:6E_FreeAccY,D4:22:CD:00:05:6E_FreeAccZ,D4:22:CD:00:49:AA_EulerX,D4:22:CD:00:49:AA_EulerY,D4:22:CD:00:49:AA_EulerZ,D4:22:CD:00:49:AA_FreeAccX,D4:22:CD:00:49:AA_FreeAccY,D4:22:CD:00:49:AA_FreeAccZ
1410.3197360038755,-179.0673828125,-56.53199005126953,-116.8706283569336,-0.974812150001526,2.211044788360596,3.165874481201172,-174.4852294921875,-59.61001205444336,-38.37605667114258,0.3986959457397461,2.79137659072876,7.659383773803711,-28.192338943481445,11.346345901489258,-31.583890914916992,-1.424614429473877,-3.189267158508301,11.1505126953125,70.52709197998047,5.253409385681152,25.0017204284668,1.592243194580078,9.318840026855469,-6.042006492614746,144.98597717285156,-66.85139465332031,157.53713989257812,-2.997343063354492,-2.8916711807250977,6.156800270080566
1410.3347342014313,-151.41078186035156,-74.56394958496094,-148.97142028808594,0.1573249399662017,1.0193562507629397,-0.958566665649414,-146.53570556640625,-68.96412658691406,-64.00361633300781,4.039785385131836,3.0011916160583496,1.1077184677124023,-2.110675096511841,23.812911987304688,-23.933168411254883,-3.451572895050049,-5.20319938659668,-4.100379943847656,83.53080749511719,3.509415864944458,38.65969467163086,-5.98811149597168,3.95526647567749,-9.880746841430664,153.78509521484375,-69.0693588256836,154.84701538085938,-1.9800937175750728,-0.6599617004394531,-0.6396951675415039
1410.3873629570007,176.52610778808594,-53.134254455566406,-112.5536880493164,-1.7389838695526123,1.6156837940216064,2.016300201416016,156.16339111328125,-69.57231140136719,11.987642288208008,5.653985977172852,3.2129597663879395,4.05711841583252,-42.72510147094727,-3.8311145305633545,-14.756939888000488,7.053478240966797,3.4869637489318848,20.0302734375,95.9843292236328,-41.50699234008789,35.04435729980469,5.992823600769043,4.957907676696777,-5.966032028198242,156.2180938720703,-76.53559875488281,124.95622253417967,-0.5663325786590576,-1.0050196647644043,8.536966323852539
1410.41650223732,178.2064208984375,-55.73478698730469,-114.16153717041016,-0.5981440544128418,1.2543048858642578,2.1291427612304688,148.17861938476562,-74.6036605834961,20.643497467041016,0.1612554788589477,10.57452392578125,3.605754852294922,-30.937763214111328,-0.983414590358734,-13.389395713806152,-2.026730537414551,-6.939613342285156,12.641109466552734,100.238037109375,-53.77275466918945,43.2884407043457,-4.403934478759766,3.7042813301086426,-9.783599853515623,165.2964324951172,-76.5840835571289,118.50128173828124,-0.2087472379207611,2.0185694694519043,4.285429000854492
1410.44708442688,-178.91708374023438,-60.09988784790039,-116.33289337158205,-0.9849858283996582,1.996962547302246,3.5308713912963867,-150.94439697265625,-82.22756958007812,-36.70852279663086,-1.5955231189727783,5.752384185791016,-1.7418231964111328,-16.499835968017578,5.455898284912109,-14.805553436279297,-1.2363920211791992,-16.060523986816406,1.0995569229125977,108.62637329101562,-62.534759521484375,46.385066986083984,-10.183477401733398,0.0121851433068513,-12.742597579956056,175.2754669189453,-77.03443145751953,111.64892578125,-2.320995807647705,2.551760673522949,-1.4793205261230469
1410.4773514270782,-178.464599609375,-66.65689849853516,-113.69649505615234,-9.352922439575195,1.7056281566619873,6.5479888916015625,-94.7065200805664,-77.58472442626953,-93.1987533569336,0.8408479690551758,5.627372741699219,-7.691537857055664,-1.0472559928894043,16.974414825439453,-15.371552467346191,2.2189197540283203,-16.41748046875,-16.50393295288086,121.92008209228516,-71.96234130859375,40.4940185546875,-8.87553596496582,1.906229019165039,-15.30097198486328,-171.60995483398438,-77.04978942871094,102.81019592285156,-5.898777008056641,-0.8746142387390137,-6.4099626541137695
1410.5073597431185,173.75401306152344,-74.60794830322266,-102.34576416015624,-1.9042439460754397,-8.971002578735352,6.602876663208008,-74.66020965576172,-69.90087890625,-117.20214080810548,1.32108473777771,4.135005950927734,-9.198722839355469,6.380025863647461,29.167804718017575,-13.955479621887209,0.9416359663009644,2.3300743103027344,-18.838794708251957,171.34463500976562,-82.04379272460938,-2.0424530506134038,-5.951531410217285,-0.060411125421524,-11.94218635559082,-157.50115966796875,-76.353759765625,91.69889068603516,1.23757004737854,0.0838882327079773,-9.608980178833008
1410.5373616218567,162.33248901367188,-75.51605224609375,-79.04058837890625,4.769640922546387,5.811163902282715,-5.659903526306152,-65.87384796142578,-61.78795623779297,-132.84767150878906,-2.145263195037842,4.760513305664063,-9.89974594116211,4.144496917724609,39.514530181884766,-12.33977222442627,-2.2256078720092773,-2.63582181930542,-15.836288452148438,-100.6885986328125,-76.08714294433594,-82.29374694824219,-2.549361228942871,-3.160020351409912,-7.359912872314453,-152.27862548828125,-76.20977783203125,87.87870788574219,7.539972305297852,0.0752749145030975,-10.229135513305664
1410.5669932365415,161.3860626220703,-69.67217254638672,-67.62663269042969,6.426040649414063,4.449446678161621,-5.488666534423828,-62.06299209594727,-54.06855010986328,-144.4051513671875,-7.686200141906738,3.3465371131896973,-10.227411270141602,1.3969814777374268,48.89388656616211,-13.196995735168455,-1.779442548751831,-3.840423107147217,-14.579900741577148,-74.34856414794922,-63.38337707519531,-98.08875274658205,-0.2496132850646972,-8.513916015625,-5.158856391906738,-152.69277954101562,-77.81383514404297,89.50260925292969,-0.1375387907028198,0.5403523445129395,-6.391543388366699
1410.5971562862396,159.54336547851562,-66.23970794677734,-64.11469268798828,1.408250093460083,-10.4039306640625,-13.228416442871094,-63.02238845825195,-47.94258880615234,-151.9033660888672,-15.541955947875977,2.4557442665100098,-9.829351425170898,-4.356735229492188,57.26993179321289,-22.157421112060547,2.4409255981445312,5.028624534606934,-10.41168975830078,-58.010040283203125,-52.80568313598633,-100.43767547607422,1.7503180503845217,-8.104440689086914,-9.34608268737793,-149.5548553466797,-80.45692443847656,87.22357940673828,-1.637476921081543,0.4322414994239807,-9.31794548034668
1410.6869361400604,154.0871124267578,-68.36988067626953,-63.76568984985352,7.067627906799316,4.020140647888184,-9.56715965270996,-66.9949951171875,-44.138946533203125,-154.5327606201172,-21.198780059814453,6.579972267150879,-12.663986206054688,-21.98619079589844,61.30530548095703,-49.88092803955078,-0.9523824453353882,3.1164937019348145,-11.364168167114258,-48.29305648803711,-45.15462493896485,-98.38998413085938,5.138184547424316,-10.488847732543944,-12.905811309814451,-144.22732543945312,-81.95902252197266,82.366455078125,2.5667738914489746,0.6595577001571655,-7.32879638671875
1410.6919944286346,154.11732482910156,-67.35639190673828,-65.46208953857422,1.544316291809082,-2.1509032249450684,-2.9330620765686035,-75.55867767333984,-44.09650039672852,-150.9097137451172,-21.569896697998047,8.117321014404297,-17.671390533447266,-40.27336502075195,51.56688690185547,-85.63127136230469,-3.5218005180358887,-10.65850067138672,-24.881542205810547,-49.26315307617188,-39.78488540649414,-95.16568756103516,3.536903381347656,-8.735036849975586,-11.54345703125,-140.95848083496094,-83.78921508789062,78.12010192871094,1.96915602684021,1.567030668258667,-1.791642189025879
1410.7172331809998,155.54104614257812,-65.49849700927734,-65.60669708251953,0.0452506393194198,-5.232475280761719,-1.031437873840332,-88.7843017578125,-46.82226943969727,-140.59246826171875,-24.285938262939453,9.731805801391602,-13.962850570678713,-32.14512634277344,39.25067901611328,-103.80020904541016,-21.334552764892575,-4.433676719665527,-19.38070678710937,-53.736572265625,-36.06072616577149,-92.07980346679688,4.147703170776367,-10.13448715209961,-7.456500053405762,-144.26268005371094,-84.35076904296875,78.3061752319336,-0.1790745556354522,-0.8276691436767578,1.3391828536987305
1410.7482352256775,155.45095825195312,-63.42899703979492,-63.47575759887695,1.0662720203399658,-6.243300437927246,1.162942886352539,-105.1706085205078,-48.40697860717773,-126.37613677978516,0.478019118309021,-16.988746643066406,-0.7368488311767578,-24.276508331298828,37.93061065673828,-99.18438720703124,-5.545853614807129,6.536487579345703,-5.43018913269043,-55.94374847412109,-33.39435958862305,-89.19367218017578,3.312303066253662,-14.008527755737305,-5.091207504272461,-148.79629516601562,-85.1497802734375,79.07012176513672,-5.268608093261719,-1.9670324325561523,4.968269348144531
1410.776242017746,153.9018096923828,-61.51606369018555,-60.80680465698242,4.01280403137207,-1.558419704437256,4.974543571472168,-109.21810150146484,-50.9311637878418,-117.51172637939452,-3.1068572998046875,-32.63286590576172,-10.48104476928711,-15.507597923278809,39.24808883666992,-85.59485626220703,-5.060419082641602,-12.292715072631836,-10.408599853515623,-57.24357604980469,-32.38078308105469,-85.34754180908203,7.683072090148926,-21.68663024902344,-3.8984837532043457,-152.03794860839844,-86.0348892211914,78.85636138916016,-6.972084999084473,-2.786008358001709,5.947429656982422
1410.80681848526,149.1602783203125,-60.55229949951172,-56.89534759521485,0.2232764661312103,-1.7678635120391846,5.701497077941895,-122.35234832763672,-52.34527206420898,-108.10674285888672,3.2948455810546875,-5.848221778869629,11.881584167480469,-7.716970443725586,37.08834457397461,-65.67390441894531,-4.08283805847168,-18.62757873535156,-17.17670440673828,-62.714454650878906,-34.68292236328125,-82.29135131835938,11.074806213378906,-17.514442443847656,-7.017075538635254,-153.0774383544922,-85.12818145751953,76.69920349121094,1.434899091720581,-1.9257593154907229,1.278669357299805
1410.837821006775,141.08660888671875,-59.84117126464844,-52.543067932128906,2.0688729286193848,-4.986789703369141,5.037761688232422,-132.18756103515625,-53.136940002441406,-100.3126220703125,-1.0837242603302002,3.007749080657959,-1.8093738555908203,-2.0651979446411133,31.69318389892578,-48.02202987670898,-7.09163761138916,-12.081069946289062,-1.397256851196289,-76.39598083496094,-39.50598907470703,-79.32315063476562,0.5828151702880859,-13.018831253051758,-4.907849311828613,-153.94650268554688,-82.45906829833984,73.44910430908203,9.531225204467772,-1.5191340446472168,2.96272087097168
1410.8668217658997,132.85543823242188,-58.1910285949707,-50.3782958984375,7.781806945800781,-6.396304130554199,4.16811466217041,-136.3800048828125,-54.1793098449707,-95.46676635742188,-3.3449220657348637,-6.659479141235352,1.6594905853271484,1.2396279573440552,24.399587631225582,-34.33127212524414,-7.193757057189941,1.2488644123077393,3.818656921386719,-93.67090606689452,-43.37666320800781,-74.2386474609375,-0.9782829284667968,-2.584038734436035,6.004395484924316,-156.66806030273438,-79.88740539550781,69.6608657836914,11.133724212646484,-1.1935577392578125,0.353215217590332
1410.8970642089844,126.1431884765625,-57.56902313232422,-52.08149337768555,11.174383163452148,-0.2405546903610229,4.620002746582031,-139.3929901123047,-54.37142181396485,-92.07440948486328,-4.592959403991699,-5.089996337890625,-2.3672919273376465,-2.7388932704925537,16.57341957092285,-21.79103279113769,-9.654129028320312,3.8308048248291016,4.400705337524414,-92.70903778076172,-43.95321273803711,-73.47301483154297,8.837173461914062,7.415416717529297,8.386079788208008,-161.6459503173828,-78.47730255126953,68.29407501220703,-1.2911863327026367,-0.5435656309127808,0.4921083450317383
1410.957249879837,123.75608825683594,-57.58575439453125,-61.17313003540039,19.925575256347656,13.775382995605469,2.627748489379883,-141.7557830810547,-54.41377258300781,-90.07093811035156,-3.281247138977051,-3.264155864715576,-0.0518770217895507,-10.838330268859863,9.361294746398926,-9.101418495178224,-4.533136367797852,17.231395721435547,0.0197067260742187,-84.11540222167969,-41.96004867553711,-76.31974792480469,-3.6667985916137695,-11.575511932373049,-5.287363052368164,-162.830078125,-78.2477798461914,68.62786102294922,-7.276235580444336,4.923159599304199,3.9327926635742183
1410.9869890213013,132.80828857421875,-52.978736877441406,-77.29425811767578,14.384294509887695,10.845270156860352,3.379709243774414,-143.195068359375,-55.05031967163086,-88.5461196899414,-1.9917080402374268,-3.1434574127197266,0.197789192199707,-34.34504318237305,2.775346279144287,2.0026540756225586,-8.737895965576172,10.474796295166016,-13.114662170410156,-84.91838073730469,-40.28964614868164,-78.68257904052734,-4.893125534057617,-13.197826385498049,-5.212249755859375,-157.99166870117188,-78.92184448242188,64.94795227050781,3.7233057022094727,1.2569115161895752,1.1603593826293943
1411.0169944763184,141.80126953125,-46.1255989074707,-93.71768951416016,7.156499862670898,2.3547654151916504,-0.8580408096313477,-144.75376892089844,-56.18503952026367,-86.7112045288086,-1.7700867652893066,-3.040413379669189,0.3939018249511719,-56.77146530151367,-4.872925758361816,10.577542304992676,2.113708972930908,-2.7287111282348637,6.575078964233398,-91.75067138671876,-39.54135894775391,-80.48721313476562,-4.640876770019531,-10.114080429077148,-3.749556064605713,-154.39210510253906,-79.438232421875,62.67913818359375,8.550695419311523,0.3224947452545166,0.3525257110595703
1411.047483921051,148.1721649169922,-38.015655517578125,-107.1304702758789,1.1775178909301758,-1.9605917930603027,-4.768031120300293,-145.68162536621094,-57.828575134277344,-84.71427917480469,-2.071809768676758,-3.5586533546447754,-0.4807987213134765,-66.8462905883789,-13.636589050292969,18.261350631713867,1.264934539794922,0.8075886964797974,4.830517768859863,-97.47232055664062,-39.801082611083984,-82.09142303466797,-0.4345714449882507,-7.203804016113281,-2.686766624450684,-156.78131103515625,-79.85598754882812,65.4571762084961,3.426689624786377,0.4504331350326538,-1.150129318237305
1411.076941490173,153.3512420654297,-30.077550888061523,-116.9388198852539,-2.0783114433288574,-1.6505539417266846,-8.615230560302734,-145.93890380859375,-59.39024353027344,-82.9319839477539,-3.287956714630127,-4.586740493774414,-2.353198528289795,-74.01988220214844,-20.648651123046875,26.02996826171875,-0.2645382881164551,-0.5879275798797607,8.184120178222656,-96.80242156982422,-41.48337173461914,-84.30856323242188,0.3407370448112488,-5.992877006530762,-4.011223793029785,-157.9085693359375,-79.77880096435547,67.09390258789062,0.4214611649513244,0.1816317737102508,-2.125770568847656
1411.1070609092712,159.59085083007812,-23.7811279296875,-124.0490264892578,0.1400896310806274,-2.0629191398620605,-8.505231857299805,-146.01304626464844,-59.98843765258789,-81.63386535644531,-3.104289531707764,-5.303518295288086,-3.519280433654785,-72.75822448730469,-27.78612899780273,31.400463104248047,-1.58062744140625,0.235498309135437,3.316317558288574,-90.3226318359375,-44.464942932128906,-87.21167755126953,0.0151954162865877,-5.804308891296387,-4.892394065856934,-155.54405212402344,-79.1739501953125,66.46826934814453,1.0406460762023926,-0.8511584997177124,-4.493266105651856
1411.137223482132,165.80418395996094,-20.72246360778809,-129.7894744873047,-5.182121276855469,-1.803252935409546,-9.15560531616211,-145.39486694335938,-59.06003189086914,-80.5440673828125,-0.7458701133728027,-6.279067993164063,-2.672973155975342,-65.1917495727539,-37.949066162109375,33.90322494506836,3.75023365020752,2.8359150886535645,-2.846656322479248,-80.60883331298828,-48.35367965698242,-91.39492797851562,-0.8121678829193115,-5.46843147277832,-6.559459686279297,-151.87730407714844,-78.6846923828125,64.83157348632812,2.9962892532348637,-2.060534954071045,-6.822261810302734
1411.1672339439392,167.43572998046875,-21.87775611877441,-134.36422729492188,-12.054647445678713,-2.035983085632324,-13.907472610473633,-145.58941650390625,-56.3392448425293,-79.68596649169922,-5.266070365905762,-3.992368698120117,-3.601400375366211,-56.90365219116211,-51.8995361328125,33.90243148803711,8.979503631591797,6.676617622375488,3.99478816986084,-69.9914779663086,-52.74275970458984,-96.93680572509766,-1.3438968658447266,-5.025202751159668,-7.58742618560791,-150.13259887695312,-78.18545532226562,63.948123931884766,4.923651695251465,0.1717883050441742,-7.093416213989258
1411.1969408988953,164.2296142578125,-26.270387649536133,-136.13851928710938,-9.988485336303713,5.975826263427734,4.388717651367188,-149.48365783691406,-51.664546966552734,-77.94593048095703,-5.208672523498535,-1.4960787296295166,-3.623756885528565,-40.93889236450195,-64.33108520507812,25.55953598022461,5.308819770812988,10.3179931640625,23.363224029541016,-58.36319351196289,-57.70623397827149,-103.46197509765624,-3.2531943321228027,-4.598210334777832,-7.768853187561035,-150.0786895751953,-78.36493682861328,63.28503036499024,1.6123988628387451,1.84078311920166,-2.6370668411254883
1411.2573642730713,164.33511352539062,-27.275310516357425,-134.62353515625,-9.515619277954102,-7.148609161376953,7.885562896728516,-152.74208068847656,-46.96376800537109,-76.57678985595703,-4.214223861694336,-7.255971908569336,-0.1703834533691406,-31.28322982788086,-65.97602081298828,17.06916618347168,10.858638763427734,12.591791152954102,3.927452087402344,-40.68170166015625,-65.88489532470703,-112.53682708740234,-2.850369453430176,-13.867053985595703,-6.270086288452148,-143.93565368652344,-78.91988372802734,57.09315490722656,-5.118803024291992,0.5834009647369385,2.647096633911133
1411.2870109081268,171.21600341796875,-29.09271240234375,-132.093994140625,-15.898324966430664,-13.611595153808594,0.3915901184082031,-154.81271362304688,-44.295204162597656,-75.56842041015625,-2.9282498359680176,-1.759432077407837,0.8971757888793945,-52.76059722900391,-57.02507400512695,26.228878021240234,19.293434143066406,3.673884868621826,8.18248176574707,1.8112441301345823,-75.03938293457031,-143.2235565185547,-0.5234295129776001,-19.199932098388672,6.371198654174805,-137.32310485839844,-79.41749572753906,51.722904205322266,-2.5386128425598145,0.9307334423065186,9.221193313598633
1411.316925764084,173.68247985839844,-29.606224060058597,-128.37217712402344,-18.086620330810547,-11.719053268432615,13.841615676879885,-156.70867919921875,-43.5513801574707,-75.01837158203125,-3.4021573066711426,-3.335461139678955,0.5215873718261719,-64.46755981445312,-42.23625183105469,28.5035457611084,15.012420654296877,-0.6277189254760742,20.97152328491211,70.40106964111328,-73.6298599243164,157.8995819091797,8.745948791503906,-33.53742980957031,4.610866546630859,-134.9762420654297,-79.93659210205078,51.10277557373047,4.81641960144043,0.466818630695343,7.214422225952148
1411.347107887268,172.80064392089844,-25.551218032836918,-125.07010650634766,-14.591344833374023,-16.730995178222656,14.157642364501951,-157.6788330078125,-44.150875091552734,-75.50099182128906,-2.861655712127685,-3.8957724571228023,1.4160537719726562,-61.06789016723633,-30.986949920654297,24.76526260375977,13.1385498046875,6.38671875,1.7510261535644531,97.05126953125,-61.240234375,126.90866088867188,21.749202728271484,-29.967998504638672,19.20101547241211,-138.29542541503906,-79.84754943847656,55.24515151977539,5.3819580078125,1.7694900035858154,6.190376281738281
1411.3766872882843,171.70986938476562,-20.534252166748047,-123.7603759765625,-12.608936309814451,-14.338926315307615,3.732489585876465,-158.3333282470703,-46.00036239624024,-76.44122314453125,-2.4374547004699707,-3.5774636268615723,1.4022350311279297,-63.432376861572266,-24.4956169128418,20.46517562866211,4.8089141845703125,-1.740041732788086,-0.3322610855102539,94.9562530517578,-43.94187927246094,111.2322769165039,11.187583923339844,-13.974201202392578,25.12639617919922,-144.54042053222656,-79.62184143066406,61.24504852294922,4.503789901733398,1.2762906551361084,6.759172439575195
1411.4072794914246,172.9810333251953,-18.256044387817383,-122.22351837158205,-9.89190673828125,-5.176905632019043,3.009672164916992,-159.0487823486328,-49.4017333984375,-77.51148986816406,-3.469292163848877,-3.708707332611084,1.776606559753418,-64.89263153076172,-24.109539031982425,15.5066556930542,-0.0804757475852966,-2.1542935371398926,-0.8055667877197266,84.45209503173828,-27.305540084838867,99.769775390625,0.8563296794891357,4.062002182006836,7.754863739013672,-154.27735900878906,-79.22801208496094,70.08477783203125,6.744351387023926,2.05881929397583,6.493930816650391
1411.4366643428802,174.60214233398438,-17.116552352905273,-121.7349853515625,-0.1059923022985458,3.644587516784668,14.185514450073242,-158.93263244628906,-55.01505661010742,-79.1206283569336,-1.8150811195373533,-4.713649749755859,5.264225959777832,-66.4394302368164,-27.77059364318848,10.698534965515137,-0.3891336321830749,0.4501683115959167,0.1649808883666992,76.349853515625,-17.217803955078125,91.6437759399414,0.2418141961097717,-5.428726196289063,-2.823763847351074,-163.41378784179688,-78.91624450683594,77.39143371582031,4.424920082092285,2.075660228729248,4.843235015869141
1411.4676005840302,173.47164916992188,-17.0738582611084,-122.49313354492188,-3.141448974609375,5.522757530212402,2.381996154785156,-153.58055114746094,-63.892669677734375,-82.75116729736328,3.4919300079345703,-13.697378158569336,7.399648666381836,-70.04949188232422,-33.448814392089844,5.610325813293457,-1.6773123741149902,-0.3571840524673462,1.597980499267578,68.25540161132812,-13.165742874145508,86.99059295654297,-9.244928359985352,-6.896767616271973,-4.738767623901367,-172.73167419433594,-77.82103729248047,84.79020690917969,0.9721554517745972,-0.1482791602611541,1.631389617919922
1411.4970104694366,170.0914306640625,-18.63257598876953,-123.30533599853516,0.382477343082428,5.921978950500488,-3.3383383750915527,-138.94235229492188,-70.94636535644531,-90.6043472290039,-3.0081024169921875,-0.570258617401123,-0.4066343307495117,-72.74571228027344,-40.22057723999024,-0.436955839395523,-2.545750617980957,0.2578455209732055,1.1240167617797852,59.36608505249024,-11.995705604553224,85.37437438964844,-11.10845947265625,-3.885988712310791,-10.69765853881836,-179.2952880859375,-76.2398452758789,90.357177734375,-0.844707727432251,-0.9340840578079224,-3.2983832359313965
1411.5573737621307,166.29486083984375,-22.15349006652832,-123.88534545898438,-0.030049305409193,3.191941261291504,-13.32244873046875,-125.36624145507812,-73.09624481201172,-100.47559356689452,-7.158064842224121,6.67960262298584,-4.958011627197266,-74.72161102294922,-46.454681396484375,-8.098692893981934,-2.5087666511535645,2.499274730682373,-1.1468515396118164,48.22312545776367,-12.39195728302002,85.51439666748047,-6.183784484863281,-1.8768117427825928,-15.141389846801758,177.44358825683594,-74.99332427978516,93.74412536621094,-0.6932007074356079,-0.6938979625701904,-7.191407203674316
1411.617119550705,162.8966064453125,-27.89827919006348,-123.7847900390625,-4.431056976318359,-0.2708461880683899,-20.477859497070312,-121.34105682373048,-69.97599029541016,-102.45433807373048,-7.600244522094727,3.984273433685303,-7.449567794799805,-76.45393371582031,-51.35266876220703,-18.146764755249023,-1.8738257884979248,3.150857925415039,-3.837803363800049,36.448726654052734,-14.327804565429688,87.26655578613281,0.8352879285812378,-1.3567934036254885,-13.538703918457031,177.2505340576172,-74.44139862060547,94.2851333618164,0.8456426858901978,0.2465412616729736,-9.445030212402344
1411.6471207141876,159.92198181152344,-36.32876205444336,-122.79508209228516,-7.070178031921387,-2.733250617980957,-18.993831634521484,-127.23198699951172,-64.65079498291016,-100.77771759033205,-0.3241634964942932,-3.066606044769287,-10.502866744995115,-75.25714874267578,-54.55301284790039,-30.702516555786133,-2.702020168304444,2.439815044403076,-5.509943008422852,25.94364356994629,-16.26149559020996,91.81952667236328,4.843088150024414,-1.308100700378418,-8.76291275024414,177.63656616210938,-74.62496185302734,93.53106689453124,2.1301379203796387,0.1128341108560562,-9.008129119873049
1411.654138326645,155.91929626464844,-48.09295654296875,-120.16471862792967,-6.35589599609375,-4.2857513427734375,-13.58994483947754,-135.0823211669922,-60.73148727416992,-100.4184799194336,-2.1132020950317383,-12.212587356567385,-13.372949600219728,-69.70199584960938,-55.70368957519531,-44.28676986694336,-4.162370681762695,2.9785752296447754,-6.304616928100586,14.968276023864746,-16.593891143798828,99.64404296875,3.589677333831787,0.1993180513381958,-7.144894599914551,176.58291625976562,-75.47933197021484,93.2235336303711,1.878629207611084,0.3579792380332947,-8.646316528320312
1411.6771249771118,150.28347778320312,-62.14134216308594,-114.10079956054688,-1.503889083862305,-3.2628540992736816,-3.171783924102783,-142.2164306640625,-58.28219604492188,-98.86077880859376,-5.934916496276856,-4.561039924621582,-3.264066696166992,-60.7164192199707,-54.89166259765625,-56.22901153564453,-4.349205017089844,3.2618050575256348,-7.784882545471191,2.606856107711792,-12.857797622680664,110.87694549560548,-1.7810640335083008,1.188154935836792,-6.747305870056152,175.17337036132812,-76.41398620605469,92.56033325195312,1.631310224533081,0.6812191009521484,-8.787364959716797
1411.7073719501495,132.20089721679688,-76.57665252685547,-93.89979553222656,2.1153039932250977,-4.558968544006348,9.765256881713867,-142.79342651367188,-55.76035690307617,-98.5177764892578,-2.201305389404297,-9.778371810913086,-5.88385009765625,-52.235599517822266,-52.9951057434082,-64.5476303100586,-4.08201789855957,3.034208297729492,-8.701025009155273,-10.136479377746582,-2.9955856800079346,123.53238677978516,-13.235553741455078,10.485939025878906,-4.659981727600098,174.577392578125,-77.09851837158203,91.04222869873048,-0.2993710041046142,-1.2257180213928225,-4.623237609863281
1411.7374782562256,66.06217956542969,-80.11196899414062,-19.69894790649414,20.626445770263672,11.493072509765623,14.303634643554688,-143.5045928955078,-53.09603500366211,-99.23810577392578,-0.8654743432998657,-7.66322135925293,6.769086837768555,-43.72450256347656,-51.36407470703125,-68.71737670898438,-8.354742050170898,3.696319580078125,-7.779680252075195,-7.739489078521728,12.720610618591309,132.97755432128906,-14.477737426757812,30.9062614440918,-12.559673309326172,177.13438415527344,-77.68157196044922,88.75062561035156,0.1793206930160522,-3.6311068534851074,-2.659341335296631
1411.7671558856964,61.42351531982422,-76.06198120117188,-6.681889057159424,24.572044372558597,26.767349243164062,-18.304149627685547,-142.625,-51.15714263916016,-101.69817352294922,-1.234135627746582,-16.015254974365234,11.15418815612793,-34.91098403930664,-50.89205932617188,-68.99331665039062,-6.402865409851074,1.603559494018555,-7.632943153381348,36.52014923095703,22.68937873840332,132.0161895751953,16.71005630493164,-27.50640106201172,-24.630760192871094,-177.86329650878906,-75.37926483154297,85.26192474365234,11.74183464050293,1.4317212104797363,5.895874977111816
1411.7972288131714,92.23928833007812,-76.26260375976562,-34.57744216918945,6.900972366333008,-11.276691436767578,8.61021614074707,-136.3927764892578,-51.48273849487305,-106.89580535888672,0.4718765020370483,-11.17177391052246,5.826237678527832,-32.53034591674805,-52.45795440673828,-66.18167114257812,-8.429044723510742,-0.5233097076416016,-3.5108389854431152,79.40505981445312,32.67355728149414,119.96752166748048,-24.769058227539062,-7.971397399902344,8.438533782958984,-174.99095153808594,-71.45195007324219,80.74307250976562,8.426464080810547,-5.805706024169922,17.487525939941406
1411.8570866584778,109.344482421875,-77.3915023803711,-57.26371383666992,3.757693290710449,-24.66641998291016,6.515871047973633,-127.95564270019533,-49.73476791381836,-112.33480072021484,-7.796418190002441,-15.04310417175293,2.461453437805176,-33.151695251464844,-57.39982604980469,-61.50144958496094,-9.40884017944336,-3.792746543884277,8.624185562133789,89.77256774902344,38.74604034423828,104.3511962890625,-10.780731201171877,5.535533905029297,-13.770505905151367,-173.3870391845703,-71.02255249023438,79.83197021484375,-5.551518440246582,-2.1390271186828613,6.576545715332031
1411.8867163658142,123.25677490234376,-76.61107635498047,-69.6257095336914,-0.7037832736968994,-0.9997398853302002,1.9625463485717771,-119.9199676513672,-47.5927963256836,-114.75970458984376,-25.560535430908203,6.834529876708984,-8.455106735229492,-35.67692565917969,-63.704063415527344,-52.34281921386719,-4.234776496887207,-3.4018754959106445,11.376594543457031,73.4089584350586,38.15363693237305,88.46977233886719,-7.592293739318848,-7.263386726379394,-7.53239631652832,-174.5762939453125,-71.05086517333984,84.53657531738281,-7.3838348388671875,3.0043487548828125,-2.5360403060913086
1411.9178411960602,136.4693603515625,-76.0595703125,-77.19906616210938,-5.486856460571289,5.518451690673828,4.2705793380737305,-119.00641632080078,-43.943458557128906,-111.07707977294922,-23.949737548828125,4.740555763244629,0.0642509460449218,-45.68888092041016,-67.59969329833984,-35.59410095214844,-0.1623510122299194,-3.3136649131774902,9.583967208862305,68.47773742675781,31.969236373901367,76.07926177978516,-2.844612598419189,-14.278289794921877,-0.0598859786987304,-175.09365844726562,-69.14932250976562,88.70508575439453,-4.517701148986816,3.953113555908203,-1.1391820907592771
1411.9469332695007,144.7731475830078,-76.27454376220703,-85.34109497070312,-0.9201138019561768,-0.3848097324371338,1.4976577758789062,-119.91641998291016,-39.083343505859375,-102.8940658569336,-19.630638122558597,-0.5973771810531616,-2.889842987060547,-56.54514694213867,-67.33224487304688,-19.07323265075684,3.506559371948242,-3.5640597343444824,6.145310401916504,64.98896789550781,23.72704315185547,64.88735961914062,2.9347715377807617,-12.930177688598633,-4.035597801208496,-175.8103790283203,-68.4309310913086,90.6713409423828,1.4191932678222656,1.3693523406982422,3.883797645568848
1411.9772119522097,151.5614776611328,-76.97515869140625,-92.6864242553711,1.7077598571777344,0.8654946088790894,0.7052230834960938,-125.50252532958984,-33.28473663330078,-92.59586334228516,-10.122032165527344,-3.328803539276123,-5.939421653747559,-61.5659408569336,-65.37843322753906,-9.37036418914795,3.876286506652832,-1.1651761531829834,1.2185888290405271,67.12198638916016,15.491193771362305,56.07635116577149,7.952140808105469,-12.345842361450195,-8.569387435913086,179.86825561523438,-68.48056030273438,94.16912841796876,-2.5066795349121094,2.0329513549804688,1.3511466979980469
1412.0071246623993,157.03140258789062,-78.02141571044922,-97.95046997070312,2.3790125846862797,0.7929551601409912,0.8507480621337891,-132.62753295898438,-28.128162384033203,-82.82671356201172,-2.199129581451416,-1.1762762069702148,-9.886188507080078,-65.44218444824219,-63.8557243347168,-4.496833801269531,2.0736632347106934,-0.1237270236015319,-2.640212059020996,73.62519073486328,8.563905715942383,50.68399429321289,15.49867820739746,-16.733360290527344,-7.802847862243652,176.2119903564453,-68.19393157958984,97.81681823730467,-5.1261138916015625,1.883882522583008,0.4174261093139648
1412.0372159481049,162.2893829345703,-79.39112091064453,-102.3209228515625,1.7914886474609375,0.743096113204956,0.423868179321289,-141.04981994628906,-24.45673370361328,-74.64103698730469,0.3504605889320373,2.1374001502990723,-11.219587326049805,-69.33599090576172,-63.31220626831055,-1.9827691316604612,-2.072347640991211,-0.4406461715698242,-2.577897548675537,83.2253189086914,1.3755496740341189,49.30260848999024,-4.779336929321289,-4.2901458740234375,-2.3974738121032715,175.23280334472656,-68.2012939453125,98.6120834350586,-2.9946441650390625,0.7227270603179932,-1.075246810913086
1412.097320318222,168.21096801757812,-80.8153076171875,-107.55476379394533,-0.1689565777778625,0.6497666835784912,0.4265117645263672,-149.46200561523438,-23.229398727416992,-67.83000946044922,2.584789752960205,1.99540114402771,-9.562625885009766,-70.88880157470703,-63.60546112060547,-1.1286838054656982,-0.8723876476287842,-0.5134921073913574,-3.777502059936523,84.11164855957031,-6.351733684539795,47.060333251953125,-5.109947204589844,-5.89232349395752,-0.6672039031982422,174.3917999267578,-68.24815368652344,99.6820831298828,-0.7086211442947388,1.5805950164794922,-1.8468284606933596
1412.1044964790344,174.57359313964844,-81.94735717773438,-113.6577606201172,0.5451372861862183,-1.5124790668487549,-0.5881376266479492,-155.1211700439453,-25.24930763244629,-61.65938186645508,5.729401588439941,-0.0589059442281723,-5.896042823791504,-72.59358215332031,-64.05896759033203,-1.6922571659088137,-0.2058700025081634,-0.0056336298584938,-4.277782440185547,90.82803344726562,-12.101582527160645,43.17400360107422,0.2247489690780639,-4.4842939376831055,-5.152749061584473,171.6715850830078,-68.64480590820312,102.41542053222656,0.4499198198318481,1.2613234519958496,-3.852394104003906
1412.1572937965393,179.94842529296875,-82.334716796875,-118.55638885498048,-0.861224889755249,-2.767190933227539,-1.0710430145263672,-157.28158569335938,-29.68658828735352,-55.945682525634766,8.193639755249023,-2.0257673263549805,-0.2054939270019531,-73.82710266113281,-64.26795959472656,-3.606816291809082,-2.420888900756836,-0.0347282886505126,-2.762449264526367,103.70364379882812,-16.366342544555664,37.43031311035156,-2.5209174156188965,0.661408543586731,-1.4487686157226562,168.08126831054688,-69.10206604003906,104.65103912353516,1.4523706436157229,0.6945135593414307,-4.892336845397949
1412.1870296001434,-179.97994995117188,-81.57797241210938,-118.36460876464844,0.4879341125488281,-4.240198135375977,-1.4751319885253906,-156.96482849121094,-35.05085754394531,-51.836219787597656,13.713050842285156,-3.631339550018311,-1.4607439041137695,-68.3509292602539,-63.67753219604492,-9.508743286132812,-3.0816335678100586,5.874296188354492,1.1509828567504885,114.48479461669922,-20.26651763916016,28.019746780395508,1.6184778213500977,-0.5975502729415894,-2.066878318786621,163.2185516357422,-69.3063735961914,107.7579116821289,0.6691808700561523,-0.9427675008773804,-3.5394349098205566
1412.2170610427856,177.09974670410156,-79.4978256225586,-113.78524017333984,2.61509370803833,-2.899503231048584,-1.4629487991333008,-152.22193908691406,-38.989505767822266,-50.217567443847656,-0.8268795013427734,2.5824122428894043,18.7646484375,-61.03292465209961,-61.14552688598633,-18.872486114501957,-1.5375494956970217,5.417339324951172,-0.2671413421630859,123.05059814453124,-25.35082626342773,14.947688102722168,8.183465957641602,-1.274015188217163,-2.332277774810791,154.61744689941406,-69.75540161132812,115.43804931640624,-1.2731187343597412,-0.5024173259735107,-5.841916084289551
1412.2472858428955,172.2283477783203,-75.6297378540039,-104.99219512939452,0.968975067138672,-1.09558367729187,-1.807939529418945,-156.48204040527344,-37.19776916503906,-49.77953338623047,7.207688331604004,-9.051191329956056,-5.667342185974121,-52.31056213378906,-57.326202392578125,-28.22740936279297,-1.3246221542358398,1.7918815612792969,-2.699748992919922,130.8527069091797,-32.40412902832031,-0.7849674820899963,15.970550537109377,-7.037502288818359,2.604705810546875,144.3230743408203,-70.2812728881836,125.53998565673828,-1.994619369506836,0.9688912630081176,-3.4249253273010254
1412.2918057441711,169.4148406982422,-70.61890411376953,-96.43484497070312,1.6391847133636477,-1.7172024250030518,-1.719707489013672,-158.9724884033203,-38.73634719848633,-50.922607421875,6.883505821228027,-17.490894317626953,2.4047622680664062,-44.4669189453125,-53.06880187988281,-35.954811096191406,3.64877986907959,2.7468419075012207,-5.93807315826416,132.30453491210938,-40.04955291748047,-16.037397384643555,16.337387084960938,-16.151081085205078,9.80868148803711,133.9639129638672,-70.85755157470703,136.81349182128906,-1.9188897609710691,2.53090763092041,0.021280288696289
1412.3080677986145,167.85421752929688,-65.92423248291016,-91.67279052734376,1.322575330734253,0.4144896864891052,-0.1793651580810547,-161.49481201171875,-38.51242446899414,-52.20257186889648,1.96305251121521,-19.024883270263672,4.259537696838379,-44.2801628112793,-47.03562545776367,-40.335487365722656,-3.5835623741149902,1.062286376953125,6.738729476928711,125.25023651123048,-46.52594375610352,-24.2386474609375,13.726858139038086,-9.126333236694336,7.055997848510742,126.48334503173828,-71.03044128417969,144.7347869873047,0.4899296760559082,2.359881401062012,2.7015552520751958
1412.3374922275543,166.992431640625,-61.25639343261719,-90.10565948486328,0.0860142707824707,-0.0090484749525785,0.9186153411865234,-159.49073791503906,-36.12567901611328,-52.17471694946289,2.7575502395629883,-21.41012954711914,4.255997657775879,-45.577293395996094,-39.56607818603516,-42.90907287597656,-2.520125389099121,0.7568327188491821,11.561452865600586,120.12371063232422,-48.398170471191406,-24.03791618347168,21.81501007080078,-11.437854766845703,0.6267251968383789,125.362548828125,-71.16242980957031,145.87059020996094,-3.903763771057129,3.381755352020264,10.404476165771484
