Timestamp,D4:22:CD:00:05:5D_EulerX,D4:22:CD:00:05:5D_EulerY,D4:22:CD:00:05:5D_EulerZ,D4:22:CD:00:05:5D_FreeAccX,D4:22:CD:00:05:5D_FreeAccY,D4:22:CD:00:05:5D_FreeAccZ,D4:22:CD:00:05:5E_EulerX,D4:22:CD:00:05:5E_EulerY,D4:22:CD:00:05:5E_EulerZ,D4:22:CD:00:05:5E_FreeAccX,D4:22:CD:00:05:5E_FreeAccY,D4:22:CD:00:05:5E_FreeAccZ,D4:22:CD:00:05:6B_EulerX,D4:22:CD:00:05:6B_EulerY,D4:22:CD:00:05:6B_EulerZ,D4:22:CD:00:05:6B_FreeAccX,D4:22:CD:00:05:6B_FreeAccY,D4:22:CD:00:05:6B_FreeAccZ,D4:22:CD:00:05:6E_EulerX,D4:22:CD:00:05:6E_EulerY,D4:22:CD:00:05:6E_EulerZ,D4:22:CD:00:05:6E_FreeAccX,D4:22:CD:00:05:6E_FreeAccY,D4:22:CD:00:05:6E_FreeAccZ,D4:22:CD:00:49:AA_EulerX,D4:22:CD:00:49:AA_EulerY,D4:22:CD:00:49:AA_EulerZ,D4:22:CD:00:49:AA_FreeAccX,D4:22:CD:00:49:AA_FreeAccY,D4:22:CD:00:49:AA_FreeAccZ
2464.1408309936523,-179.1292724609375,-64.34049987792969,-95.35531616210938,0.4362829923629761,1.454254150390625,1.3515214920043943,-150.11129760742188,-63.66574478149414,-34.68411636352539,-0.2928651571273803,0.7615271806716919,-6.570650100708008,15.71416187286377,38.25423049926758,-83.69037628173828,-19.460193634033203,1.128890037536621,-3.3756394386291504,102.5457534790039,-46.8650016784668,62.95051956176758,-6.84083366394043,-4.355459213256836,-3.818882465362549,137.6311492919922,-72.46148681640625,148.20384216308594,0.2012479305267334,2.0421700477600098,1.6201848983764648
2464.143839597702,-178.90640258789062,-67.38758850097656,-95.3890151977539,-0.025909174233675,1.2493696212768557,1.057638168334961,-129.8726348876953,-76.07181549072266,-53.53818893432617,-6.209451675415039,-2.241539478302002,-0.8415870666503906,35.50197219848633,40.163272857666016,-78.56015014648438,-8.929031372070312,5.7707624435424805,-7.896919250488281,92.80860137939452,-56.15614318847656,76.06289672851562,-4.927770614624023,-6.103462219238281,-4.681705474853516,142.82940673828125,-73.83609771728516,145.24935913085938,-0.96660315990448,0.9619886875152588,-1.2948713302612305
2464.14684009552,-178.43409729003906,-71.14495086669922,-95.8642578125,-0.1825416684150695,0.6155976057052612,0.2835330963134765,-73.36060333251953,-82.35481262207031,-114.56745910644533,-15.085023880004885,-1.5887064933776855,3.321574211120605,45.68880462646485,41.65848922729492,-75.70829772949219,0.9519495964050292,4.513090133666992,-8.046529769897461,78.93003845214844,-63.73955154418945,95.12584686279295,-2.268949508666992,-4.257376670837402,-7.0062761306762695,150.1291961669922,-74.902099609375,140.24058532714844,-1.6045682430267334,0.791945219039917,-3.169503688812256
2464.149839639664,-176.736328125,-74.96397399902344,-98.18682098388672,-0.890588641166687,-0.2826824188232422,-0.4470062255859375,-40.62534332275391,-78.85664367675781,-158.57931518554688,-23.256298065185547,-2.1525521278381348,-0.1607990264892578,48.3198471069336,44.829471588134766,-76.57349395751953,4.45559024810791,-0.7569524049758911,-7.901126861572266,61.80168914794922,-67.86851501464844,120.56281280517578,-3.8794608116149902,-7.701766967773437,-6.659958839416504,154.90579223632812,-75.67156982421875,137.48638916015625,0.1809223294258117,1.1986079216003418,-4.670929908752441
2464.2249670028687,167.454345703125,-63.491336822509766,40.14545822143555,-2.426236629486084,2.1403980255126958,3.486083984375,169.58837890625,-73.53968811035156,4.86984920501709,4.98215389251709,-1.9288523197174072,9.75732421875,-54.18535232543945,6.4244160652160645,-57.89861297607422,14.550252914428713,-1.0295891761779783,27.52081298828125,-170.51690673828125,-82.87850952148438,-64.21469116210938,4.449629783630371,0.0594164505600929,17.350387573242188,90.52546691894533,-65.35853576660156,-171.4654998779297,-5.349972724914551,-6.445968627929688,7.727500915527344
2464.2549817562103,175.52163696289062,-57.84379196166992,33.9233283996582,-2.030599594116211,-1.5776269435882568,2.1747751235961914,-178.12828063964844,-81.8059310913086,-4.258138179779053,4.338079452514648,6.755356788635254,4.955916404724121,-37.01802444458008,11.716513633728027,-53.29603958129883,10.527645111083984,-7.923708915710449,27.244903564453125,-117.9191436767578,-81.48155212402344,-114.69332885742188,1.2622807025909424,-3.8205857276916495,16.819522857666016,116.0155029296875,-68.84143829345703,164.1290740966797,-9.627891540527344,-6.51146125793457,11.482147216796877
2464.3145110607147,178.0074005126953,-54.985496520996094,32.83271408081055,-1.8078579902648928,-0.3644495010375976,2.240241050720215,-74.92279052734375,-80.51715850830078,-106.8924789428711,3.535466194152832,5.096846580505371,1.3262100219726562,-18.583789825439453,16.658340454101562,-43.23494720458984,2.8503289222717285,-13.43153953552246,16.370834350585938,-54.512020111083984,-78.71725463867188,-165.4542236328125,-16.490814208984375,1.3729913234710691,13.44626235961914,156.9371795654297,-71.45913696289062,126.86509704589844,-4.102015495300293,-1.0805656909942627,11.26652717590332
2464.3445341587067,178.84251403808594,-54.62400817871094,32.97295379638672,-0.74720299243927,-1.434830665588379,2.760726928710937,-43.12004470825195,-67.39969635009766,-141.42129516601562,18.47638320922852,0.5673375129699707,-0.8308792114257812,-0.2855136394500732,18.615671157836918,-33.91457748413086,-8.22746467590332,-12.953863143920898,5.615718841552734,-54.07961654663086,-83.52891540527344,-157.52664184570312,-11.211597442626951,-4.92600154876709,9.922035217285156,-177.52345275878906,-71.25143432617188,104.45822143554688,-0.9912651777267456,3.0849413871765137,10.521432876586914
2464.3750627040863,178.670654296875,-56.68703079223633,33.61482238769531,-1.1406047344207764,-1.812544822692871,3.497195243835449,-25.970325469970703,-44.0054817199707,-166.0299835205078,0.0528356656432151,-9.515802383422852,3.192996025085449,12.689359664916992,19.345787048339844,-28.67378044128418,-10.942373275756836,-10.907455444335938,-2.3719687461853027,-73.07785034179688,-84.83502960205078,-131.54693603515625,-3.61499547958374,-2.0090107917785645,4.557690620422363,-159.59280395507812,-71.9347915649414,89.71194458007812,-2.836710929870605,1.1820096969604492,11.126958847045898
2464.405062437057,177.55870056152344,-61.11835861206055,35.636817932128906,-1.2850854396820068,0.8031531572341919,6.995296478271484,-21.659343719482425,-19.074352264404297,177.0155487060547,-57.66545867919922,-7.296521186828613,3.9040136337280273,15.853625297546388,19.535877227783203,-26.801692962646484,-8.09841537475586,-2.92724609375,-5.450473785400391,-74.83161163330078,-77.7444076538086,-116.50051879882812,-8.926204681396484,-9.08462905883789,-2.021831512451172,-140.2489776611328,-72.63678741455078,75.0278549194336,0.110404223203659,0.4543799161911011,4.917366981506348
2464.435055732727,173.26815795898438,-69.34705352783203,34.7527961730957,-0.7824113368988037,2.0069618225097656,7.170988082885742,-12.694476127624512,-6.808423042297363,167.23191833496094,-32.752220153808594,29.83044815063477,-41.63888549804688,11.174662590026855,21.21810913085937,-29.1894588470459,-3.115281581878662,-1.1011507511138916,-7.681720733642578,-74.03372955322266,-68.2907485961914,-103.98403930664062,-3.90632963180542,-10.845651626586914,-9.840343475341797,-122.802978515625,-72.40902709960938,63.1005744934082,2.402039051055908,-0.3613036274909973,-4.066069602966309
2464.464622020721,172.2770233154297,-69.5794448852539,29.2198543548584,-21.23998641967773,-3.557814598083496,-4.441485404968262,-1.1711267232894895,-10.062175750732422,168.99160766601562,-7.330067634582519,-8.504753112792969,-34.41755676269531,12.10544204711914,25.50003433227539,-36.099754333496094,-3.206697940826416,0.3023161888122558,-10.437917709350586,-73.03921508789062,-60.02028274536133,-95.45928955078124,1.3912527561187744,-11.045154571533203,-10.29918098449707,-115.57755279541016,-71.89888763427734,60.336334228515625,3.4427266120910645,2.583674430847168,-12.177370071411133
2464.494621992111,-179.50631713867188,-63.86443328857422,25.435646057128903,6.919297218322754,6.819632530212402,-17.310611724853516,-7.26854133605957,-19.294469833374023,172.50286865234375,-2.006577491760254,4.529778480529785,-18.892593383789062,15.09656047821045,30.06864547729492,-47.12980651855469,-0.7875059843063354,3.220973491668701,-13.240381240844728,-72.01428985595703,-58.66110229492188,-92.3203353881836,1.5414669513702393,-10.066822052001951,-16.160633087158203,-115.52594757080078,-73.08590698242188,62.56283950805664,0.8701107501983643,1.7427644729614258,-11.503049850463867
2464.52462220192,-170.10780334472656,-64.82096862792969,17.510419845581055,6.84501838684082,-12.907556533813477,-0.8603639602661133,-14.262181282043455,-27.616634368896484,177.3399200439453,-12.666784286499023,3.440742492675781,-11.478662490844728,12.761229515075684,32.13214874267578,-62.51675796508789,3.7250075340271,-2.413698673248291,-12.571044921875,-68.57622528076172,-63.35724639892578,-92.50798034667967,3.3831520080566406,-5.56241512298584,-11.913002014160156,-108.15850830078124,-75.99222564697266,56.01727294921875,-1.3203601837158203,-2.7636070251464844,-10.389581680297852
2464.555150270462,-171.35281372070312,-65.00594329833984,15.566916465759276,13.816022872924805,-7.490727424621582,-8.752695083618164,-25.47261047363281,-36.283294677734375,-176.1820068359375,-11.258787155151367,-7.982319831848144,-12.837646484375,3.4821901321411133,30.9907169342041,-80.96027374267578,3.2966933250427246,-12.20050048828125,-17.355525970458984,-53.15225982666016,-68.25639343261719,-100.89332580566406,1.3825452327728271,-3.3426880836486816,-2.868938446044922,-97.86724090576172,-76.79402923583984,48.88131713867188,-1.461418867111206,-7.4789838790893555,-6.435450553894043
2464.6141653060918,-171.13186645507812,-65.298583984375,18.57978820800781,11.690225601196287,-5.430634498596191,3.211575508117676,-40.12130355834961,-45.05502700805664,-170.19049072265625,-10.800142288208008,-2.8439574241638184,-11.007144927978516,-3.282169818878174,27.44866371154785,-99.71253967285156,-12.29901885986328,-19.21957397460937,-19.776256561279297,-30.231182098388672,-70.73880767822266,-115.24475860595705,1.7661070823669434,-7.700583457946777,-1.7278223037719729,-91.3104019165039,-76.0811767578125,46.20267868041992,4.429078102111816,7.76023006439209,2.7602052688598637
2464.674707174301,-172.14984130859375,-65.82868957519531,23.54053497314453,-0.9500130414962769,4.628355979919434,4.452836036682129,-52.63805389404297,-53.62802505493164,-163.53846740722656,-8.008428573608398,-2.723813533782959,-11.480720520019531,-1.300283670425415,24.488113403320312,-107.97489166259766,-0.8345146179199219,14.751598358154297,-14.804672241210938,-9.49581813812256,-71.36140441894531,-128.5029296875,-0.0646740943193435,-7.619936943054199,0.8164777755737305,-86.93653106689453,-76.43807983398438,39.28679656982422,6.30135440826416,9.423845291137695,-2.5232744216918945
2464.677698850632,-176.0048370361328,-66.5020751953125,28.635507583618164,-3.8383922576904297,3.3884072303771973,0.2828617095947265,-70.78709411621094,-62.098052978515625,-150.8136749267578,-22.994606018066406,9.46701431274414,-11.682151794433594,-11.79337215423584,22.65095329284668,-101.07195281982422,-1.6019062995910645,4.981780052185059,-11.175302505493164,5.570329189300537,-71.72003936767578,-137.4600372314453,0.4741473793983459,-4.334733963012695,-0.8513641357421875,-97.07364654541016,-78.51273345947266,43.15220260620117,0.6542972326278687,-5.088960647583008,1.7050867080688477
2464.704705953598,177.51681518554688,-67.17396545410156,34.04232406616211,0.0275221839547157,-0.4536955952644348,-1.9281001091003416,-84.30509185791016,-66.39105224609375,-136.8645477294922,11.133399963378906,-10.120994567871094,4.242869377136231,-16.1119384765625,22.39106750488281,-92.35301971435548,0.2699306011199951,-6.300885200500488,-9.007030487060547,18.809499740600582,-72.52082061767578,-143.8121795654297,2.830397129058838,-2.000554084777832,-2.7966222763061523,-104.1289291381836,-80.23704528808594,45.653018951416016,-5.080379486083984,-4.211709022521973,1.6085071563720703
2464.734706401825,172.3206787109375,-67.6273193359375,39.95780944824219,-0.2762764692306518,1.6549291610717771,-0.1979837417602539,-83.25675201416016,-69.49658203125,-131.8307342529297,-3.000905990600586,-8.715282440185547,9.685749053955078,-10.992259979248049,21.386032104492188,-82.73990631103516,2.605804443359375,-3.9865918159484863,-13.368995666503906,26.90719985961914,-73.54000091552734,-144.794921875,5.010562896728516,-1.6455743312835691,-5.311731338500977,-105.5732879638672,-80.69082641601562,45.501224517822266,-4.095440864562988,-2.2082815170288086,-5.301082611083984
2464.7642555236816,168.24832153320312,-68.32759094238281,47.18984603881836,-0.2496858239173889,-1.679584264755249,-1.8863863945007324,-95.71907806396484,-71.68868255615234,-120.03228759765624,-7.908015251159668,-8.748241424560547,3.426701545715332,-12.458619117736816,20.19206428527832,-68.83016967773438,-4.545499801635742,-14.985984802246094,-9.181869506835938,25.058429718017575,-75.7760009765625,-140.17913818359375,6.328256607055664,-4.587643623352051,-3.8219380378723145,-106.33513641357422,-80.56495666503906,47.353660583496094,0.3211326599121094,-0.6357239484786987,-3.235203742980957
2464.795258283615,162.13072204589844,-68.78018951416016,54.78091049194336,0.4372472167015075,-1.8863396644592283,-3.502836227416992,-102.09593963623048,-72.64997863769531,-113.49134063720705,-4.988857269287109,-0.1535188555717468,-2.1207380294799805,-12.809375762939451,19.37932777404785,-54.62441253662109,-2.702188014984131,-10.582563400268556,-6.8994340896606445,9.841991424560549,-79.04832458496094,-130.2311553955078,4.528280258178711,-6.298959732055664,-1.2721929550170898,-111.2912826538086,-80.86756896972656,50.34915542602539,4.552247047424316,0.5114085674285889,-2.614041328430176
2464.8243820667267,154.6960906982422,-68.93189239501953,60.63540649414063,1.6448876857757568,1.878093957901001,2.271916389465332,-109.04888153076172,-71.24546813964844,-107.12934112548828,-6.105008125305176,0.850318193435669,2.6745996475219727,-10.383068084716797,17.58834457397461,-41.09199523925781,-3.1834583282470703,-3.1273579597473145,1.8242664337158203,-18.779373168945312,-82.76356506347656,-113.49162292480467,0.7346224784851074,-5.8905229568481445,-0.4400215148925781,-122.82005310058594,-80.42640686035156,56.93060302734375,7.340939521789551,0.7725253105163574,-4.529330253601074
2464.854478597641,144.80081176757812,-67.60912322998047,65.44276428222656,5.694875717163086,8.420045852661133,8.706878662109375,-112.73302459716795,-71.64763641357422,-104.285888671875,-1.4416940212249756,3.15170955657959,3.681463241577149,-6.354797840118408,14.330399513244627,-28.722028732299805,-4.691950798034668,1.8571343421936035,2.771492958068848,-49.96890258789063,-85.50739288330078,-95.34288787841795,0.044754222035408,-1.1801509857177734,7.244926452636719,-130.5482177734375,-78.8477783203125,62.77762222290039,3.443204879760742,-0.124914675951004,2.357625961303711
2464.9150171279907,139.9937286376953,-64.6626968383789,63.64424133300781,-4.853046417236328,2.1097617149353027,10.29899787902832,-112.28196716308594,-74.8050765991211,-103.3563232421875,-4.103510856628418,0.7630040645599365,1.4461822509765625,-1.4551626443862915,8.466436386108398,-16.96930694580078,-0.5574016571044922,11.006311416625977,-1.0907373428344729,-37.20980072021485,-85.82890319824219,-110.50208282470705,-2.4729156494140625,4.1777448654174805,4.493144989013672,-133.03143310546875,-76.57499694824219,67.50801849365234,0.09736268222332,-2.328972339630127,5.163634300231934
2464.9450318813324,135.86618041992188,-59.94306564331055,57.08831405639648,-15.152647018432615,-0.1494132578372955,10.417301177978516,-105.32654571533205,-78.77142333984375,-108.23226165771484,-4.775730133056641,-0.9810677766799928,-0.2677555084228515,-12.899157524108888,-0.108236163854599,-6.733557224273682,-4.629812240600586,37.79847717285156,-13.210559844970703,-4.547634124755859,-84.11090850830078,-135.55299377441406,-2.308926582336426,-3.072493076324463,1.7211990356445312,-133.97918701171875,-74.77742767333984,68.67559051513672,4.283466339111328,6.4445085525512695,2.186448097229004
2464.974571228028,141.31234741210938,-51.1782341003418,49.13428497314453,-18.42302703857422,2.2390589714050293,5.949003219604492,-90.10211181640624,-81.24837493896484,-121.24701690673828,-5.779003143310547,-3.988265037536621,-2.709181785583496,-49.46525573730469,-11.268245697021484,1.0950599908828735,-0.7470965385437012,-5.848681449890137,-8.115203857421875,18.673303604125977,-81.51265716552734,-148.37753295898438,-0.1717564463615417,-7.431843757629394,3.468534469604492,-135.0919189453125,-72.56828308105469,71.07838439941406,8.339546203613281,7.36823558807373,4.816710472106934
2465.0046558380127,148.5745849609375,-41.1512565612793,40.95718765258789,-6.736309051513672,-0.3942650556564331,2.183588981628418,-79.48516845703125,-82.2502212524414,-131.03485107421875,-3.4114255905151367,-2.3773088455200195,-2.1483964920043945,-63.867431640625,-22.772294998168945,7.849847793579102,-7.164700508117676,-1.8651354312896729,14.037515640258787,26.041208267211918,-79.3955307006836,-150.1551055908203,0.9122655391693116,-9.689165115356444,5.336116790771484,-136.7426300048828,-71.59417724609375,76.2282485961914,5.096877098083496,0.8388599157333374,6.792736053466797
2465.03465628624,154.43145751953125,-31.100563049316406,33.94988250732422,-0.1777472198009491,0.3067448139190674,-6.597392082214356,-79.1829605102539,-82.72235870361328,-131.15126037597656,-2.7756824493408203,-2.801145553588867,-2.281027317047119,-67.13812255859375,-34.43824005126953,16.8282527923584,-2.583781719207764,7.440884590148926,-3.1554579734802246,26.523590087890625,-78.13457489013672,-149.96560668945312,0.6895599365234375,-5.741861343383789,0.8188457489013672,-136.83226013183594,-71.42017364501953,79.15447235107422,3.296151161193848,2.7205958366394043,2.90085506439209
2465.065218448639,159.86065673828125,-22.69515419006348,28.501888275146484,2.675065040588379,-0.5804022550582886,-11.23861312866211,-95.28104400634766,-82.26432037353516,-114.57672882080078,-2.2797350883483887,-4.577165603637695,-3.7922792434692383,-80.88724517822266,-45.43849563598633,30.86365509033203,3.2371950149536133,5.501650810241699,-2.9487972259521484,29.198875427246094,-77.45882415771484,-153.3772735595703,1.324521780014038,-2.174269199371338,-2.9246177673339844,-134.1395721435547,-71.781005859375,78.03030395507812,3.910484790802002,3.388580799102783,-3.0974974632263184
2465.095214366913,164.49961853027344,-17.41547393798828,24.0661735534668,4.351717948913574,0.6245479583740234,-14.051877975463867,-119.20494079589844,-79.72611236572266,-90.74822998046876,-2.422339916229248,-2.8447985649108887,-1.963661193847656,-104.5790786743164,-55.998321533203125,51.35654830932617,1.1781973838806152,8.87203598022461,11.179414749145508,37.74483489990234,-76.14502716064453,-161.6105194091797,2.099066734313965,-1.122720718383789,-4.806537628173828,-134.33099365234375,-72.69087982177734,79.05635833740234,3.9766650199890137,2.713505268096924,-6.205389022827148
2465.125204563141,167.59234619140625,-16.25299835205078,19.563034057617188,9.40891456604004,-2.90170955657959,-16.031757354736328,-133.45469665527344,-75.54896545410156,-76.0506362915039,-4.7454986572265625,-2.670199394226074,-2.962174892425537,-127.23545837402344,-66.82035827636719,79.396728515625,-10.099157333374023,11.60312843322754,23.15362930297852,48.422481536865234,-73.27950286865234,-171.3199462890625,2.650914669036865,-3.0921454429626465,-4.479466438293457,-135.29225158691406,-73.24372863769531,79.91313171386719,2.823204517364502,0.835677981376648,-6.720161437988281
2465.154215335846,163.31979370117188,-19.92981719970703,15.97624683380127,11.61968231201172,-6.615908622741699,-13.689619064331056,-141.00608825683594,-71.69845581054688,-68.99463653564453,-6.039068222045898,-3.222261428833008,-1.8606672286987305,-140.1661834716797,-75.5212631225586,113.30226135253906,-9.691547393798828,0.8223834037780762,17.325145721435547,59.95975112915039,-68.73991394042969,178.19203186035156,2.2811079025268555,-4.593450546264648,-2.529382705688477,-134.20281982421875,-73.63076782226562,78.09941101074219,2.8930411338806152,0.1383612155914306,-5.935829162597656
2465.214748859405,159.0682373046875,-26.17561149597168,13.709342002868652,2.6514334678649902,5.213361740112305,5.028323173522949,-144.655029296875,-68.67194366455078,-66.36923217773438,-5.286465644836426,0.118094190955162,-0.5461606979370117,-99.6480941772461,-79.01567077636719,97.48927307128906,11.56246566772461,13.972230911254885,0.2555351257324219,74.38375091552734,-62.2064323425293,167.69027709960938,-0.0533189252018928,-4.237069129943848,-2.797358512878418,-131.8648681640625,-74.49478149414062,74.53909301757812,1.311826229095459,0.7888038158416748,-5.084709167480469
2465.244775533676,158.1979522705078,-27.24638557434082,12.78763484954834,25.809127807617188,-2.9013218879699707,6.524616241455078,-146.90188598632812,-67.008056640625,-64.84468841552734,-3.577898979187012,-0.6074732542037964,3.100775718688965,-68.65601348876953,-73.24617004394531,70.0669174194336,13.47990608215332,23.15102767944336,-4.497796058654785,94.74723815917967,-53.07959365844727,159.37416076660156,0.3222306370735168,-4.220972061157227,-2.1446824073791504,-128.45306396484375,-75.39762878417969,70.77554321289062,-1.6100776195526123,2.342038631439209,-2.122631549835205
2465.2752990722656,163.4524688720703,-22.964500427246094,17.138505935668945,17.510387420654297,-6.794922828674316,14.74928092956543,-148.45684814453125,-67.09294128417969,-63.44210433959961,-5.478808403015137,-0.497429609298706,1.2750396728515625,-73.98766326904297,-65.29840087890625,56.654258728027344,11.092918395996094,3.377830982208252,7.211015701293945,113.25267028808594,-41.61629486083984,155.64892578125,11.105268478393556,-11.824840545654297,11.119243621826172,-128.53500366210938,-75.26435852050781,71.02815246582031,1.9366981983184812,-0.8026895523071289,4.261289596557617
2465.305305480957,166.63308715820312,-15.13673973083496,22.28046417236328,18.60573959350586,4.493056297302246,10.01662254333496,-147.67098999023438,-68.7220687866211,-64.81214141845703,-7.125153541564941,-1.843632936477661,0.4699411392211914,-82.78761291503906,-57.254005432128906,44.49375534057617,9.23708724975586,1.8694829940795896,8.299684524536133,118.47997283935548,-28.08849334716797,152.95411682128906,22.57154083251953,-7.512565612792969,22.628829956054688,-130.5365447998047,-75.12201690673828,72.00182342529297,3.250609874725342,-1.839045524597168,5.893702507019043
2465.3353073596954,163.31521606445312,-7.883729934692383,25.26314926147461,16.29155731201172,1.4963350296020508,4.521636962890625,-142.7401885986328,-71.30872344970703,-71.73626708984375,-7.476122856140137,-2.5775375366210938,1.848031044006348,-87.28216552734375,-50.983211517333984,35.305423736572266,6.853139877319336,1.58735990524292,7.235239028930664,110.48957061767578,-11.87009048461914,149.1951904296875,17.68701934814453,5.7084245681762695,31.382434844970703,-130.87210083007812,-75.38795471191406,71.89762115478516,4.339079856872559,3.5417847633361816,9.56586456298828
2465.364857912064,158.6503143310547,-3.288144588470459,26.10558319091797,8.046825408935547,1.1190283298492432,-5.111507415771484,-132.6646728515625,-74.12810516357422,-84.85537719726562,-4.773225784301758,-5.2504730224609375,6.999576568603516,-87.41291809082031,-48.45732498168945,30.693845748901367,3.367848873138428,2.0278759002685547,5.946820259094238,93.1371612548828,5.012191295623779,144.33242797851562,-1.0099563598632812,5.607932090759277,17.23810577392578,-131.78819274902344,-76.59703063964844,72.16336059570312,5.641864776611328,4.3689727783203125,10.279014587402344
2465.394849538803,157.88645935058594,-2.744036912918091,25.535362243652344,4.783684730529785,-0.6285171508789062,-8.847461700439453,-111.28668975830078,-77.67325592041016,-106.12935638427734,-0.3624108433723449,-11.728437423706056,7.385593414306641,-88.71603393554688,-49.7453727722168,29.48343086242676,-0.1258696913719177,2.2517127990722656,1.8294744491577148,76.77552032470703,16.850322723388672,139.4314727783203,-4.059117317199707,-5.249515533447266,7.593679428100586,-135.6649169921875,-78.0775375366211,74.55149841308594,4.553062438964844,3.720879077911377,7.83612060546875
2465.424856901169,158.8595428466797,-7.299328327178955,24.406831741333008,4.819061279296875,-2.8701229095458984,-10.036020278930664,-72.73785400390625,-78.50424194335938,-137.2831268310547,-6.670283317565918,0.1020383536815643,-8.942785263061523,-92.88339233398438,-53.55866622924805,31.18794822692871,-3.28287410736084,2.256613254547119,-0.0192394256591796,62.55144500732422,22.57463836669922,135.1982421875,-6.883003234863281,-14.509668350219728,0.9800662994384766,-145.57276916503906,-79.04119110107422,82.03438568115234,3.81639575958252,2.525153160095215,5.363614082336426
2465.4548728466034,157.0217742919922,-16.855674743652344,23.260103225708008,5.962591171264648,-4.09699821472168,-10.13919448852539,-60.26050567626953,-78.15966796875,-147.70172119140625,0.2063916623592376,1.3832311630249023,-8.822237014770508,-97.04474639892578,-57.82423782348633,33.869564056396484,-3.680983543395996,3.532379150390625,-2.24515438079834,50.82152938842773,23.99829864501953,132.0582733154297,-1.3652729988098145,-11.342748641967772,-8.472476959228516,-161.54193115234375,-79.51060485839844,94.82315063476562,3.2264537811279297,1.755084753036499,-0.0085506439208984
2465.5144124031067,151.99440002441406,-29.939430236816406,22.974199295043945,5.776791572570801,-0.3418363332748413,-10.197626113891602,-52.70640563964844,-78.27941131591797,-159.61968994140625,-5.234103202819824,-3.8305273056030273,-10.505937576293944,-99.49397277832033,-61.88644027709961,35.23868179321289,-4.3341827392578125,2.2095680236816406,-5.80010986328125,44.92350006103516,24.765968322753903,132.1156463623047,-0.6455879211425781,-3.872213363647461,-10.12494659423828,-177.24034118652344,-79.0294418334961,107.0719223022461,0.7759264707565308,-0.0992418229579925,-5.197975158691406
2465.544432401657,148.0688018798828,-45.263160705566406,24.110963821411133,6.307655334472656,1.1486687660217283,-5.456530570983887,-54.43928527832031,-77.47564697265625,-161.94720458984375,-10.908231735229492,15.71266746520996,-3.520833969116211,-101.696533203125,-65.55620574951172,36.56617736816406,-3.302808284759521,0.2105082273483276,-7.7756195068359375,41.070011138916016,27.37196350097656,135.12799072265625,-4.27684497833252,-3.090167999267578,-10.048471450805664,174.17494201660156,-77.46346282958984,113.10372924804688,-0.957160234451294,-0.2537720203399658,-7.470171928405762
2465.5749547481537,144.38194274902344,-62.52699661254883,26.658666610717773,5.382718086242676,2.9094715118408203,3.1902284622192383,-62.29023361206055,-77.34056854248047,-156.3689727783203,-0.4838852286338806,-1.545457124710083,-6.357568740844727,-104.40289306640624,-68.01272583007812,38.124290466308594,-1.9961028099060056,1.3330156803131104,-8.494466781616211,34.60670852661133,31.47227668762207,140.71885681152344,-4.987914085388184,-3.437715530395508,-12.654729843139648,169.08705139160156,-76.65343475341797,116.75952911376952,-0.0061003668233752,1.2706341743469238,-9.573875427246094
2465.6049551963806,130.6546630859375,-80.55366516113281,40.38935470581055,-0.4302884936332702,1.988288164138794,14.287805557250977,-68.2528076171875,-77.52337646484375,-152.0558319091797,-3.8968424797058105,-5.778256416320801,-2.320556163787842,-106.2914047241211,-69.37309265136719,38.92602157592773,-2.102921962738037,2.3733439445495605,-7.6721343994140625,27.191707611083984,36.18585968017578,149.67425537109375,-3.66697359085083,-2.5626463890075684,-15.843408584594728,163.2066650390625,-77.25076293945312,120.84041595458984,0.8177224397659302,1.1187145709991455,-11.598566055297852
2465.6349551677704,4.208636283874512,-81.66263580322266,170.4650421142578,-10.936214447021484,3.996271133422852,8.833724975585938,-77.29838562011719,-77.63642120361328,-145.61209106445312,-4.167844772338867,-6.121735572814941,0.3627433776855469,-106.41316986083984,-69.7922134399414,38.32860565185547,-3.4581918716430664,3.590579032897949,-5.642481803894043,22.568153381347656,40.57242584228516,163.07203674316406,-10.529905319213867,-2.268483638763428,-21.176803588867188,159.0645294189453,-77.75363159179688,122.60509490966795,1.0023741722106934,-0.8498557806015015,-9.402225494384766
2465.6645045280457,6.180781841278076,-74.81880950927734,175.14854431152344,-23.720802307128903,-16.54886245727539,-27.75030899047852,-77.84159088134766,-77.34323120117188,-145.8126220703125,-3.781016349792481,-1.5512948036193848,8.043346405029297,-103.57843017578124,-70.18772888183594,36.70794296264648,-2.478069305419922,5.4394941329956055,-4.54864501953125,20.46031188964844,44.52066421508789,177.13858032226562,-9.264528274536133,0.167589783668518,-23.420021057128903,159.24331665039062,-77.88981628417969,120.65859985351562,1.2951905727386477,-3.0654454231262207,-4.69954776763916
2465.694505214691,17.781192779541016,-75.9391098022461,162.41937255859375,-16.133079528808594,-0.8972811698913574,-3.653329849243164,-71.59898376464844,-76.07371520996094,-151.55612182617188,-5.697766304016113,-3.282299041748047,6.318113327026367,-100.6126480102539,-71.22541809082031,35.36062240600586,-1.6681663990020752,4.690835952758789,-3.1685233116149902,26.4058895111084,47.34907531738281,-179.84918212890625,4.92409610748291,7.407426834106445,-7.36569881439209,166.1013641357422,-77.50836944580078,113.26300811767578,4.186831474304199,-2.7818198204040527,-0.4783697128295898
2465.724505662918,43.66123580932617,-77.87832641601562,136.70884704589844,-18.80246353149414,2.192032814025879,0.301548957824707,-60.50873565673828,-73.54959869384766,-160.2179412841797,-2.938920497894287,-4.514299392700195,4.883209228515625,-102.00863647460938,-72.8776626586914,36.68968963623047,0.0839450359344482,4.656681060791016,1.0451364517211914,40.54410171508789,50.54719161987305,169.0689239501953,3.163844585418701,-4.160066604614258,-6.894881248474121,173.33665466308594,-76.90215301513672,105.50643920898438,0.1652922928333282,2.253232002258301,6.542463302612305
2465.7545235157013,86.48358917236328,-77.83849334716797,97.52881622314452,-13.584794998168944,11.763351440429688,2.5098876953125,-48.04579925537109,-70.08673095703125,-165.69503784179688,-1.713141679763794,-5.331124305725098,-0.7527389526367188,-111.22479248046876,-73.57549285888672,43.83259582519531,-5.972887992858887,4.856732368469238,8.448415756225586,46.72389602661133,52.15827560424805,148.83267211914062,-3.824103832244873,-9.00925636291504,-12.391639709472656,-178.60659790039062,-77.10069274902344,98.8431167602539,2.719303131103516,2.6801834106445312,7.477775573730469
2465.815060377121,108.78675842285156,-77.57230377197266,75.85504150390625,12.03901481628418,7.002047538757324,4.251138687133789,-45.883419036865234,-67.3531723022461,-160.73922729492188,-7.409476280212402,-4.438512802124023,3.555570602416992,-122.50196838378906,-72.89874267578125,58.93629455566406,-4.700351715087891,4.842496871948242,10.84929656982422,35.066070556640625,46.366485595703125,123.58697509765624,-15.552104949951172,-1.9823951721191408,-19.63116455078125,-169.89356994628906,-76.39189147949219,93.10088348388672,9.295804977416992,-0.8951250314712524,9.602483749389648
2465.8450684547424,114.52828216552734,-82.03794860839844,62.848731994628906,3.301459789276123,-7.622209548950195,9.693559646606444,-49.69755935668945,-66.82376098632812,-148.34413146972656,-37.12244415283203,-2.189633846282959,-8.78929328918457,-125.12670135498048,-70.27326965332031,70.10572814941406,0.5324289798736572,5.244320869445801,4.268010139465332,25.064268112182617,36.9209098815918,107.42292785644533,-6.344564437866211,1.7578191757202148,-8.44647216796875,-164.41091918945312,-76.7254409790039,90.8577117919922,1.2439227104187012,-1.8980164527893064,-0.1699104309082031
2465.874620437622,131.2239990234375,-83.28694152832031,45.94371795654297,6.518270492553711,-0.612442135810852,2.16802978515625,-68.24373626708984,-68.42698669433594,-124.69320678710938,-24.431602478027344,-5.883491516113281,-5.092950820922852,-122.417236328125,-65.7958984375,71.52204895019531,-0.9773881435394288,3.08363676071167,1.2126531600952148,21.23325538635254,27.412872314453125,97.18961334228516,2.544346332550049,0.8216027021408081,-5.48813533782959,-162.17779541015625,-75.6690902709961,92.58729553222656,-4.453122138977051,-0.6850919723510742,-3.495157241821289
2465.90468287468,149.86972045898438,-82.54148864746094,34.32707977294922,0.6588693857192993,-0.4868830442428589,-3.4265942573547363,-90.69564819335938,-67.94413757324219,-96.52012634277344,-12.888404846191406,-2.2811288833618164,-9.748367309570312,-117.61544799804688,-61.49995422363281,69.65545654296875,3.509018898010254,1.162299871444702,-3.5059847831726074,29.59300422668457,20.0485782623291,91.35881042480467,19.42251205444336,-5.405849456787109,-0.4490079879760742,-163.48806762695312,-73.40673828125,99.0809555053711,-4.064728736877441,-1.3122045993804932,-4.8802032470703125
2465.9346828460693,164.8415069580078,-81.4612808227539,21.59488296508789,0.8073948621749878,9.67006492614746,3.6567611694335938,-111.89678192138672,-64.29005432128906,-70.29859924316406,-4.308412551879883,-2.176033496856689,-14.217512130737305,-116.6916275024414,-58.12993240356445,68.0428466796875,2.2129101753234863,-0.3558357357978821,-4.983187675476074,47.83953857421875,17.26834487915039,89.96147155761719,13.299434661865234,3.51211166381836,6.752052307128906,-167.3861541748047,-71.76309204101562,106.79518127441406,-0.2683120965957641,-0.4904899001121521,-4.157212257385254
2465.9643936157227,172.0878143310547,-79.44084167480469,14.762370109558104,-2.1186118125915527,4.214545249938965,-0.6759796142578125,-129.95062255859375,-59.29570007324219,-51.60429763793945,3.335942268371582,3.147426128387451,-15.6434326171875,-120.81853485107422,-57.90535354614258,68.40571594238281,-1.0621633529663086,-0.5318664312362671,-3.704944133758545,68.23213958740234,19.58063316345215,94.72692108154295,9.367073059082031,-8.028106689453125,1.4028959274291992,-168.87930297851562,-69.63561248779297,109.5676727294922,-0.609948992729187,1.919017314910889,3.4158449172973637
2465.994395017624,177.1555633544922,-78.47508239746094,12.832630157470703,-2.3280272483825684,3.1645960807800293,0.8123540878295898,-143.05429077148438,-55.82590866088867,-39.73996353149414,1.214569330215454,6.3375654220581055,-11.793685913085938,-126.71131134033205,-61.00420379638672,69.5511703491211,0.4101602435111999,0.3459485173225403,-1.000652313232422,88.587646484375,19.779897689819336,102.42281341552734,-6.231991767883301,-16.66421127319336,7.709781646728516,-169.2440185546875,-67.6186294555664,110.35488891601562,-4.833818435668945,0.8970880508422852,3.9922685623168954
2466.02439403534,-179.48988342285156,-78.95437622070312,11.82192039489746,-0.2341616749763488,-5.113736152648926,2.3382606506347656,-152.1527099609375,-55.01640319824219,-31.02495002746582,2.3710379600524902,2.65835189819336,-6.038448333740234,-135.34471130371094,-63.79370880126953,67.28121948242188,-11.25855827331543,0.1460537910461425,5.751232147216797,100.31411743164062,14.479994773864746,104.91472625732422,-3.5520639419555664,-13.18277359008789,4.568384170532227,-170.17446899414062,-67.19241333007812,112.15679931640624,-3.778592109680176,3.775749683380127,1.5491132736206057
2466.0544118881226,-172.82713317871094,-79.94642639160156,5.296398639678955,2.618107318878174,-5.677095413208008,0.6236200332641602,-156.32955932617188,-57.91006851196289,-24.793092727661133,7.72831916809082,3.297371387481689,-0.848637580871582,-134.91989135742188,-66.8670883178711,61.40663146972656,-6.229621887207031,0.7171194553375244,0.8145570755004883,106.60639190673828,4.725812911987305,101.56266784667967,-2.474693298339844,-5.278538703918457,-1.1532135009765625,-172.85499572753906,-66.88745880126953,114.32324981689452,-1.2530560493469238,3.882016181945801,0.0952653884887695
2466.114485025406,-164.3368682861328,-80.21870422363281,-3.804474353790283,1.1787097454071045,2.7542214393615723,-0.9271764755249025,-155.96136474609375,-64.226806640625,-22.83685874938965,7.730620384216309,1.5128977298736572,4.185245513916016,-130.65028381347656,-68.96541595458984,50.3286247253418,-4.004284858703613,0.5257245302200317,-1.8045520782470703,109.2574691772461,-7.725832939147949,93.8540496826172,-0.2056207358837127,0.0239735506474971,0.3312292098999023,-177.61697387695312,-66.972412109375,117.02045440673828,-0.0525143668055534,2.0970659255981445,-1.6636743545532229
2466.144587993622,-162.4818115234375,-79.48979949951172,-5.195650577545166,0.934960126876831,5.833107948303223,-2.0752997398376465,-152.8113250732422,-66.77363586425781,-25.165193557739254,-6.474210739135742,0.7209252119064331,27.00891876220703,-120.00113677978516,-69.52215576171875,32.1475830078125,-5.872201919555664,1.4295823574066162,-2.187683582305908,108.32637786865234,-21.71072578430176,82.57206726074219,-0.0752573460340499,3.5772719383239746,-1.6993303298950195,174.4388427734375,-67.34400177001953,121.67359161376952,1.64198899269104,0.7698745727539062,-4.481447219848633
2466.175125837326,-168.8559112548828,-76.97447967529297,2.91326904296875,3.616628646850586,5.924683570861816,-2.6223740577697754,-150.6590118408203,-67.53495025634766,-33.90736389160156,4.336887359619141,-5.9984941482543945,-2.3602356910705566,-103.8684539794922,-67.0690689086914,9.61940097808838,-3.901961326599121,2.0502638816833496,-4.163261413574219,108.02440643310548,-36.583492279052734,67.6617431640625,1.4983434677124023,8.663156509399414,1.8826446533203125,164.77101135253906,-67.2049789428711,127.54191589355467,1.2204184532165527,0.5205367803573608,-6.1767425537109375
2466.20512676239,-175.26344299316406,-72.64159393310547,12.871783256530762,1.4810409545898438,-0.5412811040878296,-0.3741512298583984,-158.66966247558594,-65.16954040527344,-35.095672607421875,8.269035339355469,-5.305255889892578,10.195686340332031,-91.30742645263672,-60.16425323486328,-9.551080703735352,-5.8820085525512695,3.8221535682678223,-1.0486793518066406,105.40657043457033,-50.08945846557617,50.391239166259766,7.580702781677246,3.7955188751220703,9.99309539794922,154.9222412109375,-66.8366470336914,133.35870361328125,-1.6245293617248535,-0.9815788269042968,-4.385345458984375
2466.235126018524,178.86209106445312,-66.90309143066406,22.135719299316406,-0.4693483114242553,0.0800582021474838,-0.6789045333862305,-160.71617126464844,-59.63996887207031,-38.96589279174805,12.139616012573242,-2.421770572662353,12.971012115478516,-80.52387237548828,-50.040924072265625,-22.703622817993164,-4.779801368713379,6.240299224853516,-0.0924797058105468,94.264404296875,-60.89657974243164,39.26798629760742,9.532726287841797,3.843227863311768,6.583103179931641,146.76150512695312,-66.99637603759766,139.6058807373047,-6.386761665344238,-4.613187789916992,-0.6069765090942383
2466.2646656036377,176.06491088867188,-61.38103866577149,28.445528030395508,-2.113673210144043,-2.406493186950684,1.6620969772338867,-152.37998962402344,-54.23957061767578,-42.514461517333984,12.074699401855469,-8.600040435791016,11.607006072998049,-73.36542510986328,-38.167110443115234,-31.74392890930176,-5.891778945922852,13.127729415893556,4.089069366455078,81.17935943603516,-68.29249572753906,41.70536804199219,11.109657287597656,10.902557373046877,7.258159637451172,139.37948608398438,-67.99132537841797,147.0338897705078,-0.674163818359375,2.6917967796325684,1.0753450393676758
2466.2946634292603,174.64007568359375,-57.38235855102539,31.64238548278809,0.3511700630187988,-2.239721298217773,1.257624626159668,-139.19044494628906,-51.44114303588867,-44.52200698852539,8.522476196289062,-13.305343627929688,7.234195709228516,-65.52789306640625,-24.87164688110352,-37.52352142333984,-1.0411243438720703,20.36225128173828,11.115886688232422,77.29574584960938,-68.07917785644531,45.27752304077149,12.961301803588867,9.934366226196287,9.336246490478516,133.83668518066406,-68.5905532836914,151.09388732910156,5.129640579223633,2.389098644256592,4.406011581420898
2466.32466173172,174.61788940429688,-54.51314163208008,32.260231018066406,-0.0789034217596054,-2.073267936706543,1.8856306076049805,-132.56021118164062,-51.76116180419922,-45.6298828125,11.744588851928713,-5.893789291381836,-5.100409507751465,-56.19612503051758,-10.234370231628418,-37.25168991088867,1.205063819885254,20.38109970092773,16.722278594970703,92.37967681884766,-63.1263427734375,46.86007690429688,10.000715255737305,17.517879486083984,9.393148422241213,131.05921936035156,-68.48179626464844,151.97195434570312,-5.0610551834106445,-3.9969635009765625,9.216646194458008
2466.3546760082245,175.47315979003906,-53.35539245605469,31.29934310913086,-1.2472269535064695,-1.9374048709869385,2.475064277648926,-126.5050048828125,-58.83845901489258,-51.3845329284668,13.109474182128906,-0.2957462668418884,-5.432525634765625,-42.20281219482422,1.0789706707000732,-30.23090934753418,-11.19900131225586,7.639081001281738,16.090808868408203,108.13069152832033,-56.91796875,52.88605117797852,-4.661166191101074,5.694207191467285,20.887104034423828,131.63214111328125,-68.9820327758789,151.1078338623047,-6.211283683776856,-0.3601844310760498,9.177572250366213
