Timestamp,D4:22:CD:00:05:5D_EulerX,D4:22:CD:00:05:5D_EulerY,D4:22:CD:00:05:5D_EulerZ,D4:22:CD:00:05:5D_FreeAccX,D4:22:CD:00:05:5D_FreeAccY,D4:22:CD:00:05:5D_FreeAccZ,D4:22:CD:00:05:5E_EulerX,D4:22:CD:00:05:5E_EulerY,D4:22:CD:00:05:5E_EulerZ,D4:22:CD:00:05:5E_FreeAccX,D4:22:CD:00:05:5E_FreeAccY,D4:22:CD:00:05:5E_FreeAccZ,D4:22:CD:00:05:6B_EulerX,D4:22:CD:00:05:6B_EulerY,D4:22:CD:00:05:6B_EulerZ,D4:22:CD:00:05:6B_FreeAccX,D4:22:CD:00:05:6B_FreeAccY,D4:22:CD:00:05:6B_FreeAccZ,D4:22:CD:00:05:6E_EulerX,D4:22:CD:00:05:6E_EulerY,D4:22:CD:00:05:6E_EulerZ,D4:22:CD:00:05:6E_FreeAccX,D4:22:CD:00:05:6E_FreeAccY,D4:22:CD:00:05:6E_FreeAccZ,D4:22:CD:00:49:AA_EulerX,D4:22:CD:00:49:AA_EulerY,D4:22:CD:00:49:AA_EulerZ,D4:22:CD:00:49:AA_FreeAccX,D4:22:CD:00:49:AA_FreeAccY,D4:22:CD:00:49:AA_FreeAccZ
574.8766615390778,176.7744598388672,-53.27103805541992,-137.27346801757812,-1.5450572967529297,0.5269565582275391,3.39115047454834,-161.5069122314453,-37.91948318481445,-52.82505035400391,0.4229034781455993,-16.870494842529297,4.090397834777832,-40.0305290222168,-10.73488712310791,-25.391061782836918,6.856047630310059,5.993560791015625,6.842914581298828,65.57624053955078,-29.70633125305176,15.638407707214355,11.521461486816406,9.460710525512695,-0.910792350769043,141.17947387695312,-72.47818756103516,138.8186492919922,-2.689879894256592,-0.5957769155502319,6.001069068908691
574.9438889026642,-175.19119262695312,-55.00271224975586,-96.14694213867188,-1.7165985107421875,-1.3171391487121582,4.634459495544434,-87.46041107177734,-53.427242279052734,-84.72627258300781,-4.257607460021973,2.443334579467773,0.021697998046875,6.124728679656982,1.3306922912597656,-40.61345291137695,-6.540945053100586,5.066231727600098,0.1301240921020507,99.9825439453125,-72.65245056152344,17.130802154541016,-0.1574605703353881,1.9481277465820312,-1.754863739013672,177.27662658691406,-82.52882385253906,104.9688720703125,-0.559441089630127,0.6329343318939209,3.3130006790161133
574.9735426902771,-176.23007202148438,-60.8017692565918,-96.0569839477539,-4.45116138458252,-5.742138862609863,7.198749542236328,-90.45648193359376,-49.130985260009766,-83.3238525390625,-2.4864511489868164,3.002172470092773,-0.1407709121704101,12.235244750976562,2.189592123031616,-40.62540817260742,-7.77082633972168,0.2221362590789795,-0.5193672180175781,129.51564025878906,-80.76387786865234,-0.0687575787305831,-7.233623504638672,-0.8653154373168945,-2.731043815612793,-158.43650817871094,-82.39935302734375,84.18812561035156,0.4308227896690368,0.965622901916504,-1.2279043197631836
575.0035634040833,178.12738037109375,-68.44754028320312,-95.70529174804688,-1.0665504932403564,-4.706608772277832,1.9259700775146484,-86.6097640991211,-41.75339126586914,-90.62117004394533,-2.095622539520264,-0.8824257850646973,-4.858705520629883,23.36021423339844,2.385037899017334,-45.900184631347656,-3.5057849884033203,1.3435239791870115,-6.086362838745117,166.47967529296875,-80.79884338378906,-24.168657302856445,-5.71397590637207,-2.342734336853028,-5.27242374420166,-149.34996032714844,-80.6475830078125,77.36042785644531,1.9617857933044436,0.073668360710144,-6.115749359130859
575.0335636138916,171.35325622558594,-71.97653198242188,-88.7128677368164,4.846064567565918,0.3950532078742981,-9.459697723388672,-85.72930908203125,-38.88956832885742,-100.71261596679688,-6.153814315795898,-2.6086297035217285,-9.986337661743164,36.56779861450195,2.283628463745117,-55.31319808959961,0.5955628156661987,-0.691906213760376,-8.088506698608398,-168.12548828125,-79.12478637695312,-36.77791595458984,-3.004243850708008,-3.665258407592773,-7.4977874755859375,-152.17738342285156,-79.08052825927734,79.90010070800781,4.394448280334473,1.4669945240020752,-8.832695007324219
575.067099571228,165.7655029296875,-76.79502868652344,-80.39480590820312,5.214060783386231,-3.2341647148132324,-7.99565315246582,-88.84900665283203,-39.26110458374024,-110.51251983642578,-9.150079727172852,-3.163226127624512,-9.617650985717772,48.69574737548828,3.092970609664917,-67.2059326171875,2.063084602355957,-6.633727073669434,-8.211082458496094,-152.6693115234375,-78.1235580444336,-42.89181900024414,-2.641117572784424,-6.837367057800293,-8.213085174560547,-154.9249725341797,-79.08633422851562,80.89273834228516,-0.8505071401596069,0.8985997438430786,-8.502031326293945
575.0936222076416,157.1669921875,-81.9013900756836,-73.36820983886719,2.4068527221679688,9.011613845825195,-8.630430221557617,-92.82627868652344,-41.28932571411133,-119.42668151855467,-13.224390029907228,-5.68618106842041,-8.682214736938477,59.06435012817383,6.146791458129883,-79.51123046875,-0.9447298049926758,-12.025331497192385,-7.585320472717285,-149.68515014648438,-78.64380645751953,-43.254180908203125,-1.4905736446380615,-6.717769622802734,-7.049554824829102,-146.73660278320312,-81.15158081054688,73.09442138671875,-4.089207649230957,-0.8311057090759277,-8.980241775512695
575.1239900588989,156.44827270507812,-82.43231964111328,-73.77604675292969,0.562389612197876,2.7793359756469727,1.323256492614746,-96.1266098022461,-45.13227844238281,-126.7440414428711,-15.83119773864746,-3.130953311920166,-5.104576110839844,65.89985656738281,13.42337131500244,-91.3583984375,6.775708198547363,-7.010406494140625,-1.583608627319336,-157.002197265625,-80.13680267333984,-37.5807991027832,-0.7248092889785767,-4.871372222900391,-2.8942270278930664,-131.34393310546875,-82.16854858398438,59.6378173828125,-2.3035964965820312,-1.1743621826171875,-8.206733703613281
575.1834313869476,156.31558227539062,-80.98310852050781,-72.51215362548828,2.4088330268859863,-3.444009304046631,-1.780561447143555,-97.09558868408205,-49.880126953125,-131.33966064453125,-20.552608489990234,1.723595142364502,-11.828115463256836,55.60598373413086,22.9958438873291,-106.76312255859376,3.595881938934326,-18.82605743408203,-5.401104927062988,-168.63087463378906,-81.30435180664062,-27.44799423217773,2.6564722061157227,-4.626747131347656,-0.2004890441894531,-121.20215606689452,-82.07655334472656,52.10025405883789,0.2262275218963623,-1.7558846473693848,-1.6715192794799805
575.2136602401733,155.0558624267578,-78.11080932617188,-67.67054748535156,1.5641350746154783,-3.331438541412353,2.452945709228516,-105.43341827392578,-54.63508605957031,-127.14027404785156,-21.083988189697266,3.990478515625,-11.943012237548828,23.38579559326172,27.769309997558597,-122.77572631835938,-4.245379447937012,-16.193748474121094,-29.09891891479492,-175.6548614501953,-82.4415054321289,-18.36861991882324,3.8464975357055664,-5.467408180236816,-1.17364501953125,-126.49984741210938,-81.40376281738281,56.08861541748047,1.34714674949646,-0.2962004542350769,2.194697380065918
575.243658542633,150.2034149169922,-76.39646911621094,-59.7031478881836,0.4317300319671631,2.3680853843688965,2.9845705032348637,-126.97883605957033,-57.064552307128906,-110.39305877685548,-20.232112884521484,2.739299297332764,-8.597976684570312,-28.72746086120605,26.54557991027832,-123.77516174316406,10.262683868408203,9.645246505737305,-23.956932067871094,-177.11717224121094,-83.18252563476562,-13.24204158782959,2.1710023880004883,-7.03096866607666,-0.2930583953857422,-129.24298095703125,-80.9269790649414,55.48609924316406,-3.663787841796875,-3.0219883918762207,4.215629577636719
575.273277759552,142.13514709472656,-76.01953887939453,-49.97072219848633,-2.823073387145996,-2.0994105339050293,7.925153732299805,-152.3188018798828,-53.35440826416016,-91.3015594482422,13.921186447143556,-16.95317840576172,10.483858108520508,-63.866580963134766,31.4897403717041,-117.8331298828125,-20.26724624633789,-4.522364616394043,26.18405532836914,-178.88084411621094,-82.3326187133789,-11.157440185546877,3.3685102462768555,-11.295415878295898,0.8131656646728516,-129.67784118652344,-80.58846282958984,54.87961196899414,-5.732168197631836,-2.0440659523010254,4.864654541015625
575.3042135238647,131.3118438720703,-75.728759765625,-38.968379974365234,-1.5974328517913818,-0.9487195014953612,2.9031639099121094,-154.53123474121094,-52.766578674316406,-81.77149200439453,0.7509685754776001,-13.413946151733398,-5.000590324401856,-46.805809020996094,28.464906692504883,-117.83157348632812,-13.117067337036133,10.41926383972168,-6.532506942749023,165.8003692626953,-80.33724975585938,-4.174281597137451,2.552577018737793,-10.890871047973633,1.6532354354858398,-131.69223022460938,-79.68042755126953,56.264198303222656,-0.0184311009943485,0.3172596096992492,-0.2020683288574218
575.333512544632,119.3500747680664,-75.03546905517578,-28.66975975036621,1.9720964431762693,-1.3971176147460938,1.6591072082519531,-166.8019561767578,-50.59432220458984,-71.31658172607422,11.146724700927734,-7.664152145385742,3.407455444335937,-31.31643867492676,26.91108703613281,-112.19734954833984,4.308952331542969,-4.574453353881836,-17.918601989746094,137.54632568359375,-76.0928955078125,8.163328170776367,-0.8801082372665405,-4.40371036529541,1.9341697692871092,-140.54042053222656,-78.65619659423828,60.87228393554688,5.931887626647949,-2.914876937866211,-2.5235400199890137
575.3637607097626,109.0282745361328,-73.87435150146484,-21.257827758789062,3.0595483779907227,-1.732630968093872,1.839120864868164,-176.78343200683594,-47.0193977355957,-66.6010971069336,4.037336349487305,-8.966262817382812,-0.4233341217041015,-29.69485855102539,26.631813049316406,-99.53690338134766,-9.72640609741211,-8.024442672729492,-12.031982421875,113.31192779541016,-70.15571594238281,14.36207675933838,7.835379600524902,8.359375,-1.6340618133544922,-150.9388427734375,-77.55302429199219,65.60286712646484,5.348794937133789,-4.259623527526856,0.4188785552978515
575.3940832614899,95.12965393066406,-73.5311508178711,-14.38368034362793,6.342952728271484,4.007525444030762,-1.954050064086914,175.9578094482422,-43.29427719116211,-62.950645446777344,-2.024202823638916,-8.871334075927734,-0.0306615829467773,-27.621374130249023,25.905736923217773,-84.91512298583984,-6.38634204864502,-11.310247421264648,-6.856123924255371,95.2432098388672,-67.86914825439453,12.890071868896484,12.33686637878418,10.686372756958008,-8.021453857421875,-154.63446044921875,-76.24279022216797,64.92493438720703,2.100468635559082,-1.5601530075073242,-1.3821640014648438
575.4491260051727,97.19168090820312,-73.17572784423828,-27.304277420043945,11.738029479980469,27.63675308227539,0.6692323684692383,174.10006713867188,-39.77156448364258,-61.516876220703125,4.117093086242676,-2.92649507522583,-0.3905925750732422,-29.0169734954834,26.32289695739746,-71.6583023071289,-5.049806594848633,1.3562507629394531,3.1451187133789062,94.34466552734376,-68.80440521240234,9.912483215332031,9.247098922729492,4.033273696899414,-6.255166053771973,-154.6675567626953,-74.81305694580078,62.39384841918945,-0.1748794317245483,-1.0965681076049805,-0.6894512176513672
575.4837868213654,118.95116424560548,-67.65901947021484,-58.83617401123047,18.67344665527344,17.110374450683594,6.696989059448242,173.11941528320312,-36.3760871887207,-61.05127716064453,2.373739719390869,-4.564929008483887,0.0209608078002929,-29.21885681152344,27.189332962036133,-59.341094970703125,-5.528542518615723,14.117019653320312,3.125452995300293,103.8511962890625,-71.37386322021484,12.76718807220459,-3.613259315490722,12.976844787597656,-0.2168474197387695,-151.60337829589844,-75.02350616455078,59.321533203125,1.4535188674926758,3.752694129943848,-3.6528782844543457
575.5137851238251,134.66915893554688,-56.44326019287109,-81.51383972167969,10.58914566040039,4.9840850830078125,3.737110137939453,172.47244262695312,-33.82973098754883,-60.848934173583984,2.429351329803467,-4.219367027282715,0.2311077117919922,-30.317602157592773,26.33784484863281,-44.60737228393555,-7.511731147766113,13.193887710571287,2.5942506790161133,106.62480926513672,-73.55487060546875,17.28790855407715,-11.43437957763672,8.799249649047852,4.410865783691406,-149.3662872314453,-74.97647857666016,57.25638961791992,4.629556655883789,2.688930034637451,-0.6379203796386719
575.5733098983765,142.61395263671875,-43.16360855102539,-96.2993621826172,3.5450072288513184,-3.2956714630126958,-3.8776893615722656,171.90919494628906,-32.34099197387695,-60.48828506469727,2.4050159454345703,-4.104581832885742,0.1445188522338867,-31.670419692993164,22.70467567443848,-27.51582145690918,2.63992977142334,13.103153228759766,-3.4837331771850586,104.7625961303711,-73.72774505615234,20.303691864013672,-3.3693251609802246,4.035333633422852,4.864443778991699,-148.24655151367188,-74.40245819091797,55.60447692871094,7.122135162353516,-0.237553596496582,5.452700614929199
575.5793175697327,149.67970275878906,-29.993385314941406,-105.38721466064452,-1.980959177017212,-3.6846518516540527,-8.988323211669922,170.99929809570312,-31.80774688720703,-59.72427368164063,2.284731388092041,-3.964333057403565,0.4487018585205078,-41.23553085327149,16.65516471862793,-13.24736785888672,3.388680458068848,17.186813354492188,-9.079092025756836,102.35096740722656,-73.04847717285156,25.67723846435547,3.000327587127685,0.2859217524528503,5.478208541870117,-147.6287384033203,-74.66172790527344,54.732540130615234,6.429632186889648,1.6983885765075684,5.5932817459106445
575.6033217906952,159.14501953125,-18.811935424804688,-111.40042114257812,-2.8817949295043945,-2.385039806365967,-7.245880126953125,169.88412475585938,-32.26557922363281,-58.80408477783203,2.1314444541931152,-4.152194023132324,0.2834157943725586,-50.685306549072266,8.901806831359863,-4.053455829620361,6.080533981323242,-0.1672074794769287,10.513484954833984,99.0413818359375,-72.7749252319336,33.96744155883789,3.4825263023376465,0.3199824690818786,3.0844669342041016,-148.28170776367188,-74.9391098022461,54.124778747558594,5.280063629150391,1.6563575267791748,2.7586917877197266
575.6433086395264,167.04685974121094,-12.93936538696289,-116.01837158203124,-15.19843292236328,-4.945481300354004,-5.302231788635254,168.23928833007812,-33.0289192199707,-58.09843826293945,5.280344009399414,-3.879190444946289,-0.6847639083862305,-47.0196533203125,0.7964152097702026,1.6546876430511477,-0.4373626708984375,3.2890686988830566,2.492955207824707,97.1344757080078,-72.290283203125,41.962379455566406,2.349384307861328,0.32901531457901,1.671004295349121,-148.10008239746094,-74.80133056640625,52.93950271606445,3.714057445526123,1.2584679126739502,2.2923831939697266
575.6633212566376,169.09091186523438,-12.83577823638916,-119.0977783203125,-9.74282455444336,-9.730672836303713,-10.09697723388672,165.36605834960938,-33.356658935546875,-58.84682083129883,7.100841522216797,-4.723227500915527,-0.982182502746582,-46.3192253112793,-9.094640731811523,5.240019798278809,-0.7299323081970215,8.0404052734375,-10.907087326049805,98.41236877441406,-71.41262817382812,47.315895080566406,0.2133901715278625,0.8034473657608032,-0.4192838668823242,-146.6301727294922,-74.90680694580078,51.29743194580078,2.542366504669189,0.3192064166069031,0.0665931701660156
575.6938490867615,170.09722900390625,-17.38920783996582,-120.98150634765624,-11.16346549987793,-7.892460823059082,-8.51163101196289,162.93255615234375,-35.8736686706543,-60.40888595581055,-0.1102973818778991,-9.644767761230469,-4.4969329833984375,-55.19496536254883,-23.169727325439453,5.108358383178711,11.529151916503906,2.1236062049865723,-7.702231407165527,103.94860076904295,-70.83319854736328,47.28899002075195,-1.494361400604248,-4.425308227539063,-0.3369054794311523,-148.09483337402344,-75.54486083984375,52.32002639770508,3.545304298400879,-1.5666553974151611,-2.627534866333008
575.7485902309418,168.40098571777344,-23.2490177154541,-121.96463775634766,-8.425796508789062,9.340606689453123,33.189430236816406,164.92181396484375,-36.00902557373047,-62.62209701538086,-2.2225303649902344,-6.651083946228027,0.0721111297607421,-52.39324951171875,-41.27292251586914,-2.5778820514678955,13.16793441772461,-5.383482933044434,12.87333869934082,103.7745590209961,-70.73558807373047,48.3260612487793,-1.2886302471160889,-5.875515937805176,-2.3818507194519043,-153.60301208496094,-76.11062622070312,56.50236892700195,1.3742823600769043,-0.9627541303634644,-3.2555642127990723
575.7787137031555,169.4759521484375,-25.09843635559082,-119.9474105834961,0.9163615703582764,-12.832235336303713,-11.03627586364746,166.82968139648438,-34.8438606262207,-64.70590209960938,-4.976137161254883,1.4511263370513916,-6.415136337280273,-26.66587829589844,-57.42073822021485,-21.77741241455078,29.21750259399414,2.756167411804199,35.18937683105469,95.91942596435548,-69.23375701904297,51.84748077392578,-1.4691479206085205,-4.861459732055664,-1.0842103958129885,-157.02685546875,-76.42845916748047,58.75273513793945,-5.246492385864258,-1.2848310470581057,-6.828832626342773
575.8137142658234,176.57452392578125,-25.800437927246094,-117.82743072509766,-2.805976867675781,-10.69198989868164,-0.8562040328979492,166.88673400878906,-34.36320877075195,-65.16222381591797,0.7853630781173706,5.731569290161133,-5.833203315734863,-23.006935119628903,-58.00226593017578,-24.86908721923828,11.495311737060549,6.697100639343262,-2.9677481651306152,86.99325561523438,-62.73463439941406,54.84956741333008,1.3772339820861816,-2.4581899642944336,2.9508056640625,-160.6605224609375,-76.80242919921875,63.28676986694336,-1.2376630306243896,2.6304850578308105,-3.5701308250427246
575.8437120914459,178.1766357421875,-25.90602302551269,-116.54935455322266,-6.00327205657959,-7.8410139083862305,-0.6201515197753906,164.99441528320312,-34.22959899902344,-65.12696838378906,2.6216983795166016,-10.666986465454102,3.1686716079711914,-40.67754364013672,-50.55674743652344,-10.928234100341797,18.0047607421875,-4.784026145935059,-0.6367921829223633,81.73191833496094,-50.30114364624024,57.00006866455078,8.80926513671875,1.3585755825042725,11.79835319519043,-160.4787139892578,-77.43711853027344,62.66018295288086,3.513688564300537,3.306021213531494,-0.5291156768798828
575.8742318153381,175.35276794433594,-24.44213485717773,-115.91193389892578,-6.401772499084473,-15.258134841918944,3.875833511352539,163.98851013183594,-32.846641540527344,-66.42294311523438,-0.6608211994171143,-7.230676651000977,-2.2987232208251958,-52.392578125,-39.00632858276367,-3.932061433792114,9.33591079711914,-9.021278381347656,10.10853385925293,84.02833557128906,-33.23637771606445,60.45444107055664,10.329212188720703,0.7772841453552246,18.035099029541016,-160.00900268554688,-76.7343978881836,62.0075798034668,-1.1212773323059082,-2.0620551109313965,-0.9021244049072266
575.9033126831055,173.83819580078125,-21.215137481689453,-114.64207458496094,-14.01894760131836,-19.790088653564453,6.905477523803711,162.8607177734375,-31.01877212524414,-67.71651458740234,0.4112611413002014,-6.471329689025879,0.1480855941772461,-51.64803314208984,-28.96469116210937,-4.72473669052124,13.63406753540039,-1.8998432159423828,-6.635089874267578,97.2292022705078,-14.384359359741213,66.42074584960938,12.952140808105469,-1.1983439922332764,8.543928146362305,-162.51451110839844,-75.96451568603516,64.95902252197266,3.75352144241333,0.1393679082393646,6.409603118896484
575.9336924552917,172.1299285888672,-18.564409255981445,-112.42119598388672,-3.76056718826294,-14.262140274047852,3.3073434829711914,161.95306396484375,-29.71603012084961,-68.91807556152344,2.427018642425537,-5.115604400634766,0.3982906341552734,-57.74424362182617,-22.049396514892575,-9.406488418579102,5.55931282043457,-7.610183715820312,-7.566943168640137,107.69977569580078,7.2013750076293945,74.4781723022461,12.925708770751951,-0.8968081474304199,27.10673141479492,-163.80685424804688,-76.22405242919922,65.26870727539062,6.776726722717285,0.9703191518783568,5.341949462890625
575.9638319015503,171.2666473388672,-14.465652465820312,-112.20863342285156,-8.058616638183594,-7.870038032531738,10.324853897094728,160.76885986328125,-30.050609588623047,-68.53990936279297,3.8567962646484375,-4.225749969482422,1.2928581237792969,-66.83421325683594,-21.638465881347656,-16.779560089111328,-2.7285866737365723,-7.184630393981934,0.6245431900024414,108.78746032714844,29.08700942993164,81.1322250366211,8.253423690795898,12.338085174560549,11.77219009399414,-167.94793701171875,-76.26697540283203,67.50234985351562,3.91438102722168,2.7365846633911133,4.04661750793457
575.9934303760529,167.2221221923828,-13.478517532348633,-113.3250732421875,-5.003809928894043,1.464125633239746,3.6942529678344727,159.1506805419922,-32.621150970458984,-67.08465576171875,2.4917287826538086,-4.011463165283203,2.263683319091797,-70.63616180419922,-28.899497985839844,-25.4649658203125,-3.307579040527344,1.1075730323791504,5.512967109680176,106.86300659179688,48.94476318359375,83.54354858398438,-9.913597106933594,18.736705780029297,9.4400634765625,-174.366943359375,-75.20618438720703,72.67171478271484,4.338078498840332,2.669015884399414,9.414813995361328
576.0483584403992,164.75343322753906,-15.861980438232422,-114.85702514648438,-0.8383764028549194,4.56473445892334,-5.014098167419434,157.6342315673828,-40.37000274658203,-62.52806091308594,2.186110019683838,-10.409164428710938,-4.55842399597168,-73.50193786621094,-40.85892105102539,-33.409420013427734,-0.8318097591400146,3.960453510284424,7.709579467773437,93.80730438232422,64.911865234375,76.99189758300781,-15.939855575561523,11.553651809692385,-2.13608455657959,178.84327697753906,-74.34086608886719,78.71915435791016,3.818926334381104,1.3896524906158447,8.399374008178711
576.0790133476257,164.60797119140625,-21.71926689147949,-116.0772933959961,-1.248455047607422,4.127314567565918,-13.673524856567385,157.86004638671875,-46.50870895385742,-58.01628875732422,-1.062760353088379,-0.922423243522644,4.633048057556152,-78.36551666259766,-55.11629104614258,-39.89570236206055,-2.815329074859619,3.1958227157592773,6.742887496948242,72.89668273925781,74.38410949707031,58.40856170654297,-4.1142120361328125,-17.22182846069336,-11.31170654296875,170.86756896972656,-73.67269134521484,85.88306427001953,2.863802909851074,1.2080276012420654,2.577181816101074
576.1140162944794,164.7158660888672,-30.99896049499512,-116.52107238769533,-5.065716743469238,-2.933446884155273,-18.31465530395508,154.5589141845703,-49.80434799194336,-54.65613555908203,-3.450025081634521,8.14314079284668,4.860805511474609,-84.21644592285156,-70.51728057861328,-42.91481399536133,-3.1895408630371094,3.658749580383301,3.1938533782958984,58.17126083374024,79.50865173339844,39.91995620727539,6.177020072937012,11.391300201416016,-4.480591773986816,160.70944213867188,-73.3869857788086,94.90968322753906,0.951581597328186,0.8641633987426758,-5.709267616271973
576.1436014175415,163.21817016601562,-43.02336883544922,-117.0306625366211,-6.608346939086914,-3.070687294006348,-16.556114196777344,157.15606689453125,-47.57983016967773,-53.451168060302734,2.521582126617432,2.051575183868408,-1.917896270751953,-96.75358581542967,-82.3827133178711,-39.24794387817383,-4.41771411895752,16.80776596069336,-1.3377389907836914,37.93673324584961,84.26154327392578,29.813867568969727,-2.2407546043396,-7.162079811096191,-10.11236572265625,155.69979858398438,-73.2144546508789,97.91506958007812,-0.98436176776886,1.0765533447265625,-12.10959243774414
576.1737868785858,158.95765686035156,-58.48046875,-117.25843811035156,-6.070067405700684,-2.01456880569458,-7.053301811218262,162.4464569091797,-45.54631423950195,-55.28659057617188,1.750809907913208,-15.852628707885742,-15.326841354370115,171.00144958496094,-88.5713882446289,44.48763275146485,-0.8697612285614014,9.813465118408203,-12.038005828857422,98.22777557373048,86.96578216552734,93.1358871459961,-0.246913343667984,-5.61018180847168,-11.691633224487305,153.84530639648438,-73.6534652709961,97.91156005859376,-0.8536007404327393,-2.172038555145264,-8.45496940612793
576.2036743164062,153.52488708496094,-76.6353988647461,-116.08977508544922,-3.1598916053771973,-3.988481998443604,4.641727447509766,161.00340270996094,-46.68363952636719,-54.60077667236328,2.677896022796631,-3.223482131958008,-7.039328575134277,107.00191497802734,-82.2702865600586,107.22281646728516,-1.383770227432251,7.469234466552734,-15.917987823486328,147.062255859375,79.05418395996094,142.35333251953125,-2.990233898162842,8.253166198730469,-15.961219787597656,147.7509307861328,-74.93001556396484,103.30374145507812,1.1120178699493408,-1.3014953136444092,-7.953265190124512
576.233683347702,-14.213556289672852,-83.63256072998047,52.751121520996094,8.377996444702148,5.3294677734375,24.678237915039062,158.85031127929688,-46.88829803466797,-55.74288940429688,0.4995092153549194,-3.682857036590576,-3.974261283874512,113.19956970214844,-73.94165802001953,107.29645538330078,-1.2132892608642578,7.776576995849609,-9.21831512451172,139.86483764648438,64.88736724853516,143.68531799316406,-16.356914520263672,12.347381591796877,-27.144752502441406,142.20065307617188,-75.20221710205078,107.77936553955078,2.2456283569335938,1.2457191944122314,-6.179788589477539
576.2636857032776,-3.37090802192688,-69.4845962524414,51.45798873901367,17.62120819091797,30.28699111938477,-3.4137659072875977,156.14991760253906,-45.91523742675781,-58.11323928833008,1.661050796508789,-11.73377799987793,1.5773200988769531,118.77369689941406,-65.85523986816406,109.14285278320312,-0.744452714920044,8.943683624267578,-1.5584640502929688,133.451171875,54.86208724975586,142.4298553466797,-8.106592178344727,-5.031461715698242,-16.687976837158203,139.31898498535156,-75.57011413574219,109.67741394042967,-1.9464976787567136,0.7785338163375854,0.4528312683105469
576.2938642501831,2.139692068099976,-68.70166015625,47.43688201904297,16.30157470703125,22.323314666748047,-14.033136367797852,155.6140899658203,-44.30834197998047,-62.27482986450195,5.946730613708496,-4.423855781555176,-1.374795913696289,117.80831909179688,-59.72752380371094,111.22455596923828,-0.869217038154602,3.6837563514709473,3.63112735748291,149.60757446289062,58.27464294433594,144.45208740234375,3.960310459136963,0.4025110602378845,1.7881412506103516,140.55096435546875,-77.30339050292969,109.99299621582033,4.657910346984863,-1.1940393447875977,1.1733779907226562
576.3238608837128,19.371129989624023,-75.48358917236328,31.20067024230957,14.43767547607422,5.831025123596191,-1.0786056518554688,156.74935913085938,-44.16041946411133,-67.12999725341797,1.1220881938934326,-6.183224678039551,1.0981903076171875,109.96641540527344,-57.78460311889648,108.70577239990234,-2.4863553047180176,11.9033203125,2.199813842773437,142.16482543945312,67.1720962524414,137.84925842285156,-0.5098884105682373,1.6814475059509275,-9.151582717895508,143.30020141601562,-78.22898864746094,107.12688446044922,10.736272811889648,-1.3140442371368408,9.322772979736328
576.3787596225739,68.3200912475586,-80.9422607421875,-9.450461387634276,2.5826215744018555,-17.51937484741211,10.571744918823242,159.08290100097656,-45.51652908325195,-70.81319427490234,-1.378507137298584,-6.699588775634766,1.7691402435302734,107.63231658935548,-59.98626708984375,105.60584259033205,1.6648263931274414,18.7606201171875,1.9980831146240237,121.7423858642578,78.4697036743164,114.90726470947266,-2.290324687957764,1.6436128616333008,-14.23001480102539,144.25344848632812,-78.67100524902344,107.398193359375,-1.0458717346191406,0.4445284605026245,-1.7910881042480469
576.4137599468231,92.64158630371094,-82.22115325927734,-32.92741775512695,-2.522583484649658,-13.99009895324707,-2.3208179473876958,162.74876403808594,-48.44403076171875,-73.0469970703125,-0.3638508915901184,-11.076332092285156,1.394902229309082,116.07123565673828,-64.89522552490234,103.66439819335938,2.286596775054932,4.757281303405762,4.718377113342285,47.2047004699707,79.72357940673828,32.72172164916992,-5.738368988037109,8.066070556640625,-10.871082305908203,146.8736572265625,-77.87859344482422,107.26295471191406,-1.8673462867736816,1.2597754001617432,0.333383560180664
576.4438583850861,116.4384307861328,-83.88365173339844,-56.58272552490234,1.792999267578125,1.2554352283477783,2.329220771789551,169.9043426513672,-51.539058685302734,-76.47393035888672,-6.825142860412598,-5.223421096801758,-3.9841270446777344,123.4401397705078,-69.46407318115234,102.37939453125,3.722225189208984,-2.748391628265381,2.341602325439453,24.11715507507324,66.76428985595703,3.681281089782715,-8.05134391784668,2.9162044525146484,-8.72618293762207,149.50584411621094,-76.70855712890625,106.47329711914062,-0.7209498882293701,-1.423533916473389,-1.0082616806030271
576.474068403244,141.75538635253906,-83.63028717041016,-80.92745208740234,-2.0212655067443848,-5.61390495300293,6.832118988037109,-173.91006469726562,-51.9926643371582,-80.49211883544922,-7.355968475341797,-0.9495155811309814,6.092341423034668,125.03507995605467,-72.4068832397461,101.57902526855467,3.120944023132324,-2.030949115753174,1.5576705932617188,20.827259063720703,51.11968231201172,-4.025557994842529,-3.886683464050293,-3.652563095092773,-10.432046890258787,155.38577270507812,-74.91035461425781,104.78519439697266,-3.215029716491699,-4.323993682861328,-0.4775495529174804
576.5033135414124,161.62167358398438,-81.47727966308594,-98.3286590576172,-2.341733932495117,3.947013378143311,0.8498916625976562,-157.98667907714844,-47.76951217651367,-81.54725646972656,-21.434276580810547,3.8052186965942383,13.39427375793457,125.20710754394533,-74.731201171875,100.8701400756836,0.1979506611824035,-1.1721563339233398,0.2959632873535156,24.653867721557617,36.05540466308594,-10.63068389892578,2.3430819511413574,-1.8722710609436035,-4.342311859130859,159.70753479003906,-72.6436767578125,104.8538818359375,-4.710057258605957,1.6189284324645996,1.5862998962402344
576.534473657608,171.93310546875,-79.08938598632812,-106.87077331542967,1.003836154937744,0.3587822914123535,0.5491247177124023,-155.84844970703125,-37.67276382446289,-78.1371841430664,-14.72463035583496,-3.223870754241944,8.873523712158203,130.08926391601562,-77.44017028808594,98.57152557373048,-3.1482462882995605,-3.2030467987060547,-0.3087797164916992,26.36800575256348,23.861862182617188,-18.87360191345215,10.962289810180664,-8.45865249633789,7.349275588989258,158.90855407714844,-71.98810577392578,108.25607299804688,-2.083859443664551,2.740875244140625,-0.9681072235107422
576.56360912323,178.09332275390625,-77.04161834716797,-111.09525299072266,1.809772253036499,-0.0863503217697143,0.4106864929199219,-158.36502075195312,-27.017791748046875,-72.12342071533203,-5.841122627258301,-5.549745559692383,-2.9490323066711426,137.8857421875,-80.5572738647461,93.36487579345705,-3.278865337371826,-5.143223762512207,1.5774297714233398,37.33865737915039,18.24226951599121,-22.390260696411133,-8.045660018920898,-23.75146102905273,0.6445093154907227,157.1800079345703,-71.61328125,111.26163482666016,0.5476592779159546,1.0217130184173584,2.279390335083008
576.593679189682,-178.23709106445312,-75.5613021850586,-112.38461303710938,0.4928791522979736,1.362696647644043,1.2881393432617188,-161.2412872314453,-18.275434494018555,-65.48250579833984,-1.2048468589782717,-3.305251121520996,-7.956144332885742,144.810302734375,-83.23992919921875,84.72879028320312,-4.376810073852539,-2.4072084426879883,2.072115898132324,56.79435729980469,15.128018379211426,-18.58471298217773,2.5343151092529297,2.9510626792907715,3.104289054870605,155.7442169189453,-71.3333740234375,114.24835968017578,-2.911929130554199,3.179131507873535,3.755125999450684
576.6488273143768,-175.06675720214844,-75.36289978027344,-114.04993438720705,-0.465532124042511,1.1465868949890137,1.274566650390625,-164.5064239501953,-12.563607215881348,-58.56874465942383,0.612842321395874,-2.402324676513672,-9.51235580444336,149.66995239257812,-85.306396484375,76.82320404052734,-5.270687103271484,2.427553176879883,1.1855392456054688,63.32129287719727,9.934122085571287,-11.355024337768556,0.4154104590415954,5.492208480834961,1.6932554244995115,153.8011932373047,-71.28369903564453,117.89788818359376,-4.970656394958496,2.579679489135742,2.979905128479004
576.67857837677,-170.77671813964844,-75.973388671875,-117.59685516357422,-0.9252077341079712,0.229239135980606,0.3643321990966797,-167.94998168945312,-10.33127212524414,-51.16219711303711,3.809006690979004,-3.6537327766418457,-8.99534797668457,163.42288208007812,-87.5157241821289,61.43058395385742,-3.0536484718322754,2.179478168487549,0.4310817718505859,59.58969879150391,0.5447668433189392,-2.5010480880737305,0.7246259450912476,2.280802726745605,-3.5821123123168945,150.47007751464844,-71.92530822753906,122.86439514160156,-2.425210952758789,0.8136692047119141,-0.1304893493652343
576.7137491703033,-166.8155059814453,-76.20763397216797,-120.7071762084961,-0.4108181595802307,-1.091686725616455,-0.3393659591674804,-171.1158905029297,-11.825580596923828,-43.41395568847656,7.997524261474609,-4.954099655151367,-7.263323783874512,-104.42911529541016,-87.89197540283203,-32.44463348388672,-2.800309658050537,2.188428401947021,-0.4646196365356445,52.25011444091797,-13.504010200500488,8.419682502746582,11.58429718017578,-0.2521771192550659,-2.8856821060180664,146.26248168945312,-72.8114242553711,128.35699462890625,1.3203294277191162,0.2886374592781067,-2.8140316009521484
576.7441937923431,-166.13856506347656,-75.44451904296875,-120.81784057617188,-0.650969386100769,-2.0765223503112797,-0.9841241836547852,-174.88995361328125,-15.765685081481934,-36.36785888671875,17.14871597290039,-6.67198371887207,-12.482221603393556,-76.73199462890625,-83.75144958496094,-61.59051513671875,-2.365849494934082,4.952503204345703,-1.0668659210205078,44.84219741821289,-30.51676368713379,24.14040184020996,30.635631561279297,10.43814468383789,11.684106826782228,142.12948608398438,-73.30855560302734,133.1321563720703,1.3444583415985107,-0.2112970054149627,-4.305985450744629
576.7741007804871,-172.5308837890625,-72.63548278808594,-114.11190795898438,-1.8894801139831543,-4.614469528198242,-0.7440185546875,-176.1574249267578,-20.665437698364254,-32.95269775390625,17.555206298828125,3.229730129241944,1.9957399368286133,-69.66201782226562,-78.35711669921875,-68.38407135009766,-0.597661018371582,5.18358325958252,-2.130819320678711,40.116825103759766,-40.80243682861328,37.59719467163086,0.8929556608200073,21.188278198242188,24.58517837524414,137.72264099121094,-73.42021942138672,137.26268005371094,1.018092155456543,-1.3876292705535889,-7.789790153503418
576.8040654659271,-179.74642944335938,-68.47876739501953,-104.75355529785156,-1.0639214515686035,-1.537259578704834,-1.2444353103637695,-174.63499450683594,-20.142135620117188,-32.63582992553711,10.567638397216797,-3.873568534851074,-18.25049591064453,-60.94902801513672,-72.0650405883789,-73.71969604492188,2.029277801513672,2.3564462661743164,-2.995336532592773,49.25527572631836,-41.569766998291016,28.4207820892334,2.0645670890808105,-8.052934646606445,-6.298596382141113,134.93759155273438,-73.0937271118164,139.8517303466797,-0.1726185083389282,0.0067076236009597,-9.42691421508789
576.8340594768524,176.09515380859375,-64.2710189819336,-97.38491821289062,-1.453735113143921,1.740786075592041,-3.5585522651672363,178.24501037597656,-19.45809555053711,-32.57248306274414,11.81696891784668,-8.115386962890625,-3.0558667182922363,-58.61595153808594,-63.12206268310547,-75.64735412597656,-1.1334614753723145,1.1643962860107422,-2.186509609222412,75.24797821044922,-34.02226638793945,20.29294776916504,14.999099731445312,4.920239448547363,-1.4349842071533203,132.85870361328125,-72.09050750732422,142.15512084960938,-4.5327863693237305,4.004883766174316,-1.2457733154296875
576.8640642166138,174.8261260986328,-60.02003479003906,-92.88668060302734,5.758912086486816,-0.4322275519371032,2.0423154830932617,173.1127166748047,-19.056299209594727,-34.84713363647461,10.968076705932615,-13.479585647583008,-2.1285276412963867,-58.42314529418945,-52.30465698242188,-74.64503479003906,-4.528221130371094,3.858257293701172,1.3803482055664062,86.96421813964844,-24.675756454467773,17.32956314086914,13.635103225708008,5.286307334899902,7.010602951049805,129.70266723632812,-71.07669067382812,146.48658752441406,-1.1948521137237549,0.4276795387268066,3.3999271392822266
576.8935816287994,174.54579162597656,-56.334354400634766,-91.60652923583984,2.398520469665528,0.2007573246955871,0.8065242767333984,174.16064453125,-17.36825180053711,-36.04254913330078,11.478290557861328,-17.035846710205078,0.636601448059082,-60.31093978881836,-40.99980545043945,-71.42637634277344,-5.8782148361206055,6.981206893920898,1.552018165588379,88.28959655761719,-19.464319229125977,16.865758895874023,18.684215545654297,4.4250335693359375,-4.44715690612793,129.586181640625,-70.52059936523438,146.9556121826172,3.2345662117004395,1.7751033306121826,5.173656463623047
576.9487099647522,174.8769989013672,-53.64810943603516,-91.57962799072266,-0.6541426181793213,1.3346126079559326,1.2442502975463867,-179.93836975097656,-13.797234535217283,-37.14793014526367,19.523326873779297,-22.394126892089844,5.243066787719727,-61.528953552246094,-30.77513885498047,-66.8286361694336,-7.683449745178223,14.541431427001951,12.817388534545898,87.48357391357422,-19.64037322998047,16.41703987121582,11.547697067260742,0.762958288192749,1.9808950424194336,129.61746215820312,-70.94465637207031,146.43223571777344,-4.488269805908203,-0.0666859745979309,11.536293029785156
576.978791475296,175.63999938964844,-52.34586334228516,-91.79026794433594,-0.2974228858947754,1.1828465461730957,1.399187088012695,-174.52731323242188,-9.946308135986328,-38.4096565246582,15.342470169067385,-23.173519134521484,-8.349130630493164,-62.06694030761719,-19.998306274414062,-61.44644546508789,-0.0083732604980468,10.80294418334961,15.339017868041992,86.4276351928711,-24.69194221496582,15.99643325805664,14.064998626708984,-0.1893253028392791,7.244279861450195,130.41331481933594,-72.6961441040039,146.46627807617188,-7.118309020996094,-0.2194932997226715,11.126144409179688
