Timestamp,D4:22:CD:00:05:5D_EulerX,D4:22:CD:00:05:5D_EulerY,D4:22:CD:00:05:5D_EulerZ,D4:22:CD:00:05:5D_FreeAccX,D4:22:CD:00:05:5D_FreeAccY,D4:22:CD:00:05:5D_FreeAccZ,D4:22:CD:00:05:5E_EulerX,D4:22:CD:00:05:5E_EulerY,D4:22:CD:00:05:5E_EulerZ,D4:22:CD:00:05:5E_FreeAccX,D4:22:CD:00:05:5E_FreeAccY,D4:22:CD:00:05:5E_FreeAccZ,D4:22:CD:00:05:6B_EulerX,D4:22:CD:00:05:6B_EulerY,D4:22:CD:00:05:6B_EulerZ,D4:22:CD:00:05:6B_FreeAccX,D4:22:CD:00:05:6B_FreeAccY,D4:22:CD:00:05:6B_FreeAccZ,D4:22:CD:00:05:6E_EulerX,D4:22:CD:00:05:6E_EulerY,D4:22:CD:00:05:6E_EulerZ,D4:22:CD:00:05:6E_FreeAccX,D4:22:CD:00:05:6E_FreeAccY,D4:22:CD:00:05:6E_FreeAccZ,D4:22:CD:00:49:AA_EulerX,D4:22:CD:00:49:AA_EulerY,D4:22:CD:00:49:AA_EulerZ,D4:22:CD:00:49:AA_FreeAccX,D4:22:CD:00:49:AA_FreeAccY,D4:22:CD:00:49:AA_FreeAccZ
1347.6226224899292,-178.9441680908203,-56.4139518737793,-112.7954559326172,0.2541914582252502,2.38604736328125,2.8811426162719727,-158.33531188964844,2.059245109558105,-54.40909194946289,4.92214298248291,-5.318452835083008,1.724029541015625,-39.20753479003906,-7.347822666168213,-32.498390197753906,10.715826034545898,-0.7701787948608398,4.445137023925781,96.63675689697266,-0.7190183401107788,-11.737959861755373,3.755126953125,3.1058120727539062,-0.3135366439819336,152.02162170410156,-64.39653015136719,137.85772705078125,-2.467219829559326,2.4415602684021,10.484457015991213
1347.631626367569,-176.9921875,-61.21508026123047,-114.8487319946289,-0.556196928024292,2.2928338050842285,4.650993347167969,-157.00848388671875,-0.5490830540657043,-57.23439407348633,0.6986696720123291,2.7989754676818848,1.1961641311645508,-20.10312271118164,0.3934915661811828,-25.31479263305664,7.037363052368164,5.737846374511719,1.9139385223388672,101.66535949707033,-14.695230484008787,-5.242033958435059,2.8184971809387207,4.723469734191895,1.4842729568481443,153.01919555664062,-66.34894561767578,137.3072967529297,-6.763099670410156,-0.3976192474365234,7.232933044433594
1347.637626171112,-145.2487335205078,-73.86450958251953,-150.2972412109375,0.1582885086536407,0.0934999287128448,0.1136198043823242,-154.0590362548828,-4.891711711883545,-60.85136413574219,1.2208714485168457,6.538213729858398,-2.84144926071167,-6.261266708374023,5.023453712463379,-25.62510108947754,6.507364273071289,5.702616691589356,1.6146421432495115,106.0064926147461,-30.15120506286621,-1.7818832397460938,5.562925338745117,-0.5237091779708862,0.4141683578491211,156.06002807617188,-68.63434600830078,136.39724731445312,-6.090766906738281,-1.037078619003296,3.43595027923584
1347.687272310257,-174.06837463378906,-62.063846588134766,-121.89898681640624,-0.8193408250808716,0.2996606826782226,3.652566909790039,-49.06346130371094,-73.11385345458984,-91.30966186523438,-4.956523895263672,-3.914144992828369,18.790691375732425,-92.31771850585938,-26.379392623901367,-73.49576568603516,0.232255220413208,-7.576994895935059,7.328104019165039,-73.64337158203125,-51.386474609375,-144.42990112304688,-5.236035346984863,9.540897369384766,14.10399055480957,96.14800262451172,-79.04330444335938,-179.14939880371094,-0.1645185053348541,-1.8030226230621336,1.552167892456055
1347.727779865265,-176.84585571289062,-57.51786422729492,-119.47792053222656,0.0130911525338888,1.6558465957641602,1.635188102722168,-105.30013275146484,-74.38197326660156,-38.802982330322266,-1.8049893379211424,-4.417109489440918,21.915157318115234,-94.84285736083984,-18.39765167236328,-80.40453338623047,17.712051391601562,7.707229614257812,23.041587829589844,-87.54886627197266,-35.867916107177734,-130.53369140625,-14.81483268737793,-9.205877304077148,10.381959915161133,113.47757720947266,-77.28679656982422,163.59262084960938,-4.162509918212891,-5.523097038269043,11.795682907104492
1347.7578027248385,-177.3278350830078,-54.7315788269043,-119.01536560058594,1.6614205837249756,3.4729552268981934,0.887176513671875,-151.1407928466797,-67.25244140625,4.539377689361572,9.62335205078125,-7.472861289978027,19.52071762084961,-81.28137969970703,-6.2220458984375,-84.94224548339844,7.799927711486816,12.53717041015625,-2.70828628540039,-92.25100708007812,-38.37278366088867,-124.5779266357422,-16.32925796508789,-18.019702911376957,13.446916580200195,135.04945373535156,-76.3547134399414,142.699462890625,0.905914545059204,-5.644283294677734,10.744020462036133
1347.7780525684357,-176.57740783691406,-53.86959838867188,-119.50698852539062,1.865278959274292,3.765265941619873,0.4467067718505859,-172.42178344726562,-65.05847930908203,25.592866897583008,10.673057556152344,-1.378272294998169,16.752010345458984,-82.13697052001953,13.322031021118164,-78.67631530761719,18.854835510253903,1.655364990234375,39.697845458984375,-85.04776763916016,-46.07417297363281,-122.22518157958984,-26.301193237304688,-18.143115997314453,2.8345394134521484,149.46034240722656,-73.82170104980469,127.61431121826172,0.5719704627990723,-3.154357433319092,9.036088943481444
1347.807712316513,-175.37103271484375,-54.885536193847656,-120.01307678222656,-2.073948860168457,1.3363652229309082,3.2727270126342773,172.67343139648438,-66.05406188964844,37.98561096191406,1.8673460483551023,-0.4430500268936157,9.57480239868164,-56.52129364013672,29.640769958496094,-65.61085510253906,1.516599178314209,-8.777717590332031,18.166927337646484,-80.23261260986328,-56.78020858764648,-118.41205596923828,-21.53808212280273,-16.893508911132812,-1.4510583877563477,159.39312744140625,-71.49870300292969,118.36876678466795,-2.456765651702881,-4.059048652648926,7.657747268676758
1347.837733745575,-174.0032501220703,-57.368106842041016,-121.0738296508789,-3.500604152679444,2.391333103179932,3.418995857238769,164.35951232910156,-69.8051528930664,46.57532501220703,-4.559944152832031,5.66948127746582,1.5109663009643557,-24.10608673095703,37.68951034545898,-46.67226791381836,-4.843372344970703,-2.940978527069092,4.587224960327148,-75.1961898803711,-66.33946228027344,-112.39727020263672,-17.365638732910156,-15.928112030029297,-6.382323265075684,166.96702575683594,-70.56544494628906,111.76643371582033,-4.167389869689941,-0.003146615345031,8.842737197875977
1347.8669970035553,-172.75169372558594,-61.6257438659668,-123.6146469116211,-1.497464656829834,1.2410452365875244,6.236413955688477,159.8472137451172,-76.94254302978516,52.89814758300781,-2.5732851028442383,5.873220443725586,-6.329556465148926,3.797227382659912,40.80690383911133,-30.63235664367676,-5.409151077270508,-10.722633361816406,4.864943504333496,-76.52351379394531,-72.2633285522461,-100.97127532958984,-10.703720092773438,-13.840553283691406,-9.835140228271484,176.18048095703125,-70.9875259399414,105.3037567138672,-3.937808990478516,1.465620756149292,5.07413387298584
1347.9228451251984,-172.0444793701172,-68.07756805419922,-127.0038070678711,-5.400192260742188,-2.7728939056396484,10.988529205322266,109.95140075683594,-86.7311019897461,103.44578552246094,6.968764305114746,8.911260604858398,-7.7838850021362305,25.788379669189453,44.48469924926758,-22.128480911254883,-2.2440080642700195,-2.0639090538024902,-4.408885955810547,-89.32225799560547,-73.9971923828125,-80.74638366699219,-2.8943915367126465,-12.52579116821289,-11.35207748413086,-174.4764404296875,-70.91840362548828,99.43254852294922,-1.3904244899749756,3.0665345191955566,-2.2983922958374023
1347.9578440189362,-172.40528869628906,-76.40836334228516,-133.65643310546875,-9.30118179321289,-4.20775032043457,-0.3755378723144531,9.81569480895996,-72.71583557128906,-157.42547607421875,0.5304923057556152,1.2530746459960938,-2.3829216957092285,30.175857543945312,49.48377227783203,-19.602876663208008,3.7003674507141113,-0.0793039798736572,-9.294321060180664,-102.85653686523438,-73.19026184082031,-61.282344818115234,1.4205594062805176,-7.486506462097168,-12.149608612060549,-168.87205505371094,-67.57472229003906,97.5555419921875,-0.4424189329147339,0.1320991218090057,-7.717240333557129
1347.9870750904083,179.92022705078125,-80.73953247070312,-127.48933410644533,10.108535766601562,3.081256866455078,-9.129274368286133,5.011352062225342,-52.93946838378906,-155.50491333007812,-15.053869247436523,-10.286731719970703,-7.007424354553223,23.977575302124023,55.219608306884766,-24.01416015625,1.1229782104492188,-2.972529888153076,-12.837539672851562,-111.24991607666016,-71.5406494140625,-47.57195281982422,2.8570632934570312,-5.729665756225586,-11.180524826049805,-164.5290069580078,-64.66253662109375,95.66693115234376,1.6096231937408447,-2.167616367340088,-6.7043046951293945
1348.0172288417816,169.03350830078125,-82.09595489501953,-111.35588836669922,4.6847028732299805,-4.371706008911133,-9.46103286743164,0.0349926054477691,-37.951778411865234,-157.04103088378906,-23.74179458618164,-14.304243087768556,-7.044329643249512,12.411282539367676,60.36930465698242,-36.74399948120117,0.5310003757476807,-5.047043800354004,-13.89533805847168,-114.55013275146484,-70.4178237915039,-40.24790954589844,4.805329322814941,-4.2490997314453125,-6.918813705444336,-158.98269653320312,-63.64580535888672,92.73448944091795,-1.299644947052002,1.0903372764587402,-7.701749801635742
1348.0476303100586,157.05487060546875,-84.23680114746094,-92.75055694580078,6.46528434753418,-1.3062586784362793,-12.71048355102539,-3.098606824874878,-28.234634399414062,-158.94363403320312,-16.014774322509766,-10.385536193847656,-24.708282470703125,-6.562632083892822,62.74959182739258,-61.05990982055664,-0.3325605392456054,-4.497369766235352,-16.067615509033203,-113.9889907836914,-70.4048843383789,-36.095977783203125,4.514711380004883,-0.6481642723083496,-8.647453308105469,-152.52745056152344,-64.61576080322266,90.2811050415039,0.2736582159996032,1.35579252243042,-8.981151580810547
1348.0776417255402,151.08726501464844,-84.26185607910156,-82.12899017333984,-5.504179000854492,25.58878326416016,-4.311931610107422,-5.335158348083496,-25.040786743164062,-159.52459716796875,-16.378875732421875,4.351188659667969,-24.080188751220703,-27.60890007019043,57.97530746459961,-91.04113006591795,-2.113932609558105,-7.078519821166992,-20.65026092529297,-110.5914306640625,-71.20991516113281,-33.718170166015625,6.290045738220215,-1.3055076599121094,-7.811650276184082,-147.2576446533203,-65.60328674316406,87.77606964111328,1.4018776416778564,1.0290861129760742,-8.061452865600586
1348.1074917316437,149.76980590820312,-82.24581909179688,-81.0961685180664,0.5063064098358154,-5.137843132019043,0.0124111175537109,-4.417277812957764,-29.02371025085449,-155.3826141357422,-9.630115509033203,-11.088750839233398,-26.48837661743164,-39.66392135620117,47.9405403137207,-111.30962371826172,-8.033758163452148,-12.946062088012695,-24.82265853881836,-105.46600341796876,-72.95065307617188,-33.28318405151367,5.370772361755371,-1.2777557373046875,-2.9547247886657715,-140.75274658203125,-67.4720687866211,84.74844360351562,0.0570578277111053,-1.0373640060424805,-4.862678527832031
1348.167602777481,151.12648010253906,-80.09573364257812,-79.14014434814453,-0.0518201366066932,-1.4546122550964355,0.5547771453857422,-7.851282119750977,-38.84690475463867,-148.43368530273438,-14.812644958496094,-11.91364288330078,-12.947542190551758,-44.67949295043945,41.50411605834961,-120.70555114746094,-8.129276275634766,3.495361328125,-15.701154708862305,-100.85006713867188,-73.99541473388672,-32.31254577636719,7.429819107055664,-3.813650131225586,0.093240737915039,-139.6028289794922,-68.1448974609375,84.91078186035156,2.8682427406311035,0.7378660440444946,1.194414138793945
1348.1973469257357,149.24322509765625,-77.64783477783203,-75.41455078125,1.0990426540374756,-3.9146666526794434,2.210890769958496,-16.190874099731445,-50.32560729980469,-139.74295043945312,-7.1710405349731445,-20.601428985595703,-6.340651512145996,-55.57290649414063,45.96797180175781,-114.33234405517578,-6.132909774780273,-0.1399950981140136,-2.6578564643859863,-107.24134063720705,-74.127685546875,-25.66085624694824,11.650949478149414,-4.267409324645996,-1.787698745727539,-142.55079650878906,-68.84944915771484,86.08856964111328,3.613588809967041,1.16167950630188,3.415037155151367
1348.222351312637,144.75674438476562,-75.45228576660156,-69.39734649658203,0.692693829536438,-0.7788265943527222,5.445950508117676,-24.14603805541992,-61.6141471862793,-133.3073272705078,2.832901954650879,-21.512107849121094,0.9914379119873048,-49.914512634277344,53.1263542175293,-96.31974029541016,-18.662452697753903,-8.552324295043945,-12.937870025634766,-122.34762573242188,-72.37928771972656,-17.756433486938477,8.856039047241211,-3.9073328971862793,-1.3439664840698242,-143.6494140625,-70.2977523803711,85.39437866210938,-6.267295837402344,-0.6946746110916138,2.477035522460937
1348.2564873695374,135.2942657470703,-74.57749938964844,-58.88142395019531,2.29807186126709,-2.031625747680664,3.2909326553344727,-19.045907974243164,-64.70848846435547,-135.34622192382812,13.458158493041992,5.624194145202637,-0.1552104949951172,-31.65145492553711,54.48005294799805,-71.18148803710938,-9.20145034790039,-7.475086212158203,-20.82622528076172,-138.9518585205078,-70.39997863769531,-13.063885688781738,8.947816848754883,-1.4829962253570557,3.99775505065918,-143.8935546875,-71.61431884765625,83.4486083984375,-2.352378845214844,1.327731370925903,2.5560836791992188
1348.2876632213593,127.33297729492188,-73.0728759765625,-50.62837219238281,0.7590968608856201,-2.551155567169189,0.1404323577880859,-16.558191299438477,-67.33282470703125,-138.8360137939453,-3.311910629272461,5.285900115966797,6.6082305908203125,-20.19198608398437,49.821868896484375,-50.17647552490234,-4.809165954589844,-4.009398460388184,-6.189104080200195,-149.863037109375,-69.95921325683594,-10.5538911819458,11.044475555419922,6.646389007568359,-0.0552453994750976,-145.51620483398438,-71.20711517333984,82.08406829833984,9.145679473876951,0.3675909638404846,0.1952657699584961
1348.3177931308746,121.28346252441406,-71.2016830444336,-48.480499267578125,3.3208508491516118,-1.5692617893218994,4.987392425537109,-15.37472915649414,-69.98741149902344,-141.8802490234375,-3.4606337547302246,-10.771268844604492,-2.475528717041016,-18.31470489501953,42.99652099609375,-37.39106369018555,-1.1096444129943848,1.0929551124572754,1.2992610931396484,-156.10614013671875,-71.27741241455078,-7.770514011383057,4.692675590515137,-0.2759543061256408,0.1498146057128906,-150.23463439941406,-69.99759674072266,83.14910888671875,5.560599327087402,-3.3745665550231934,-2.2717719078063965
1348.376799106598,117.41301727294922,-69.59198760986328,-54.14982986450195,11.611083984375,2.048184394836426,4.013411521911621,-11.3997163772583,-71.678466796875,-146.39744567871094,-2.75044584274292,-6.618124008178711,-6.490876197814941,-21.498645782470703,36.61637115478516,-29.375917434692383,1.675053358078003,5.42901611328125,12.26817512512207,-168.16696166992188,-73.21669006347656,-1.7647844552993774,-4.021030426025391,4.685162544250488,0.9376516342163086,-154.72276306152344,-68.05745697021484,83.2972640991211,3.1565194129943848,-0.9954043626785278,2.516169548034668
1348.3848712444303,126.02312469482422,-65.1430435180664,-71.52662658691406,25.108051300048828,13.36734390258789,3.1997241973876958,-12.370074272155762,-72.58483123779297,-147.32073974609375,-7.4606428146362305,-3.807953357696533,0.5971784591674805,-27.680551528930664,27.82462882995605,-23.03337287902832,-5.826045036315918,-0.1789376735687255,0.9158458709716796,-176.10391235351562,-75.30802917480469,4.107662677764893,-7.106931686401367,7.586526870727539,-0.9398593902587892,-155.6649627685547,-66.82604217529297,82.35433197021484,0.2798637151718139,2.2352771759033203,0.6406459808349609
1348.40797996521,139.18966674804688,-56.2205810546875,-89.86705017089844,11.397012710571287,7.386456489562988,7.325786590576172,-19.607271194458008,-74.1969985961914,-141.85548400878906,-5.748075485229492,-0.2261007726192474,-2.81753158569336,-33.126243591308594,18.223363876342773,-16.627233505249023,3.928466796875,-7.567782402038574,10.530405044555664,179.20535278320312,-76.71436309814453,10.775413513183594,-7.415945053100586,1.7979092597961426,1.9016380310058596,-156.15921020507812,-67.5263900756836,82.774169921875,0.7081050872802734,2.525975227355957,-3.410130023956299
1348.43759059906,146.85928344726562,-44.87865447998047,-103.71222686767578,2.1310067176818848,-0.3011975288391113,-0.5812711715698242,-22.71196746826172,-75.65618133544922,-139.2147216796875,-5.2012939453125,-1.4771292209625244,0.5516195297241211,-27.620006561279297,9.324029922485352,-10.456908226013184,0.7244992256164551,-2.106442451477051,-2.2014894485473637,171.367431640625,-76.98827362060547,22.55891227722168,-4.095398902893066,0.5150055885314941,1.273045539855957,-157.57550048828125,-66.8549575805664,84.08750915527344,4.484240531921387,1.758324384689331,1.1470212936401367
1348.4973061084747,150.869140625,-33.41795349121094,-114.08882904052734,-4.863698959350586,-0.9218558073043824,-5.301065444946289,-21.356821060180664,-76.99835968017578,-139.59381103515625,-4.829992294311523,-3.116978645324707,-0.3792657852172851,-25.37759780883789,0.2729864418506622,-4.154292106628418,1.5570437908172607,7.289926528930664,-6.463679313659668,162.49415588378906,-76.36337280273438,38.6299057006836,-1.2068259716033936,0.9066116809844972,-0.2011146545410156,-156.83900451660156,-66.4609146118164,84.05416870117188,7.37122917175293,3.318500518798828,2.8060789108276367
1348.5220243930817,153.4086456298828,-23.207544326782227,-120.97173309326172,-2.7249488830566406,0.5595788955688477,-10.533184051513672,-21.582406997680664,-78.45006561279297,-138.2432403564453,-1.747657299041748,-6.162737846374512,-4.325239181518555,-32.391632080078125,-9.347737312316896,0.5070763230323792,0.1176033020019531,3.041886806488037,-6.7221221923828125,157.52272033691406,-75.31272888183594,53.063133239746094,1.0787882804870603,-1.6571621894836426,-1.8929228782653809,-155.68820190429688,-67.37700653076172,83.28386688232422,3.020548820495605,3.02608585357666,0.988739013671875
1348.5575399398804,154.78018188476562,-15.453286170959473,-126.35679626464844,-3.41602087020874,2.1811084747314453,-9.680959701538086,-26.43998336791992,-79.8194580078125,-132.73089599609375,-4.152640342712402,-4.575701713562012,-1.7634220123291016,-38.94305419921875,-20.78713035583496,4.594331741333008,3.6758627891540527,-2.94130802154541,-2.069291591644287,153.83602905273438,-73.45967864990234,63.41172790527344,3.922839164733887,-5.006717681884766,-2.870150089263916,-153.7291259765625,-69.39970397949219,81.87028503417969,0.0260057300329208,2.392200469970703,-4.52078914642334
1348.5870876312256,156.4029541015625,-10.8180570602417,-130.4500732421875,-3.631618022918701,-0.7852513790130615,-13.196025848388672,-39.3419189453125,-80.75446319580078,-119.92281341552734,-3.748286247253418,-4.028907775878906,-2.816612720489502,-41.09627151489258,-34.58298110961914,9.678049087524414,6.986347198486328,1.81852126121521,-2.679115295410156,145.26036071777344,-70.3006820678711,69.64736938476562,7.015859603881836,-5.539872169494629,-0.7686166763305664,-152.74465942382812,-71.28172302246094,81.92164611816406,3.287320137023926,2.776909351348877,-3.45098876953125
1348.6173486709597,160.16310119628906,-11.107919692993164,-133.60879516601562,-10.247692108154297,-3.3870744705200195,-12.760848999023438,-56.16865539550781,-81.11995697021484,-103.50012969970705,-4.949779510498047,-2.2787466049194336,-1.1461448669433594,-44.730587005615234,-50.84766006469727,12.259028434753418,15.66995620727539,8.577529907226562,14.896316528320312,134.57363891601562,-66.98805236816406,75.35576629638672,9.99884033203125,0.4323620200157165,0.7916498184204102,-152.13388061523438,-72.19280242919922,81.85578918457031,3.2756052017211914,1.3750722408294678,-1.7367868423461914
1348.6475400924685,160.97866821289062,-17.55458641052246,-135.2878875732422,-20.638015747070312,-10.661558151245115,-7.044589042663574,-70.43065643310547,-81.41236114501953,-89.56015014648438,-4.678488731384277,-3.300907611846924,-0.7048215866088867,-36.93959045410156,-63.67511367797852,1.434063196182251,14.388864517211914,8.448463439941406,33.664527893066406,118.82989501953124,-62.82453918457031,86.03060150146484,12.667743682861328,-4.160280227661133,12.874666213989258,-150.5895233154297,-73.46737670898438,81.0797119140625,1.1142423152923584,1.2147305011749268,-1.8294692039489744
1348.677748918533,162.64895629882812,-21.319896697998047,-134.44790649414062,-26.67058563232422,-3.9645566940307617,41.072540283203125,-83.94866180419922,-82.22095489501953,-77.2008056640625,-6.342923164367676,-3.4398903846740723,-1.3430557250976562,-27.93366241455078,-63.813472747802734,-9.031009674072266,18.514339447021484,9.627920150756836,11.33319854736328,100.38265991210938,-53.94401550292969,101.70989227294922,16.719966888427734,6.067127227783203,23.292049407958984,-151.25173950195312,-74.20608520507812,82.06776428222656,2.015625476837158,-2.5418272018432617,2.813844680786133
1348.707498073578,164.33126831054688,-16.164703369140625,-129.49972534179688,-14.554073333740234,-13.850448608398438,21.68867874145508,-97.77913665771484,-83.50774383544922,-65.21690368652344,-5.320126533508301,-3.343677520751953,0.4621381759643554,-39.31982421875,-52.33208465576172,-4.271476268768311,19.661590576171875,-14.66684341430664,21.142803192138672,94.69929504394533,-39.81843185424805,112.89990997314452,17.067626953125,5.128433227539063,16.800994873046875,-154.7779083251953,-71.06704711914062,85.9905014038086,-0.3713824152946472,-1.1564323902130127,5.313754081726074
1348.737497091293,167.51202392578125,-7.160682201385498,-126.07218170166016,-20.023303985595703,-12.2940673828125,15.710367202758787,-91.6233367919922,-85.58279418945312,-72.66031646728516,-5.398162841796875,-5.736193656921387,-0.9887123107910156,-44.99415969848633,-37.7158203125,-8.03222370147705,25.762191772460938,-16.233287811279297,0.0040645599365234,104.43402862548828,-25.535888671875,116.28648376464844,4.8014326095581055,-0.9755606651306152,6.68218994140625,-159.61080932617188,-68.30777740478516,90.86785888671876,1.3979716300964355,1.2324602603912354,12.969856262207031
1348.767599582672,163.56126403808594,0.7834303975105286,-124.38928985595705,-10.511817932128906,-9.986160278320312,2.1690988540649414,-47.6855354309082,-85.8992691040039,-118.08363342285156,-6.993038177490234,-5.949230194091797,-0.495950698852539,-54.18787384033203,-26.944732666015625,-18.584970474243164,2.897831439971924,-20.869091033935547,-3.6852874755859375,114.3984832763672,-12.02068042755127,115.606201171875,8.418207168579102,-0.5689718723297119,17.25152587890625,-160.27581787109375,-68.64524841308594,91.72742462158205,4.801547050476074,5.989824295043945,9.597663879394531
1348.8224380016327,160.924560546875,4.4697585105896,-124.10005950927734,-1.5424509048461914,-1.1023423671722412,-10.475873947143556,-18.85090065002441,-81.64389038085938,-149.2434844970703,-7.850981712341309,-5.804875373840332,1.787236213684082,-59.73883056640625,-24.563650131225582,-33.20607376098633,-8.96584701538086,-7.200429916381836,-4.047511100769043,114.29174041748048,0.5052579045295715,111.9385223388672,5.396451950073242,4.851837158203125,-0.2110633850097656,-163.07041931152344,-69.12950897216797,92.73531341552734,10.923969268798828,5.864544868469238,7.141664505004883
1348.8575327396393,162.15966796875,2.03570556640625,-124.52375030517578,0.1949928104877472,2.7438268661499023,-21.70224380493164,-3.006791114807129,-71.54999542236328,-162.9434814453125,2.2294883728027344,0.4974967837333679,12.933900833129885,-63.11809158325195,-29.29831886291504,-45.63996505737305,-10.511749267578123,-1.9163730144500728,0.0684423446655273,112.11473846435548,10.302207946777344,108.91844940185548,8.082328796386719,4.905845642089844,-0.3180961608886719,-167.70872497558594,-69.68067169189453,92.94566345214844,7.178389549255371,2.0281472206115723,3.261920928955078
1348.8870372772217,163.79124450683594,-7.466791152954102,-125.67408752441406,-4.305225372314453,0.7846026420593262,-26.563236236572266,2.363572359085083,-67.3651351928711,-164.2852020263672,-4.987168312072754,-3.6347131729125977,-7.74807071685791,-64.55744934082031,-37.161922454833984,-55.280704498291016,-8.27438735961914,0.6800389289855957,-2.892667293548584,104.4328384399414,17.671567916870117,108.35962677001952,4.744175910949707,0.7194485664367676,-0.044661521911621,-174.5392303466797,-70.13301086425781,94.24090576171876,2.338967800140381,0.3532819151878357,-3.907861709594727
1348.9179656505585,162.03643798828125,-22.583654403686523,-127.49134063720705,-9.09251594543457,-4.2667341232299805,-23.09907913208008,0.6703812479972839,-69.16141510009766,-162.4397430419922,-6.942569732666016,-7.002180099487305,-10.634084701538086,-63.35541534423828,-45.48655700683594,-65.19559478759766,-2.917202472686768,3.2772321701049805,-1.8559236526489256,90.64041137695312,22.992706298828125,108.5353012084961,-0.9200547933578492,-3.091775894165039,-5.878532409667969,179.41873168945312,-69.33512878417969,95.61387634277344,-2.955972671508789,-1.6900296211242676,-7.549763679504394
1348.948397397995,159.70094299316406,-41.56117630004883,-129.67776489257812,-8.850217819213867,-5.67976188659668,-9.639225006103516,-5.677198886871338,-71.0336685180664,-158.75021362304688,6.618762016296387,4.981683731079102,-7.280916213989258,-60.47057342529297,-51.65104675292969,-76.9133071899414,-5.250471115112305,3.640594005584717,-4.720521926879883,77.59147644042969,26.013446807861328,110.98399353027344,-2.762507915496826,-5.496853828430176,-10.179931640625,178.72543334960938,-69.18938446044922,94.06187438964844,-3.994044303894043,1.6648309230804443,-10.474971771240234
1348.977394580841,158.86416625976562,-63.499168395996094,-134.37904357910156,-6.015505790710449,-1.5115301609039309,10.488325119018556,-9.678529739379885,-69.73399353027344,-158.35716247558594,-10.533260345458984,-2.605867862701416,-12.8973388671875,-56.85417556762695,-55.76800155639648,-88.10417175292969,-4.729494094848633,5.55674934387207,-7.021913528442383,68.76058197021484,26.760631561279297,117.04847717285156,-1.5533854961395264,-2.853200435638428,-11.219654083251951,177.94210815429688,-70.31613159179688,92.44232177734376,2.8203039169311523,1.8931560516357424,-9.159379959106444
1349.0069925785065,-170.56854248046875,-85.61563873291016,-171.7519989013672,0.3575429320335388,4.869322776794434,23.00553131103516,-16.700483322143555,-70.50353240966797,-156.48724365234375,-3.773014068603516,-1.6130177974700928,-5.39729118347168,-51.69203567504883,-58.40265274047852,-97.9907684326172,-2.0996861457824707,5.6687726974487305,-7.39796257019043,65.5616226196289,26.7475528717041,127.62084197998048,-5.582062721252441,2.9715609550476074,-9.119325637817385,173.84754943847656,-71.65339660644531,92.90496826171876,3.846189498901367,-0.2502279877662658,-9.530485153198242
1349.057297706604,-37.98308563232422,-72.78491973876953,53.12472915649414,9.999917984008787,14.055423736572266,23.47300720214844,-21.451478958129883,-71.27311706542969,-154.62522888183594,-2.3445754051208496,-7.795821189880371,-3.941963195800781,-47.745975494384766,-60.45367813110352,-105.17003631591795,-1.9342899322509768,4.670629501342773,-8.341781616210938,64.09154510498047,26.005651473999023,142.76348876953125,-18.691486358642575,5.685792922973633,-9.344207763671877,169.16067504882812,-72.73050689697266,94.15724182128906,0.2397340238094329,-0.4711588025093078,-5.375916481018066
1349.0672833919523,-25.407215118408203,-62.09609222412109,41.00737762451172,24.451171875,14.743230819702148,-41.46387481689453,-30.273839950561523,-72.80459594726562,-149.2035675048828,-1.5084145069122314,-1.127955675125122,-2.139601707458496,-44.74065399169922,-62.9768180847168,-109.35533142089844,-0.462653636932373,7.593382835388184,-5.006290435791016,63.6702880859375,24.148906707763672,160.16165161132812,-28.672504425048828,6.8564958572387695,-20.122528076171875,169.242431640625,-73.3883285522461,91.72209167480467,0.2875671982765198,-2.9001994132995605,-4.547698974609375
1349.12255859375,-26.699357986450195,-62.30741882324219,37.76650619506836,8.129901885986328,3.0143942832946777,2.034921646118164,-41.673561096191406,-74.11908721923828,-139.3414306640625,-0.2265237867832183,-6.0743408203125,-2.4864158630371094,-40.4061279296875,-65.58521270751953,-111.3601531982422,-0.0170068740844726,6.174962043762207,-2.366598606109619,72.12918853759766,25.092283248901367,166.711669921875,12.196578979492188,-7.15177059173584,-2.7622642517089844,174.73927307128906,-72.15110778808594,85.13328552246094,2.284543514251709,-4.122805595397949,1.416304588317871
1349.1577198505402,-27.570934295654297,-64.36603546142578,35.78232955932617,9.96550178527832,4.852118492126465,-7.744260787963867,-53.49813461303711,-74.67826080322266,-128.09661865234375,-3.7269020080566406,-7.577679634094238,1.2581462860107422,-38.19998550415039,-67.31361389160156,-110.95841217041016,0.4178698062896728,2.8749866485595703,1.148341178894043,74.7491226196289,29.286365509033203,161.2206268310547,-4.60761833190918,-16.85437774658203,1.7626028060913086,175.7549591064453,-72.95654296875,82.87265014648438,-0.859879732131958,3.2405056953430176,3.261002540588379
1349.1872715950012,-20.79547691345215,-69.73880004882812,31.51600646972656,6.125499725341797,-5.457143783569336,1.6543092727661133,-61.13326644897461,-73.96340942382812,-120.0857391357422,-6.038791656494141,-1.2354607582092283,4.749544143676758,-40.98468017578125,-67.9373550415039,-108.7742919921875,1.7461349964141846,1.6141517162322998,1.5389509201049805,72.74390411376953,34.15802001953125,154.5084228515625,1.3489162921905518,5.201483726501465,-10.38880729675293,177.6378631591797,-73.99832153320312,80.45365142822266,0.1510482728481292,6.421338081359863,0.0210504531860351
1349.2172811031342,-6.37367057800293,-77.03030395507812,26.72041320800781,10.334951400756836,6.253361701965332,-4.211450576782227,-66.07611083984375,-72.50055694580078,-115.09912872314452,-3.946498394012451,-4.968840599060059,3.772550582885742,-46.3248291015625,-68.89674377441406,-104.92375946044922,2.2343297004699707,4.830182075500488,2.221149444580078,71.65773010253906,44.0040283203125,142.42498779296875,-16.221954345703125,7.258923530578613,-3.997987747192383,-176.9132843017578,-73.93270111083984,75.33447265625,7.418902397155762,1.331162691116333,3.3796606063842773
1349.2474324703217,17.419841766357422,-84.24620056152344,9.81539535522461,-9.06085968017578,-10.155845642089844,11.615106582641602,-66.87185668945312,-70.26671600341797,-113.10733032226562,-5.068581581115723,-6.053616523742676,0.8597097396850586,-48.92121505737305,-71.62405395507812,-100.2831573486328,2.9890565872192383,2.5572938919067383,3.693264961242676,61.19416427612305,56.0623893737793,118.41617584228516,-14.607513427734377,16.73186492919922,-17.73700714111328,-173.6352996826172,-73.81907653808594,73.38240051269531,6.061596870422363,-1.5441834926605225,4.232623100280762
1349.2870168685913,18.88858795166016,-88.20082092285156,7.007497787475586,-0.4409615397453308,-18.374099731445312,6.221721649169922,-62.86081314086914,-67.2622299194336,-115.50148010253906,-3.743244647979736,-7.042920112609863,-0.222635269165039,-51.74287033081055,-76.0372314453125,-95.11676025390624,4.516571044921875,-2.8861775398254395,7.668424606323242,43.7933464050293,65.06784057617188,84.63912200927734,-0.1289770305156707,8.516061782836914,-7.205687522888184,-172.72288513183594,-72.66292572021484,73.91820526123047,0.1340532302856445,-0.050534039735794,2.7760963439941406
1349.3168025016785,169.66590881347656,-88.37393951416016,-140.45216369628906,-0.8280855417251587,-2.854159355163574,-0.8683309555053711,-58.73427963256836,-63.83780288696289,-116.47484588623048,0.1546595990657806,-7.938709259033203,-0.3277626037597656,-62.82198333740234,-79.58104705810547,-86.30876922607422,3.754205703735352,1.6339442729949951,8.231901168823242,19.579330444335938,66.57828521728516,45.47663497924805,5.91975212097168,-10.137025833129885,-6.63065242767334,-174.180419921875,-71.28321075439453,76.82476043701172,-1.71683669090271,-1.451695203781128,2.827489852905273
1349.3377084732056,175.56471252441406,-86.02896881103516,-139.58375549316406,0.0856416672468185,6.739736557006836,3.1312408447265625,-51.80561828613281,-61.54570007324219,-114.73516845703124,-5.5948028564453125,-16.675334930419922,-5.583234786987305,-75.40347290039062,-80.89079284667969,-71.7892837524414,1.1914126873016355,4.996908187866211,2.9824838638305664,19.71515274047852,63.88156509399414,23.8109073638916,2.977157592773437,-21.38317108154297,4.934338569641113,-179.09930419921875,-69.65564727783203,83.59163665771484,-2.904381275177002,0.6087453365325928,-1.760085105895996
1349.3924050331116,179.41929626464844,-83.91114807128906,-142.21937561035156,-1.9173808097839355,4.316634178161621,0.1952400207519531,-43.91800308227539,-62.14452362060547,-109.3236846923828,-26.026172637939453,-23.242191314697266,-13.931133270263672,-74.22802734375,-80.11222839355469,-66.03091430664062,-2.09965181350708,0.6771918535232544,-2.4402294158935547,56.02254486083984,59.01862716674805,27.38776397705078,-4.808915138244629,-26.442455291748047,-16.02947235107422,178.3395233154297,-67.3134994506836,91.44611358642578,-8.428253173828125,0.3560578823089599,-3.607863426208496
1349.4226875305176,-171.728515625,-81.8443374633789,-151.36814880371094,-2.868055820465088,2.8039937019348145,0.5535621643066406,-49.54853820800781,-67.08451843261719,-94.35930633544922,-13.78073501586914,-21.57958984375,-14.239168167114258,-69.4854507446289,-77.47859191894531,-67.35816192626953,-5.515281677246094,-2.7600393295288086,-4.003238677978516,87.90391540527344,47.42913055419922,37.10141754150391,10.71695327758789,30.292068481445312,20.67865753173828,-178.7949981689453,-66.20216369628906,96.1178741455078,-5.078677177429199,-0.5195039510726929,-0.1477813720703125
1349.4568984508514,-164.6419219970703,-79.85396575927734,-158.8240509033203,1.4354217052459717,1.1173007488250732,1.0471134185791016,-76.32467651367188,-72.81578063964844,-65.40211486816406,-4.312763214111328,-10.552982330322266,-9.761707305908203,-62.587310791015625,-74.49432373046875,-73.00910186767578,-7.961586952209473,-4.6212663650512695,0.8567266464233398,92.84986877441406,32.760616302490234,39.601318359375,7.894294738769531,-2.668668746948242,-1.6893186569213867,-176.32962036132812,-66.1137466430664,97.64932250976562,7.570110321044922,3.9074296951293945,4.303281784057617
1349.4874742031095,-159.7466278076172,-78.48019409179688,-164.28623962402344,0.5212031602859497,0.9077707529067992,0.9228401184082032,-116.62482452392578,-74.16909790039062,-26.9480037689209,0.1521600484848022,2.326216220855713,-5.864970207214356,-56.09663772583008,-72.0870590209961,-78.11929321289062,-5.387630462646484,-4.496706962585449,3.496525764465332,99.6014633178711,15.630119323730469,37.570579528808594,10.852062225341797,16.846969604492188,15.317832946777344,179.82081604003906,-65.69144439697266,100.9922866821289,3.257689476013184,3.213640689849853,1.193359375
1349.517480134964,-156.5968780517578,-77.72709655761719,-168.2777557373047,0.5922480821609497,-0.3931910395622253,0.5312013626098633,-147.15603637695312,-71.67507934570312,0.3292846977710724,-0.7982742786407471,2.4773240089416504,-5.985077857971191,-49.24428939819336,-70.23087310791016,-82.17667388916016,-1.195490837097168,-3.948402404785156,0.3885374069213867,91.7008819580078,-3.715464591979981,30.751298904418945,16.541542053222656,9.096771240234377,-7.495981216430664,173.15988159179688,-65.47421264648438,105.73870849609376,-4.644559860229492,2.679121494293213,0.5329074859619141
1349.5475568771362,-155.99295043945312,-76.94593048095703,-169.2573699951172,-1.4602198600769043,-1.5028929710388184,-0.0158958435058593,-170.57041931152344,-69.22509765625,17.539478302001953,0.0077903904020786,-0.1758389770984649,-6.582436561584473,-46.483924865722656,-68.58108520507812,-84.18706512451172,3.4318270683288574,-2.517216682434082,-2.439244270324707,90.06697082519531,-23.100004196166992,26.597095489501957,29.54309463500977,9.257482528686523,11.58323097229004,168.34934997558594,-65.32717895507812,108.7457046508789,-4.374731063842773,-0.2206065952777862,0.5128002166748047
1349.577615737915,-162.01766967773438,-75.25874328613281,-163.83277893066406,-2.3338451385498047,-3.27100133895874,0.5576601028442383,169.77635192871094,-68.23921966552734,30.89833068847656,3.5090484619140625,9.052204132080078,-2.6280078887939453,-46.132511138916016,-66.2824478149414,-86.6868896484375,-0.1201457977294921,2.1586222648620605,-2.5442986488342285,86.38667297363281,-37.23301696777344,25.86847305297852,18.51453399658203,2.239898681640625,8.97415542602539,164.75186157226562,-66.28069305419922,111.55501556396484,0.7742332220077515,0.293847918510437,-5.078530311584473
1349.6073153018951,-172.8764190673828,-72.64281463623047,-149.96005249023438,-3.157586574554444,-3.639170646667481,-1.387681007385254,160.51278686523438,-71.26248931884766,42.35385513305664,6.451371192932129,17.173301696777344,-4.450198173522949,-43.15190124511719,-62.72417449951172,-90.02398681640625,-0.1056436896324157,1.440032720565796,-5.371253967285156,83.76020812988281,-41.267578125,24.432788848876957,4.352174758911133,-6.371308326721191,-6.12923526763916,160.94979858398438,-67.47875213623047,114.1613540649414,3.852540969848633,1.0231294631958008,-8.733404159545898
1349.6373581886292,179.69955444335938,-69.48014831542969,-134.70697021484375,0.1661872267723083,0.5151259899139404,-3.638407230377197,157.18875122070312,-71.74884796142578,46.52623748779297,-8.615377426147461,-4.873627662658691,16.025123596191406,-41.42575454711914,-57.86344909667969,-92.85563659667967,1.6412901878356934,-0.3431571125984192,-7.376333236694336,82.03282165527344,-40.32621765136719,23.628662109375,7.632955551147461,-3.540367126464844,-5.748549461364746,154.98416137695312,-68.16812133789062,118.05339050292967,1.658865213394165,2.178108692169189,-5.190512657165527
1349.6922326087952,176.3381805419922,-65.10549926757812,-124.38424682617188,3.930868625640869,-0.1046688854694366,-0.7132177352905273,151.50650024414062,-71.21524810791016,44.21913528442383,1.0628361701965332,6.019772529602051,10.733762741088867,-43.1589469909668,-52.62568664550781,-94.60742950439452,1.1192269325256348,4.142230033874512,-1.8604402542114256,83.3504409790039,-39.45509338378906,26.71706771850586,15.006824493408203,1.0573155879974363,-5.846290588378906,144.6703338623047,-68.85688781738281,126.4213409423828,-5.40614128112793,0.2351244390010833,-2.7643346786499023
1349.7231695652008,176.04673767089844,-60.09026336669922,-121.02642059326172,4.187449455261231,-1.960132598876953,0.3461170196533203,149.17166137695312,-72.8344955444336,42.982940673828125,1.6498279571533203,1.9953587055206297,11.37493133544922,-45.319602966308594,-47.09552001953125,-94.41944885253906,2.527358055114746,3.527286529541016,6.143567085266113,89.18647003173828,-38.14190673828125,30.325374603271484,10.37508773803711,9.601343154907228,1.1669940948486328,140.0951385498047,-68.63764953613281,131.87933349609375,-4.99184513092041,-1.7242100238800049,0.4776792526245117
