Timestamp,D4:22:CD:00:05:5D_EulerX,D4:22:CD:00:05:5D_EulerY,D4:22:CD:00:05:5D_EulerZ,D4:22:CD:00:05:5D_FreeAccX,D4:22:CD:00:05:5D_FreeAccY,D4:22:CD:00:05:5D_FreeAccZ,D4:22:CD:00:05:5E_EulerX,D4:22:CD:00:05:5E_EulerY,D4:22:CD:00:05:5E_EulerZ,D4:22:CD:00:05:5E_FreeAccX,D4:22:CD:00:05:5E_FreeAccY,D4:22:CD:00:05:5E_FreeAccZ,D4:22:CD:00:05:6B_EulerX,D4:22:CD:00:05:6B_EulerY,D4:22:CD:00:05:6B_EulerZ,D4:22:CD:00:05:6B_FreeAccX,D4:22:CD:00:05:6B_FreeAccY,D4:22:CD:00:05:6B_FreeAccZ,D4:22:CD:00:05:6E_EulerX,D4:22:CD:00:05:6E_EulerY,D4:22:CD:00:05:6E_EulerZ,D4:22:CD:00:05:6E_FreeAccX,D4:22:CD:00:05:6E_FreeAccY,D4:22:CD:00:05:6E_FreeAccZ,D4:22:CD:00:49:AA_EulerX,D4:22:CD:00:49:AA_EulerY,D4:22:CD:00:49:AA_EulerZ,D4:22:CD:00:49:AA_FreeAccX,D4:22:CD:00:49:AA_FreeAccY,D4:22:CD:00:49:AA_FreeAccZ
441.3180592060089,149.89553833007812,-74.53378295898438,-48.51005935668945,-1.908339262008667,-2.157468318939209,-1.4632158279418943,-106.37303161621094,-83.4179916381836,-90.24053192138672,7.910720825195312,-7.305854797363281,2.445476531982422,-22.263301849365234,27.51911735534668,-115.36648559570312,-20.794937133789062,-30.383399963378903,-16.249374389648438,-160.6284637451172,-75.6799545288086,-9.304699897766112,4.017388343811035,-3.658864498138428,-1.732264518737793,159.78822326660156,-75.87159729003906,159.0473175048828,-0.6258056163787842,-0.7269092798233032,-2.101363182067871
441.337509393692,-127.4048843383789,-58.57666015625,-79.89567565917969,-7.817581176757812,-6.24867057800293,-1.752345085144043,-169.5478973388672,-78.72856903076172,-27.570087432861328,2.6686654090881348,5.740517616271973,10.21701431274414,-48.783050537109375,-62.52696228027344,-107.0201187133789,5.027349472045898,-0.6043038368225098,16.93756103515625,-178.58712768554688,-70.30318450927734,2.572649955749512,10.426816940307615,-0.4338021874427795,3.994866371154785,156.6735382080078,-74.26728057861328,160.9547882080078,-4.580728530883789,-2.874114990234375,5.084676742553711
441.38432812690735,170.95616149902344,-58.63032913208008,-30.880067825317383,-0.1519438624382019,0.5369620323181152,1.4334850311279297,-149.52447509765625,-73.12312316894531,-35.42220687866211,3.283550262451172,0.4253323674201965,-1.9843215942382808,-43.6318244934082,-22.551549911499023,-113.35248565673828,-3.825660228729248,6.658044815063477,19.72991180419922,-171.3571319580078,-63.10408401489258,-43.22703170776367,-4.839686393737793,-3.016185760498047,9.136512756347656,158.0364227294922,-76.43115997314453,126.5244369506836,0.2192246317863464,1.991206407546997,5.1754150390625
441.4143280982971,169.37522888183594,-59.47602462768555,-31.254003524780277,-0.5127789974212646,0.2889074683189392,1.537618637084961,-142.79043579101562,-76.55274200439453,-40.86104583740234,4.499889373779297,3.303730010986328,-2.473041534423828,-39.79347610473633,-2.338259220123291,-107.54630279541016,-3.51667594909668,-6.719379425048828,3.872462272644043,172.67523193359375,-61.05572509765625,-19.16848564147949,-4.308864593505859,-1.754223346710205,6.534873962402344,150.9189453125,-78.76465606689453,134.10813903808594,-2.1830601692199707,1.2289721965789795,3.627066612243652
441.4443280696869,169.0784149169922,-61.15171432495117,-32.86072540283203,-0.5626429319381714,0.4913643002510071,1.744546890258789,-82.36726379394531,-78.63384246826172,-97.96392822265624,0.4901630282402038,1.8440728187561035,-2.548202514648437,-31.18640899658203,12.584190368652344,-104.84335327148438,-7.845932960510254,-11.137710571289062,-0.05853271484375,171.89967346191406,-61.94918823242188,-10.294737815856934,-5.358244895935059,-8.253093719482422,3.020059585571289,149.24383544921875,-81.11971282958984,136.22482299804688,-2.523834705352783,1.2693333625793457,2.1693191528320312
441.47686314582825,169.78857421875,-63.404727935791016,-34.94112014770508,0.715996265411377,0.7249819040298462,2.1891355514526367,-45.28138732910156,-72.51094055175781,-135.04556274414062,-0.912084460258484,-0.5776472091674805,-2.5671396255493164,-20.42841911315918,24.098358154296875,-104.8815460205078,-7.880468368530273,-10.795049667358398,-4.145491600036621,171.94541931152344,-65.93527221679688,-4.045773506164551,-2.199624538421631,-8.598052978515625,-0.169102668762207,150.9021453857422,-82.98037719726562,134.61021423339844,-2.1309690475463867,-0.6387555599212646,1.3725290298461914
441.5043230056762,169.27182006835938,-66.2777099609375,-36.16303634643555,1.682060956954956,0.3074128031730652,1.878461837768555,-28.61135673522949,-64.93272399902344,-154.73936462402344,-5.651253700256348,-2.1593031883239746,-1.4202136993408203,-10.69651222229004,33.4611930847168,-105.88371276855467,-7.060256004333496,-4.120583534240723,-6.087270736694336,179.06504821777344,-71.99872589111328,-3.139989137649536,-1.5376601219177246,-8.007844924926758,-1.877825736999512,155.3884735107422,-84.01548767089844,130.5812225341797,-1.7063941955566406,-1.7105565071105957,-0.8356819152832031
441.534334897995,167.39735412597656,-69.770751953125,-35.928428649902344,2.97482967376709,0.8649541139602661,-0.0871391296386718,-22.225811004638672,-58.44267272949219,-166.95115661621094,-11.433090209960938,-2.9645395278930664,-1.8249115943908687,-3.5565152168273926,40.68089294433594,-105.92757415771484,-5.776911735534668,0.7368905544281006,-3.403204917907715,-161.76283264160156,-77.53517150878906,-13.618778228759766,-1.883030652999878,-8.03744888305664,-4.388140678405762,165.84896850585938,-83.93611907958984,121.54769897460938,-2.588569164276123,-0.9508790969848632,-2.19512939453125
441.5648822784424,165.07528686523438,-73.4273452758789,-34.32609939575195,1.34857177734375,1.0550096035003662,-1.7947254180908203,-22.523645401000977,-54.32394790649414,-175.45362854003906,-15.38871955871582,-2.4008359909057617,-4.47313117980957,1.9791489839553835,46.42061614990234,-105.31328582763672,-2.529853343963623,1.9747211933135984,-1.036088943481445,-128.1445770263672,-79.4501953125,-40.09907913208008,-1.1996371746063232,-7.930218696594238,-6.961427688598633,175.9101104736328,-82.98027038574219,113.73641204833984,-2.496901512145996,-0.8456960916519165,-3.8115038871765137
441.6244025230408,161.98265075683594,-76.6662826538086,-31.3092041015625,0.8442032337188721,0.5371326208114624,-3.617234230041504,-27.987998962402344,-53.47675704956055,179.02745056152344,-15.20941925048828,-0.2247860729694366,-10.822996139526367,4.198451995849609,51.51325225830078,-106.8698501586914,0.6676000356674194,2.1901869773864746,-2.212640285491944,-102.2687530517578,-76.7839584350586,-61.762001037597656,0.5645967721939087,-8.076715469360352,-7.691274642944336,-179.25625610351562,-82.14682006835938,111.0185089111328,-1.4801623821258545,-0.6063518524169922,-5.306446075439453
441.6544818878174,158.84800720214844,-79.12333679199219,-26.09638786315918,1.5623297691345217,2.0286073684692383,-2.7025680541992188,-35.05050277709961,-55.376007080078125,175.31423950195312,-13.671119689941406,4.536840438842773,-15.016395568847656,0.7363265156745911,55.98815536499024,-115.45098876953124,3.8046445846557617,0.6944347620010376,-3.66475772857666,-93.4153823852539,-72.57638549804688,-68.81767272949219,2.250033378601074,-6.421606063842773,-7.822433471679687,-176.3680877685547,-81.96353912353516,110.29843139648438,0.1461365520954132,-0.7226763963699341,-5.577417373657227
441.6850397586823,154.09030151367188,-80.41986083984375,-18.896244049072266,2.9150948524475098,-0.7640281915664673,-3.850503444671631,-38.87895965576172,-60.16598892211914,173.5194549560547,-15.704605102539062,14.656930923461914,-12.648082733154297,-14.290279388427734,57.3621711730957,-136.7279052734375,7.151358604431152,0.8447442054748535,-8.243118286132812,-91.1767120361328,-68.77989959716797,-70.14260864257812,3.8182992935180655,-6.867238998413086,-6.033565521240234,-174.83331298828125,-82.17926025390625,110.29502868652344,1.619646072387695,-0.8755209445953369,-4.490007400512695
441.7141072750092,148.6407012939453,-80.54707336425781,-12.304349899291992,3.637529850006104,2.072840690612793,-1.5431156158447266,-43.313232421875,-67.42230224609375,178.91864013671875,-13.303264617919922,-5.9580078125,-3.892838954925537,-37.54216003417969,49.801700592041016,-162.9364471435547,-7.645855903625488,-0.163942813873291,-23.6351318359375,-90.70525360107422,-66.58846282958984,-70.74971771240234,4.026500701904297,-9.547769546508787,-3.246798515319824,-176.1532745361328,-82.18766784667969,111.50846862792967,3.6079893112182617,-0.045264333486557,-1.618551254272461
441.7444446086884,142.7290802001953,-80.33338165283203,-5.673105239868164,0.5551166534423828,1.4083068370819092,1.451641082763672,-52.73080062866211,-74.10618591308594,-174.00076293945312,-3.7301025390625,-6.678275108337402,-1.7442665100097656,-49.020782470703125,34.03318786621094,179.15541076660156,-38.78626251220703,10.062555313110352,-23.360225677490234,-93.64737701416016,-66.66635131835938,-69.96627044677734,2.01355504989624,-10.561187744140623,-0.0929641723632812,-179.6527099609375,-82.3712387084961,112.80465698242188,3.371303081512451,-0.4338805675506592,1.745208740234375
441.7750506401062,133.83413696289062,-80.3504409790039,2.837033033370972,0.6149712800979614,-0.0639839321374893,3.224116325378418,-68.22789764404297,-79.89641571044922,-160.30335998535156,-2.6043992042541504,-5.6522369384765625,0.9269819259643556,-44.38011169433594,32.317909240722656,177.1773681640625,23.20154571533203,-11.266366958618164,-12.597915649414062,-102.64937591552734,-68.7849349975586,-64.55538177490234,2.731538772583008,-6.052220344543457,-1.103215217590332,179.88523864746094,-82.13815307617188,110.63145446777344,-0.2233010530471801,-3.084465980529785,3.6477975845336914
441.8050584793091,120.5663604736328,-80.41552734375,14.656708717346191,0.7759048938751221,-0.8173751831054688,3.019656181335449,-104.52127838134766,-83.81692504882812,-127.66922760009766,0.2189442217350006,-0.2301139533519745,6.925451278686523,-40.764892578125,35.761314392089844,-173.41851806640625,-2.0541815757751465,7.464316368103027,-3.5728297233581543,-118.6503448486328,-71.66572570800781,-52.91659927368164,9.296724319458008,-6.138084411621094,-0.9032201766967772,-178.86781311035156,-81.2488021850586,107.61888122558594,-3.001769542694092,-2.4731903076171875,2.0048599243164062
441.8343901634216,104.86759948730467,-80.03526306152344,27.81772232055664,1.1146385669708252,0.1664344370365142,0.2328472137451172,-155.291748046875,-83.27124786376953,-79.9700698852539,2.360518455505371,3.2467918395996094,2.0565576553344727,-27.200326919555664,38.32307434082031,-155.5840301513672,-8.319047927856445,1.1526782512664795,-19.857357025146484,-138.7318572998047,-74.13521575927734,-38.3642463684082,6.770457267761231,-5.583497047424316,-0.788604736328125,-179.44369506835938,-80.50580596923828,105.62843322753906,0.5180414915084839,-1.9738354682922363,0.0554008483886718
441.86458921432495,88.90140533447266,-79.34636688232422,39.9271125793457,3.388617992401123,1.3319034576416016,1.3256454467773438,176.72979736328125,-81.34762573242188,-51.83252334594727,-0.8440895080566406,-0.1140340715646743,0.0009231567382812,-20.03071594238281,35.25893020629883,-133.7284698486328,-7.401004791259766,3.7070584297180176,-15.131067276000977,-158.78199768066406,-75.18702697753906,-24.67057609558105,6.230959892272949,-0.5509620904922485,-0.4789028167724609,-177.4394989013672,-79.43446350097656,100.10488891601562,5.339094161987305,0.3500504493713379,0.2480640411376953
441.9243416786194,79.88919830322266,-77.8125228881836,44.08872222900391,-1.6565260887145996,11.81955909729004,-1.5651655197143557,161.1473846435547,-79.5263900756836,-34.4018440246582,-1.6312458515167236,-0.612342119216919,0.5803718566894531,-16.552501678466797,27.616729736328125,-116.04045104980467,-2.574819564819336,5.027431488037109,-5.493422508239746,-171.68504333496094,-76.8134765625,-15.64261531829834,6.754283905029297,4.777697563171387,-2.407032012939453,-174.0416717529297,-77.59136962890625,93.68360137939452,5.817465782165527,0.8990809917449951,-2.582531452178955
441.9564242362976,97.97081756591795,-75.2822494506836,19.400819778442383,-13.802379608154297,25.860179901123047,3.477705955505371,151.79501342773438,-78.74063110351562,-22.43672752380371,0.7879624366760254,-0.5178935527801514,0.8460245132446289,-16.56531524658203,19.38226890563965,-100.92295837402344,0.831963300704956,5.128968238830566,-6.419672966003418,179.9536590576172,-79.2687759399414,-8.126636505126953,-0.7386338710784912,2.499208927154541,-0.1315555572509765,-171.61495971679688,-75.91448974609375,91.0436782836914,3.171726703643799,-1.836724042892456,-1.400705337524414
441.9839358329773,125.43104553222656,-64.50414276123047,-10.385749816894531,0.8819177150726318,16.87218475341797,10.730413436889648,147.43296813964844,-78.00165557861328,-15.154550552368164,-2.3972463607788086,0.3702957034111023,0.387887954711914,-18.73875617980957,12.071975708007812,-85.6661376953125,-2.4864797592163086,1.0618679523468018,0.8716001510620117,163.22705078125,-81.0482177734375,7.001408576965332,-2.2941455841064453,5.038246154785156,1.4980201721191406,-171.0874481201172,-75.439697265625,89.72967529296875,-0.9176127910614014,2.503712654113769,-0.7041664123535156
442.01455187797546,140.15199279785156,-50.59227752685547,-24.63050651550293,3.5056395530700684,7.35349178314209,2.0896358489990234,145.93202209472656,-77.02606964111328,-12.468029975891112,-0.50522780418396,0.0393726974725723,0.1253566741943359,-17.07415771484375,7.064431667327881,-71.4383544921875,0.0582601428031921,1.3180372714996338,-3.0320582389831543,142.96783447265625,-81.20384979248047,27.445968627929688,-1.9604272842407229,8.121917724609375,2.614254951477051,-169.26480102539062,-74.27823638916016,87.7196044921875,4.115906715393066,4.608833312988281,-0.68280029296875
442.0446217060089,149.9784393310547,-37.493751525878906,-34.21954345703125,3.2005772590637207,0.2029363214969635,-6.346321105957031,146.6458282470703,-76.00670623779297,-12.55542278289795,-1.9136667251586916,-0.2234733998775482,-0.2361440658569336,-20.875890731811523,2.454303741455078,-58.60490798950195,4.431164741516113,0.0796195268630981,0.9343442916870116,131.90882873535156,-79.96749877929688,42.90818405151367,-2.872594356536865,7.96975040435791,1.7824573516845703,-168.24484252929688,-73.39781188964844,87.24707794189453,4.738564491271973,0.9804280996322632,2.678240776062012
442.0746352672577,157.3551483154297,-26.617759704589844,-40.7109260559082,-0.2058628499507904,-3.262472629547119,-12.069131851196287,149.69920349121094,-75.00659942626953,-15.56149196624756,-1.91723108291626,-2.1283035278320312,-0.9907865524291992,-25.809307098388672,0.0136569635942578,-47.46360778808594,7.085556983947754,-0.459636926651001,8.300899505615234,130.98135375976562,-77.76502227783203,51.25236892700195,-1.625525951385498,3.527944564819336,-1.0857067108154297,-168.39248657226562,-73.395263671875,87.6574935913086,1.1453332901000977,2.1229476928710938,-0.2622795104980469
442.1041877269745,164.18734741210938,-19.68646812438965,-45.65301132202149,0.1055022478103637,-2.899596691131592,-10.918354034423828,155.70310974121094,-73.6603775024414,-21.60891914367676,-1.2393848896026611,-2.5692009925842285,-2.257266044616699,-33.275245666503906,-1.2017607688903809,-39.33641052246094,4.68876838684082,2.483865261077881,-1.9770631790161133,132.5694580078125,-75.0741195678711,56.52989196777344,0.7186578512191772,1.2353909015655518,-1.524770736694336,-168.61326599121094,-74.10661315917969,87.85852813720703,1.5865013599395752,0.2620989680290222,-1.5571231842041016
442.1342976093292,170.6320343017578,-16.45342445373535,-50.17973709106445,0.92942476272583,-7.231174468994141,-5.2170257568359375,161.52304077148438,-71.61312103271484,-27.97352409362793,0.0669586658477783,0.6792432069778442,0.3593864440917969,-41.222537994384766,-5.085207462310791,-34.59714126586914,0.0639907121658325,-1.270421266555786,-1.0302000045776367,131.76991271972656,-72.17575073242188,61.599857330322266,1.0529208183288574,0.5578160285949707,-2.3875651359558105,-167.6787109375,-75.14000701904297,87.28926849365234,0.1198591589927673,0.7875751256942749,-4.930848121643066
442.1654269695282,173.55747985839844,-16.253494262695312,-54.276405334472656,1.7701241970062256,-11.161222457885742,-5.448841094970703,167.39772033691406,-68.9332275390625,-33.85942459106445,-0.2238956093788147,-1.514343023300171,-0.7535839080810547,-43.738868713378906,-13.760720252990724,-32.06607437133789,2.5656957626342773,-2.596002578735352,-1.326828956604004,128.76954650878906,-69.14674377441406,66.06641387939453,1.3508212566375732,-0.7921391725540161,-2.2760534286499023,-166.25282287597656,-75.80640411376953,86.65270233154297,1.4706320762634275,2.9275827407836914,-6.858495712280273
442.22451734542847,172.560546875,-18.86090850830078,-57.43825912475586,2.2075634002685547,-16.121131896972656,-9.366514205932615,171.01979064941406,-65.85166931152344,-37.562347412109375,-0.8910993337631226,0.0407578125596046,0.85540771484375,-41.041629791259766,-27.760591506958008,-32.15007781982422,9.781435012817385,-3.902318954467773,0.0923118591308593,125.54606628417967,-66.39073181152344,69.54747009277344,2.7166953086853027,0.2669827938079834,-1.2155628204345703,-165.31483459472656,-76.8770751953125,85.43701171875,7.147083282470703,0.5841585397720337,4.535006523132324
442.31384778022766,170.3639678955078,-20.440731048583984,-57.5764274597168,-8.110048294067383,-7.740296363830566,27.82827377319336,173.147216796875,-63.4786262512207,-39.893699645996094,-1.0978405475616455,-0.3311427235603332,1.216827392578125,-31.47493934631348,-44.734352111816406,-38.68755340576172,24.494712829589844,-10.977579116821287,22.35730743408203,124.38507080078124,-64.79383850097656,72.78435516357422,6.732129096984863,-0.4738214015960693,3.2929258346557617,-162.1031036376953,-78.4161605834961,80.25726318359375,2.8140525817871094,-0.285125195980072,-0.923518180847168
442.3210470676422,172.90274047851562,-20.13315200805664,-54.97035217285156,8.41431999206543,-8.477714538574219,-4.0850324630737305,174.1886749267578,-62.36824035644531,-40.975372314453125,-1.0168118476867676,0.6903877258300781,1.3548851013183594,-12.545706748962402,-53.132625579833984,-53.712032318115234,24.25452423095703,-16.24822998046875,25.42452621459961,121.31257629394533,-63.82882308959961,77.9346694946289,5.960671424865723,-1.735393762588501,9.092887878417969,-160.09066772460938,-79.1645736694336,76.83472442626953,-5.03516960144043,1.7180206775665283,2.7523441314697266
442.3272280693054,178.30152893066406,-19.75006866455078,-52.91290664672852,6.872166633605957,-14.50594711303711,5.549812316894531,173.5868377685547,-62.25872421264648,-40.53787612915039,-0.318072497844696,1.9514384269714355,1.7907629013061523,-15.606450080871582,-50.02021026611328,-51.13847732543945,21.902328491210938,-14.251361846923828,4.081514358520508,114.25440979003906,-58.59739685058594,86.98026275634766,14.088998794555664,-5.176567077636719,17.36905288696289,-156.79281616210938,-79.78816223144531,74.15552520751953,0.2284838855266571,1.3087704181671145,6.399011611938477
442.344361782074,177.22726440429688,-19.825698852539062,-52.67570877075195,7.790935516357422,-13.11817741394043,6.664882659912109,171.4738311767578,-62.6969108581543,-39.25901412963867,-1.198240041732788,0.5215345621109009,0.9492311477661132,-29.65877914428711,-41.06804275512695,-42.29423904418945,7.851350784301758,-14.290842056274414,13.278635025024414,103.60294342041016,-47.83977127075195,97.7356414794922,16.66769027709961,-5.415365219116211,23.036273956298828,-157.5378875732422,-78.98953247070312,75.17346954345703,4.767946243286133,2.628283977508545,6.4350128173828125
442.3745052814484,173.1368408203125,-20.028568267822266,-53.92731094360352,4.177298545837402,-13.752721786499023,3.760419845581055,168.9694061279297,-63.76515197753906,-38.26218032836914,-1.8545830249786377,-1.2191827297210691,0.8521242141723633,-33.402889251708984,-33.246883392333984,-40.26944732666016,6.33528995513916,-11.956642150878906,-0.413766860961914,90.34320068359376,-33.991294860839844,107.7987823486328,17.36406707763672,-2.670518398284912,15.74025535583496,-160.6459197998047,-78.29605102539062,78.02767181396484,3.06496524810791,1.847416877746582,5.145876884460449
442.40403509140015,170.23294067382812,-20.86819076538086,-54.88971710205078,4.797867774963379,-13.672170639038086,-0.7307882308959961,165.5237579345703,-65.80805206298828,-36.70124435424805,-1.4510226249694824,-1.2377886772155762,1.2098102569580078,-39.718727111816406,-28.84404945373535,-40.95705795288086,-0.3101062774658203,-7.5488786697387695,-5.861217498779297,76.51128387451172,-16.45334815979004,117.6313247680664,13.409368515014648,3.773227691650391,8.939533233642578,-162.9492950439453,-78.14566040039062,80.28905487060547,1.2033586502075195,0.9616199731826782,3.933677673339844
442.4344408512116,167.7827911376953,-23.34586334228516,-55.26340866088867,5.266641616821289,-2.7638468742370605,1.5110654830932615,160.9334716796875,-68.23217010498047,-33.94374084472656,-0.2699609398841858,-0.926910161972046,2.30251693725586,-47.12428283691406,-28.730566024780277,-44.36153411865234,-5.300009727478027,-3.663471221923828,-3.707882881164551,66.17742156982422,4.04773473739624,126.54178619384766,4.514325141906738,8.179845809936523,0.3216657638549804,-165.1123046875,-78.22120666503906,81.77323913574219,2.6910924911499023,0.1325632929801941,1.3312044143676758
442.46847772598267,165.350341796875,-25.074636459350582,-55.83304214477539,-0.6835204362869263,-8.305549621582031,-0.3878192901611328,156.4253387451172,-70.51659393310547,-30.744888305664062,1.1519579887390137,-1.001927614212036,1.8628549575805664,-52.37260055541992,-32.51079177856445,-50.17900848388672,-4.452521324157715,-0.2450594902038574,-4.090519905090332,61.76679611206055,25.23671531677246,132.57542419433594,-1.7170584201812744,4.584747314453125,-1.881591796875,-168.3809356689453,-78.88188934326172,84.05226135253906,3.292119026184082,1.0917510986328125,-1.231403350830078
442.5540413856506,160.4730682373047,-28.6798038482666,-55.80796813964844,-1.3568353652954102,-6.3815765380859375,-4.738612174987793,152.26089477539062,-72.59977722167969,-27.29530143737793,0.1803414225578308,-0.1947595775127411,0.2170085906982422,-56.70183944702149,-39.2568588256836,-57.53137969970703,-4.300061225891113,1.029785394668579,-3.454631328582764,60.78255844116211,43.57101440429688,134.0585174560547,-2.375308990478516,1.0276684761047363,-1.3465328216552734,-173.74447631835938,-79.36458587646484,88.2164077758789,2.548823833465576,0.7443115711212158,-2.576734066009521
442.5591230392456,155.85714721679688,-33.89392852783203,-54.93716812133789,-0.892532467842102,-3.108270168304444,-6.402576446533203,148.24449157714844,-74.60842895507812,-23.3937931060791,-1.6187286376953125,-0.7880223989486694,-1.7430505752563477,-59.93913269042969,-47.86181640625,-65.57587432861328,-5.097855567932129,3.1019158363342285,-1.1996259689331057,59.791053771972656,56.90273666381836,131.6049346923828,-7.888904571533203,-0.8504000902175903,-0.9941635131835938,-178.21812438964844,-79.4861068725586,91.79078674316406,1.489070177078247,0.4521081447601318,-2.120980262756348
442.58521938323975,152.6259002685547,-41.16561126708984,-53.60397338867188,-0.2343673110008239,-2.554511547088623,-8.161870956420898,144.4994659423828,-76.61257934570312,-18.924768447875977,-2.1427149772644043,-0.1799536347389221,-2.438328742980957,-58.47947311401367,-57.65030670166016,-74.72086334228516,-2.1679515838623047,4.672515869140625,-1.8748817443847656,55.144161224365234,64.14258575439453,127.57582092285156,-4.078287124633789,-3.803444385528565,-4.79984188079834,178.7515411376953,-79.81161499023438,94.3598175048828,0.0816535204648971,0.2926139831542969,-2.2736315727233887
442.61463928222656,149.77308654785156,-50.68146133422852,-51.2526969909668,-0.0346555709838867,-2.4801464080810547,-5.851345062255859,140.76551818847656,-78.44558715820312,-13.9475679397583,-1.6120216846466064,0.1894104480743408,-2.7240796089172363,-52.93317031860352,-67.69593048095703,-86.80523681640625,0.6208350658416748,3.0933895111083984,-3.5005111694335938,52.84563064575195,65.11563873291016,125.71542358398438,3.4143357276916504,-5.754819869995117,-6.578482627868652,175.48130798339844,-80.05833435058594,97.4603271484375,0.1277974247932434,0.585474967956543,-3.3245410919189453
442.644864320755,145.7319793701172,-61.9941520690918,-46.10392379760742,1.628058671951294,-1.8974473476409912,-2.524667263031006,138.78712463378906,-79.87692260742188,-10.71412467956543,-1.1138668060302734,-0.395220935344696,-2.787419319152832,-41.37965774536133,-76.917236328125,-108.00794219970705,-0.3380675315856933,0.0752441436052322,-4.768244743347168,53.93587112426758,59.971309661865234,129.66282653808594,7.34693431854248,-1.457883596420288,-8.317163467407227,172.46759033203125,-80.3342514038086,100.4474639892578,1.3501126766204834,0.2526799440383911,-4.178825378417969
442.6739830970764,136.2830352783203,-73.56713104248047,-31.89320373535156,2.542494773864746,0.6194522380828857,2.6666040420532227,141.13949584960938,-80.80615234375,-12.671884536743164,-0.8974449634552002,-0.3956444859504699,-2.568380832672119,-3.283698797225952,-82.95101928710938,-160.6373291015625,-0.964622974395752,0.9799641370773317,-3.262601852416992,63.477874755859375,49.31106948852539,138.53746032714844,0.9157828092575072,2.9022603034973145,-13.04581069946289,171.9760284423828,-80.4906005859375,101.04273223876952,2.109473705291748,-0.3209781050682068,-4.681295394897461
442.704514503479,100.98468780517578,-80.66120910644531,11.286924362182615,-2.345719337463379,11.650760650634766,6.662664413452148,148.1699676513672,-81.37085723876953,-19.96565055847168,-1.2059869766235352,-1.4193143844604492,-1.497812271118164,44.117286682128906,-80.1048583984375,132.16163635253906,-2.356903076171875,4.735686302185059,-1.789899826049805,71.8730697631836,33.610450744628906,150.00852966308594,-31.63717269897461,10.197399139404297,-23.96535873413086,174.78001403808594,-80.87740325927734,99.30463409423828,1.3496277332305908,-0.8874701261520386,-3.272437572479248
442.734512090683,74.10643005371094,-78.67229461669922,49.50275421142578,-5.432796478271484,19.405685424804688,-4.338866233825684,158.25050354003906,-81.59207153320312,-30.311899185180664,-0.6580275297164917,-0.358353853225708,-0.0255107879638671,55.25954055786133,-72.35572052001953,103.0799331665039,1.8694190979003904,13.30659294128418,-1.8450608253479004,74.15511322021484,25.844057083129883,157.8818359375,-8.429750442504883,3.3482770919799805,-19.18665313720703,179.1859130859375,-81.85150909423828,96.9270248413086,-0.0682557076215744,-0.9611213207244872,-1.879746437072754
442.7645308971405,86.49169158935547,-76.16648864746094,47.27993392944336,-18.900489807128903,20.48073959350586,-4.512767791748047,170.29208374023438,-81.91973876953125,-42.95306015014648,-0.580580472946167,-1.118049383163452,4.46835994720459,56.79908752441406,-65.557861328125,85.54853057861328,1.1478385925292969,9.94685173034668,-2.556038856506348,90.78341674804688,32.5058708190918,154.36468505859375,-0.0616466626524925,-6.077762603759766,10.13762092590332,-174.79644775390625,-82.57030487060547,93.5402374267578,2.371175765991211,-0.8794280290603638,-1.0377721786499023
442.8246579170227,108.92860412597656,-74.5357437133789,27.533435821533203,11.382673263549805,6.805245399475098,0.4741640090942383,-174.72207641601562,-82.81514739990234,-57.13264083862305,0.8911324739456177,-1.481276512145996,4.96733283996582,54.00117874145508,-62.88348388671875,71.6565170288086,13.12907600402832,11.808349609375,3.1508569717407227,91.86213684082033,41.71880340576172,145.3491973876953,-8.071870803833008,0.8724075555801392,-4.596019744873047,-168.2646026611328,-82.63089752197266,89.33910369873047,6.92385196685791,-0.2224749028682708,1.4325408935546875
442.8546545505524,122.201904296875,-74.1455078125,12.64907169342041,7.675687789916992,4.392857551574707,1.8832006454467771,-152.7858123779297,-83.9450454711914,-76.54003143310547,0.3358474373817444,-3.652252674102783,7.017850875854492,63.80533981323242,-62.20558166503906,63.52703857421875,19.981517791748047,10.591266632080078,0.7863740921020508,86.95755004882812,51.48302459716797,126.98236846923828,-4.6939239501953125,6.673851013183594,-11.194217681884766,-166.86915588378906,-81.63810729980469,89.87722778320312,4.002991676330566,0.7404447793960571,3.2714014053344727
442.8847868442536,135.2468719482422,-73.226318359375,0.5187918543815613,-5.952472686767578,-8.638025283813477,7.37562370300293,-115.79345703125,-84.4904556274414,-109.83055877685548,-0.9042757749557496,-3.994600296020508,1.3426313400268557,83.15157318115234,-64.24614715576172,61.32522964477539,8.672452926635742,6.744336128234863,3.250025749206543,74.71686553955078,55.71675491333008,99.81378936767578,-10.950569152832031,1.5338807106018066,-4.781101226806641,-167.26686096191406,-80.34687805175781,92.78104400634766,-0.6108890771865845,-1.2507102489471436,1.6321096420288086
442.9147875308991,146.47250366210938,-71.74314880371094,-7.2493367195129395,0.4993511438369751,0.2701484560966491,1.0500459671020508,-96.4546356201172,-82.86070251464844,-123.58234405517578,-12.894432067871094,1.327294111251831,-2.04135799407959,101.49608612060548,-69.93307495117188,61.59171676635742,4.993988037109375,4.815465927124023,3.750430107116699,55.85956954956055,51.58871841430664,70.82478332519531,-1.8576762676239011,1.7571585178375244,-5.631772041320801,-166.66925048828125,-78.58185577392578,96.2248306274414,-2.1135363578796387,-2.0294322967529297,1.6206817626953125
442.9447898864746,156.79367065429688,-70.81763458251953,-15.967745780944824,-0.1162990927696228,2.4394259452819824,-0.4665422439575195,-112.36100006103516,-80.04785919189453,-100.4150619506836,-28.474029541015625,7.52987003326416,1.303091049194336,120.4440460205078,-77.52191162109375,57.185089111328125,0.4535735845565796,-3.559406280517578,1.7521562576293943,45.80838394165039,42.61579132080078,48.97826766967773,7.575044631958008,-5.800090789794922,-10.081869125366213,-169.56622314453125,-76.29772186279297,102.72415161132812,-1.8620469570159912,1.5762181282043457,-1.129680633544922
442.97398686409,164.09097290039062,-69.70193481445312,-22.99888801574707,1.408012628555298,1.4525818824768066,0.5550937652587891,-135.09130859375,-73.30537414550781,-72.33210754394531,-16.61672592163086,0.3503921031951904,1.2014760971069336,146.63839721679688,-83.65823364257812,40.44087600708008,-3.962160587310791,-7.632402420043945,-2.838146209716797,48.88957214355469,32.41621398925781,32.814666748046875,7.394359588623047,-0.4370811581611633,-5.731329917907715,-173.9772491455078,-74.7029800415039,108.46746063232422,-0.0768189430236816,0.5529413223266602,-1.0028562545776367
443.00451707839966,169.0039825439453,-68.48040008544922,-26.841005325317383,0.5618928670883179,1.311732292175293,0.3323936462402344,-146.855224609375,-64.48077392578125,-55.7735481262207,-9.321693420410156,-2.5765671730041504,-3.934969425201416,173.35459899902344,-87.01803588867188,17.23888397216797,-7.28898811340332,-5.099469184875488,-0.3855743408203125,53.67020797729492,23.4019718170166,20.87361717224121,15.871129989624023,-9.08806610107422,-2.5731897354125977,-176.7482147216797,-74.4927749633789,111.4389190673828,-1.74900221824646,0.642622709274292,1.6782970428466797
443.0345482826233,171.90394592285156,-67.56121063232422,-28.692975997924805,-0.4591157436370849,0.2313401401042938,0.8817138671875,-154.58868408203125,-55.43038558959961,-44.91435623168945,-3.4305849075317383,-2.762087345123291,-7.780241012573242,-123.0510482788086,-88.93155670166016,-47.06878662109375,-9.71946144104004,-1.797825574874878,1.8427610397338867,69.7605972290039,17.42210578918457,15.786140441894531,3.603567600250244,-8.252864837646484,-11.840105056762695,-179.0159149169922,-74.46438598632812,114.7074966430664,-3.601645469665528,0.7789729833602905,1.5017318725585938
443.0649485588074,173.88720703125,-67.0620346069336,-30.39752578735352,-0.4497418999671936,-0.5167514085769653,0.4662599563598633,-161.5467071533203,-47.19011306762695,-36.83237838745117,-1.4672095775604248,-2.6018524169921875,-9.212417602539062,-68.25920104980469,-87.59174346923828,-103.24748992919922,-7.068121910095215,-1.5349361896514893,1.3863639831542969,82.58464813232422,11.948423385620115,14.581480979919434,-3.2948145866394043,12.060937881469728,11.372926712036133,178.8590850830078,-74.6651382446289,117.59050750732422,-3.2366862297058105,0.2843996286392212,1.2306146621704102
443.1248605251312,175.68722534179688,-66.7878189086914,-32.4471435546875,-0.3661020398139953,-0.1008460223674774,0.2488489151000976,-170.24911499023438,-40.173336029052734,-30.74207305908203,-1.053992748260498,-2.619267463684082,-7.440242767333984,-69.93799591064453,-85.81595611572266,-102.06926727294922,-5.045550346374512,-0.6815323829650879,-0.5742025375366211,81.09586334228516,5.744676113128662,14.245330810546877,-0.8687022924423218,-2.726830005645752,-3.9704012870788574,175.40420532226562,-75.12895202636719,120.875732421875,-2.5235438346862797,0.6739778518676758,-0.7529115676879883
443.1549391746521,176.83741760253906,-66.76847076416016,-34.5432243347168,0.5354213714599609,0.0617967471480369,-0.2496871948242187,-179.7262420654297,-35.73379135131836,-25.330121994018555,1.9684643745422363,-2.09549331665039,-2.139772415161133,-78.20348358154297,-84.0273208618164,-94.42935943603516,-2.371480941772461,0.9758892059326172,-2.875382423400879,86.74891662597656,-1.7265864610671997,15.922951698303224,2.757675170898437,3.348234176635742,-3.2781853675842285,170.32846069335938,-75.32701873779297,125.37165069580078,-0.5378233194351196,0.8439561128616333,-3.0791726112365723
443.18453311920166,176.56594848632812,-66.0572738647461,-34.744476318359375,0.9828959703445436,-0.2670040726661682,-1.3152923583984375,174.22592163085938,-34.4650993347168,-20.24819564819336,12.00126838684082,-3.5898962020874023,-5.211281776428223,-82.41281127929688,-82.26173400878906,-90.27224731445312,0.0385291576385498,2.2638344764709477,-3.769868850708008,89.57866668701172,-12.895960807800291,17.507049560546875,6.99465274810791,3.3167877197265625,4.870973587036133,165.15200805664062,-74.92218017578125,129.110595703125,0.2377529442310333,0.5644110441207886,-4.083563804626465
443.21399998664856,175.20970153808594,-64.43849182128906,-32.917877197265625,2.6457319259643555,0.763780951499939,-0.4693403244018554,174.0753631591797,-36.74333190917969,-16.373186111450195,15.194225311279297,1.1397223472595217,-4.971227645874023,-83.80701446533203,-80.63815307617188,-88.92858123779297,1.3633732795715332,2.297916412353516,-4.853427886962891,80.70232391357422,-29.4019775390625,21.42744445800781,19.463233947753903,5.7027130126953125,12.567808151245115,160.832275390625,-74.48247528076172,131.64471435546875,-1.68514084815979,-0.7381820678710938,-5.1432085037231445
443.2450089454651,173.1305389404297,-63.09709167480469,-31.441225051879883,-0.9478245973587036,-0.971017599105835,-0.476963996887207,177.299072265625,-39.8658447265625,-14.044654846191406,-4.678248405456543,14.047733306884766,26.071990966796875,-87.79827117919922,-79.22430419921875,-85.05497741699219,3.576084613800049,3.2705812454223637,-4.227105140686035,61.93575286865234,-42.02293395996094,30.246082305908203,23.782493591308597,7.1399335861206055,19.59308242797852,158.5774383544922,-73.48336791992188,132.6597900390625,-1.4774878025054932,-0.980689525604248,-4.382844924926758
443.274436712265,171.84405517578125,-60.81188583374024,-30.156747817993164,-0.0588963851332664,-0.331978976726532,0.6897640228271484,174.2499237060547,-38.88957977294922,-14.435877799987791,15.174869537353516,0.7540463209152222,-1.6110763549804688,-84.54686737060547,-77.63557434082031,-86.99027252197266,6.892168998718262,-2.8608970642089844,2.557875633239746,59.62920379638672,-42.68350982666016,32.183467864990234,27.915889739990234,-5.622651100158691,-6.986148834228516,157.58096313476562,-72.60214233398438,132.59962463378906,1.7833271026611328,1.4284436702728271,0.6965885162353516
443.30463886260986,171.60621643066406,-58.466773986816406,-30.790742874145508,-0.2548339962959289,-0.3640161156654358,0.2328090667724609,172.1977996826172,-37.44231796264648,-16.668779373168945,22.264389038085938,-1.6247999668121338,10.345935821533203,-76.97877502441406,-74.49778747558594,-95.3397216796875,-0.8476274013519287,6.7513275146484375,7.698801040649414,71.38864135742188,-39.87416458129883,32.015403747558594,18.52019500732422,8.285884857177734,-2.442930221557617,156.28915405273438,-71.92144775390625,131.58139038085938,-1.3972713947296145,1.8681483268737795,4.587382316589356
443.3347315788269,172.33583068847656,-56.7788200378418,-32.20100402832031,-0.9471471309661864,1.034762620925903,1.0994672775268557,173.3806610107422,-35.311153411865234,-19.80819129943848,17.928695678710938,-9.607748031616213,9.645889282226562,-75.71546173095703,-67.5879135131836,-97.33319854736328,2.9461870193481445,12.689180374145508,15.845163345336914,80.66100311279297,-40.40435409545898,35.2993278503418,10.38424301147461,15.320392608642578,-4.103797912597656,155.689697265625,-70.89810180664062,130.96035766601562,-3.969382762908936,-1.0029397010803225,5.397727012634277
443.36394143104553,173.2703399658203,-56.11286544799805,-33.44354248046875,-0.4150059223175049,0.7474901676177979,1.4876394271850586,175.55795288085938,-33.36522674560547,-23.06011009216309,15.791755676269531,-6.07298755645752,3.656233787536621,-74.71790313720703,-56.921630859375,-95.64019775390624,4.670965194702148,12.943611145019531,18.646556854248047,87.31879425048828,-41.61518096923828,36.94783782958984,10.209367752075195,16.34648895263672,-2.7612476348876958,156.0650634765625,-70.24947357177734,130.14161682128906,-0.8696880340576172,-0.1677799820899963,9.425909042358398
443.4246473312378,174.2578125,-56.13829040527344,-33.5377197265625,0.3341903686523437,1.7010366916656494,0.9325571060180664,175.34298706054688,-32.92724609375,-25.1984977722168,3.944619655609131,-2.0793046951293945,6.7912445068359375,-72.03240203857422,-43.1168327331543,-91.8976593017578,5.690010070800781,2.950192451477051,17.520034790039062,97.40299987792967,-42.52936935424805,37.60066986083984,8.523136138916016,15.429479598999023,4.155956268310547,155.6841278076172,-70.95230102539062,130.25587463378906,-1.379467248916626,0.695905327796936,6.989542007446289
443.45464968681335,175.23043823242188,-56.66079711914063,-32.37750244140625,-0.0303266011178493,0.9214872121810912,0.9546957015991212,176.67625427246094,-34.79120635986328,-26.63336753845215,10.740859985351562,4.017204284667969,-3.953892707824707,-69.17338562011719,-27.935033798217773,-87.95256042480469,14.277713775634766,-6.028316497802734,12.34482765197754,109.47550201416016,-44.79857635498047,39.82780456542969,3.017556667327881,9.435718536376951,8.756031036376953,155.16539001464844,-72.31282043457031,130.4102020263672,-1.8778040409088133,0.81385338306427,3.865049362182617
443.5153229236603,175.79420471191406,-58.12589263916016,-31.09605598449707,-0.985176682472229,0.1048812121152877,1.1345701217651367,-177.29888916015625,-40.18552780151367,-28.781925201416016,3.92417049407959,3.5116829872131348,-1.9794034957885744,-66.83649444580078,-13.777997970581056,-87.15472412109375,14.318178176879885,-9.548906326293944,14.256282806396484,118.4377899169922,-50.08708953857422,43.71281814575195,-1.3502774238586426,2.8752450942993164,8.918272018432617,155.454345703125,-73.85689544677734,130.2049102783203,-3.153414249420166,1.3141746520996094,3.098836898803711
443.5203218460083,176.558349609375,-60.755653381347656,-30.73060607910156,-1.0877740383148191,0.1062278747558593,0.8963966369628906,-171.06028747558594,-47.87211608886719,-31.487520217895508,2.1000423431396484,3.332644462585449,-3.913782596588135,-58.92702102661133,-1.8286480903625488,-91.20892333984376,-2.742575168609619,-9.86911392211914,13.14535903930664,124.9497299194336,-57.40987777709961,47.88400650024414,-2.245867729187012,-0.4110038876533508,5.485142707824707,156.04034423828125,-75.35234832763672,129.91583251953125,-3.960977077484131,0.5767612457275391,2.2085447311401367
443.5443289279938,177.3566436767578,-64.24977111816406,-31.28475570678711,-1.4933586120605469,-0.1207866221666336,0.9544782638549804,-164.84934997558594,-56.982078552246094,-35.63416290283203,0.2863083481788635,1.472787618637085,-3.4007458686828613,-47.87237930297852,8.340256690979004,-97.33567810058594,-12.3798828125,-5.489213943481445,1.1777315139770508,133.8406982421875,-65.0143051147461,51.43006134033203,-1.7187988758087158,-3.295299530029297,3.2630691528320312,156.6928253173828,-76.83779907226562,129.68618774414062,-2.2268433570861816,0.903502345085144,0.2047281265258789
443.5743341445923,177.96875,-68.30345153808594,-32.50212478637695,0.0325539037585258,0.629033088684082,0.0595760345458984,-158.58409118652344,-66.33601379394531,-42.91177749633789,-3.905628681182861,0.0243410058319568,-1.2045516967773438,-39.27577590942383,17.575557708740234,-102.55300903320312,-16.3739013671875,0.1688218116760254,-5.021307945251465,145.1238555908203,-71.87592315673828,53.97621154785156,-0.8987183570861816,-6.823113441467285,-0.0222644805908203,158.73158264160156,-77.78076171875,128.73672485351562,-1.770873785018921,0.7198120355606079,-2.6892800331115723
443.6048815250397,178.83485412597656,-72.45034790039062,-33.912845611572266,0.4164721965789795,0.4388822913169861,-0.5341558456420898,-148.48611450195312,-74.4094009399414,-57.54239273071289,-9.762250900268556,-0.8193975687026978,-0.9316377639770508,-33.945735931396484,26.31426429748535,-106.8350830078125,-9.113492965698242,-1.0125679969787598,-8.21827507019043,155.560791015625,-77.71751403808594,54.4807243347168,0.429624855518341,-8.731021881103516,-3.879358768463135,161.8590850830078,-78.11265563964844,127.26226806640624,-2.1019253730773926,-0.0183649398386478,-4.433149337768555
443.6342918872833,179.26577758789062,-76.1601791381836,-35.15999221801758,1.88368558883667,0.9289015531539916,-0.67755126953125,-129.47779846191406,-78.55082702636719,-84.89190673828125,-14.522174835205078,-0.0268327295780181,-0.8464021682739258,-27.73584747314453,34.74786758422852,-112.95642852783205,-8.98442268371582,1.3980741500854492,-11.490703582763672,166.33119201660156,-82.46212005615234,49.39906311035156,1.2294507026672363,-7.938484191894531,-6.466526031494141,164.39541625976562,-78.94208526611328,126.54737091064452,-2.179443359375,-0.0473228320479393,-4.444612503051758
443.6643912792206,177.13160705566406,-78.6830062866211,-34.285194396972656,2.954119682312012,0.3042030334472656,-2.0311827659606934,-114.1249771118164,-78.18321990966797,-111.04621887207033,-16.09225082397461,0.6684759855270386,-6.296598434448242,-22.51697540283203,42.21107864379883,-121.23469543457033,-1.185232639312744,5.894373893737793,-15.71476936340332,-171.14979553222656,-85.75140380859375,28.906782150268555,1.9728095531463623,-6.086352348327637,-8.029247283935547,168.03416442871094,-79.8279800415039,124.96721649169922,-2.119360446929932,-1.244037389755249,-4.954445838928223
443.7247304916382,169.98472595214844,-79.24629211425781,-27.577062606811523,3.010979652404785,-2.392019748687744,-2.1154909133911133,-118.77407836914062,-76.47296142578125,-118.80360412597656,-18.769363403320312,1.068427562713623,-9.450439453125,-25.13356590270996,47.058876037597656,-133.57455444335938,8.276765823364258,4.494275093078613,-11.481409072875977,-123.874267578125,-86.56367492675781,-17.850521087646484,2.8533811569213867,-5.656924247741699,-6.540026664733887,172.05245971679688,-80.67823028564453,122.8158721923828,-0.7818722724914551,-2.5895309448242188,-4.747307777404785
443.7547295093536,161.1384735107422,-77.33165740966797,-16.17264175415039,2.906787395477295,0.6515977382659912,-0.5310831069946289,-138.28028869628906,-74.54786682128906,-110.08173370361328,-10.13223648071289,15.689878463745115,1.3871192932128906,-38.54820251464844,47.24385833740234,-153.21633911132812,-2.719729423522949,5.857541084289551,-18.545040130615234,-93.97960662841795,-84.81098937988281,-48.27678298950195,3.801136493682861,-5.977490425109863,-5.982949256896973,174.44837951660156,-81.470947265625,121.22543334960938,-0.0384131595492363,-1.863239049911499,-2.8115386962890625
