Timestamp,D4:22:CD:00:05:5D_EulerX,D4:22:CD:00:05:5D_EulerY,D4:22:CD:00:05:5D_EulerZ,D4:22:CD:00:05:5D_FreeAccX,D4:22:CD:00:05:5D_FreeAccY,D4:22:CD:00:05:5D_FreeAccZ,D4:22:CD:00:05:5E_EulerX,D4:22:CD:00:05:5E_EulerY,D4:22:CD:00:05:5E_EulerZ,D4:22:CD:00:05:5E_FreeAccX,D4:22:CD:00:05:5E_FreeAccY,D4:22:CD:00:05:5E_FreeAccZ,D4:22:CD:00:05:6B_EulerX,D4:22:CD:00:05:6B_EulerY,D4:22:CD:00:05:6B_EulerZ,D4:22:CD:00:05:6B_FreeAccX,D4:22:CD:00:05:6B_FreeAccY,D4:22:CD:00:05:6B_FreeAccZ,D4:22:CD:00:05:6E_EulerX,D4:22:CD:00:05:6E_EulerY,D4:22:CD:00:05:6E_EulerZ,D4:22:CD:00:05:6E_FreeAccX,D4:22:CD:00:05:6E_FreeAccY,D4:22:CD:00:05:6E_FreeAccZ,D4:22:CD:00:49:AA_EulerX,D4:22:CD:00:49:AA_EulerY,D4:22:CD:00:49:AA_EulerZ,D4:22:CD:00:49:AA_FreeAccX,D4:22:CD:00:49:AA_FreeAccY,D4:22:CD:00:49:AA_FreeAccZ
2294.9413034915924,176.73573303222656,-56.00680923461914,-98.38543701171876,1.510487079620361,1.5403928756713867,0.5453042984008789,-156.8172607421875,-43.46878433227539,-55.76071166992188,4.129011154174805,-6.745914459228516,7.586843490600586,-82.34848022460938,-34.615875244140625,-58.67161178588867,-0.3442220687866211,14.714513778686523,24.100658416748047,-172.04022216796875,-66.6612777709961,-43.71371841430664,-5.507673263549805,-10.92776870727539,9.926733016967772,142.54922485351562,-68.89893341064453,153.058837890625,-1.607952117919922,-1.057298183441162,8.035669326782227
2294.9443747997284,177.50808715820312,-53.87850189208984,-97.16891479492188,2.647914409637451,1.249802589416504,1.3169279098510742,-154.00343322753906,-44.07081985473633,-59.33492660522461,3.468091487884521,-1.485213041305542,-1.4185419082641602,-75.10438537597656,-14.815020561218262,-55.56013870239258,9.258356094360352,6.923972129821777,31.370365142822266,-140.7384490966797,-66.14077758789062,-65.92205047607422,-10.195068359375,-12.738664627075195,2.75164794921875,143.4627227783203,-69.98500061035156,152.0338897705078,-2.4492416381835938,1.1909022331237793,8.349145889282227
2295.0258893966675,-174.53208923339844,-64.81092071533203,-125.82354736328124,0.0601976215839386,-0.0543666183948516,0.7487497329711914,166.50730895996094,-37.21651458740234,-11.144193649291992,19.94493103027344,-9.511323928833008,-4.561049461364746,-69.24010467529297,-48.30081558227539,-55.55378723144531,-0.781217098236084,-2.487101554870605,-5.278749465942383,-2.6675918102264404,-67.30348205566406,107.61255645751952,11.361848831176758,-0.1815559864044189,6.539724349975586,104.04107666015624,-86.40773010253906,-175.85147094726562,0.4854432940483093,-1.0782930850982666,-1.062213897705078
2295.055906057358,-175.52113342285156,-62.44480895996094,-122.5801773071289,-2.387279987335205,-1.252514123916626,-3.38387393951416,112.21914672851562,-67.02822875976562,27.02263832092285,6.201596260070801,-0.8826414346694946,18.139324188232425,-74.98652648925781,-48.25142288208008,-55.89667892456055,1.318603515625,-1.7044212818145752,-2.4132285118103027,-24.066455841064453,-56.91064834594727,131.33592224121094,2.062129497528076,11.061452865600586,4.967896461486816,111.4992446899414,-86.25362396240234,175.54798889160156,2.4620747566223145,-1.35119366645813,-2.215078353881836
2295.1159524917603,-177.89862060546875,-59.52116012573242,-115.83899688720705,-1.28943133354187,1.7126939296722412,0.0777854919433593,75.92020416259766,-79.25336456298828,59.22602081298828,-1.4669485092163086,7.322278022766113,17.457744598388672,-76.18061065673828,-47.05602264404297,-60.5579948425293,1.365046501159668,2.4535012245178223,5.681805610656738,-31.833480834960938,-58.424461364746094,140.72369384765625,-10.637954711914062,11.302797317504885,1.3359718322753906,117.05917358398438,-82.7464828491211,167.0572509765625,-2.782083511352539,-2.5492568016052246,-4.548222541809082
2295.1459560394287,-179.71839904785156,-56.97741317749024,-111.18058013916016,0.8626962900161743,1.5220108032226562,1.4932937622070312,120.17033386230467,-85.48959350585938,16.533050537109375,-11.871210098266602,0.0009329430758953,14.440715789794922,-76.08232879638672,-41.41340637207031,-65.37724304199219,-0.431861400604248,11.435735702514648,14.120853424072266,-28.603864669799805,-67.5806884765625,138.8223876953125,-6.8191633224487305,8.987728118896484,11.778646469116213,137.5095977783203,-83.1652603149414,146.47882080078125,-7.191710472106934,-3.693774700164795,4.636512756347656
2295.1804809570312,-179.82913208007812,-55.74038314819336,-109.61363220214844,3.3648815155029297,0.7445410490036011,0.4246244430541992,153.17254638671875,-79.51524353027344,-13.986367225646973,-5.750019073486328,6.022561073303223,11.343515396118164,-77.03199768066406,-26.05791282653809,-65.57300567626953,-3.1568732261657715,19.90083694458008,28.83599090576172,-9.829301834106444,-74.92344665527344,127.9482650756836,-11.626672744750977,8.342981338500977,3.9713659286499023,175.95001220703125,-83.67739868164062,109.70635223388672,4.250570297241211,-2.5564398765563965,3.656681060791016
2295.2064740657806,-178.40310668945312,-55.76047134399414,-109.89425659179688,-2.1778035163879395,1.4739673137664795,3.029749870300293,160.7404022216797,-74.52586364746094,-23.069772720336918,-5.225095748901367,6.956169128417969,-0.297154426574707,-69.1485595703125,-3.229759931564331,-61.13937377929688,7.172003746032715,5.075650215148926,25.743038177490234,6.476681709289551,-78.88172912597656,117.50164794921876,-13.974529266357422,-3.711593151092529,3.041531562805176,-176.85455322265625,-81.05574035644531,102.69792938232422,7.311958312988281,-1.341662883758545,5.517861366271973
2295.236474275589,-176.50131225585938,-57.07688522338867,-110.86920928955078,-4.607728958129883,3.375753879547119,2.644534111022949,164.70059204101562,-72.91974639892578,-28.960289001464844,-0.9392299652099608,6.354459762573242,-7.931127548217773,-55.25300216674805,18.59254264831543,-51.874778747558594,15.200738906860352,-12.90625,17.787540435791016,1.6963790655136108,-77.47486114501953,126.10918426513672,-7.895818710327148,-1.4658660888671875,-2.808314800262451,178.7119598388672,-78.5930404663086,105.82051849365234,0.9761972427368164,1.427121639251709,9.156143188476562
2295.266025066376,-174.26959228515625,-59.92221450805664,-113.6724624633789,-0.7172327041625977,3.4450087547302246,3.3335962295532227,170.35888671875,-74.97587585449219,-34.687469482421875,5.900008201599121,7.666117668151855,-11.81753158569336,-38.87200546264648,30.750534057617188,-40.0637092590332,11.088129043579102,-20.112205505371094,6.957136154174805,-12.767393112182615,-72.11737823486328,148.9014892578125,-8.77691650390625,0.6275380849838257,-8.814582824707031,179.3126983642578,-76.46806335449219,104.05548095703124,-4.183799743652344,2.1144042015075684,9.055208206176758
2295.296025276184,-171.32135009765625,-65.31021881103516,-118.14835357666016,1.197927713394165,3.252915859222412,4.391595840454102,-175.20175170898438,-79.73738861083984,-49.32505035400391,7.31041145324707,4.216364860534668,-11.435432434082031,-25.541173934936523,35.5718879699707,-31.838380813598636,2.9987282752990723,-19.75626373291016,-1.0862512588500977,-19.559106826782227,-64.593505859375,168.90399169921875,-11.307300567626951,-4.127153396606445,-8.061241149902344,-173.12042236328125,-74.98666381835938,96.68917846679688,-3.538031101226806,3.017754077911377,9.419830322265623
2295.326023578644,-165.2530059814453,-73.52572631835938,-128.69029235839844,-5.36579704284668,-5.959734916687012,11.179771423339844,-124.96894073486328,-84.24613189697266,-100.7674789428711,5.955897331237793,2.235073566436768,-9.530826568603516,-15.351927757263184,38.66911315917969,-27.216053009033203,-2.8510332107543945,-16.19171905517578,-6.277324676513672,-18.85050201416016,-57.642051696777344,-178.18675231933594,-8.634870529174805,-11.459014892578123,-10.321895599365234,-164.73831176757812,-74.86480712890625,89.78726959228516,-0.2296586632728576,2.4330763816833496,4.279323577880859
2295.3560416698456,-160.65948486328125,-79.47103118896484,-141.9736328125,1.373877763748169,-1.5653016567230225,-1.950035095214844,-55.90636444091797,-80.21934509277344,-171.1136474609375,1.27115797996521,2.657808303833008,-7.746162414550781,-5.632201194763184,41.662052154541016,-24.214141845703125,-5.2142438888549805,-11.749641418457031,-10.134334564208984,-19.11583137512207,-53.12980270385742,-169.5249481201172,-3.513171672821045,-7.014466285705566,-12.276634216308594,-155.82489013671875,-74.190185546875,82.48042297363281,-2.6432652473449707,-0.1396591663360595,-5.797178268432617
2295.415949821472,-172.25656127929688,-79.63530731201172,-131.31065368652344,8.425760269165039,4.072028160095215,-7.152165412902832,-36.19044494628906,-71.82303619384766,167.10060119628906,-3.133394718170166,2.2983570098876958,-6.45330810546875,2.2429816722869877,44.885047912597656,-24.020278930664062,-3.242529392242432,-4.217717170715332,-11.39508819580078,-21.69369506835937,-51.09318161010742,-161.6410675048828,-1.2507717609405518,-6.522902488708496,-11.501352310180664,-149.9315948486328,-72.4835205078125,78.6119384765625,-0.1817507147789001,-0.2912278771400451,-10.50058364868164
2295.445969581604,178.52806091308594,-77.16105651855469,-113.56922149658205,-1.73868727684021,-5.912667274475098,-8.892190933227539,-30.40677261352539,-63.31089019775391,157.40509033203125,-8.747159957885742,4.65974235534668,-3.8900976181030273,6.4078369140625,49.18278121948242,-28.4381103515625,-1.389636516571045,-2.352449893951416,-13.340784072875977,-26.291074752807617,-50.18693923950195,-154.67416381835938,0.2094139754772186,-6.75230598449707,-8.527442932128906,-147.560546875,-72.04483032226562,76.9203109741211,3.740030288696289,1.9911432266235352,-9.371397018432615
2295.476465702057,178.74032592773438,-78.23419189453125,-107.49895477294922,0.906158685684204,1.965801477432251,-8.491703033447266,-30.32305145263672,-55.33694839477539,151.9626007080078,-19.943584442138672,8.019105911254883,-2.3672609329223637,4.283134460449219,54.52787780761719,-38.379791259765625,-0.5405052900314331,-0.8448389768600464,-15.032075881958008,-30.39340209960937,-49.18598937988281,-149.64598083496094,-1.942260980606079,-6.50518798828125,-6.630804061889648,-144.7367706298828,-73.08330535888672,74.51509857177734,0.8894855976104736,1.0782108306884766,-8.133245468139648
2295.5059099197388,179.93215942382812,-78.63632202148438,-112.32911682128906,0.7301367521286011,-1.809596061706543,-0.821537971496582,-36.58380508422852,-50.9712142944336,150.3614044189453,-19.39464569091797,13.160116195678713,-15.104516983032228,-6.736071586608887,60.39973831176758,-57.19198989868164,0.6625601053237915,0.4577494263648987,-15.04887580871582,-34.0970458984375,-47.188289642333984,-145.28082275390625,-3.5214061737060547,-7.232138633728027,-5.268893241882324,-140.5459747314453,-74.64824676513672,71.74395751953125,-2.5149059295654297,0.4123592376708984,-8.21707534790039
2295.5359106063843,179.88429260253906,-78.26554107666016,-114.1147232055664,2.7071533203125,-6.218290328979492,-2.0265121459960938,-40.008487701416016,-50.18649673461914,150.2476806640625,-9.104307174682615,12.377447128295898,-11.731559753417969,-30.179912567138672,62.054237365722656,-87.48324584960938,-4.510520935058594,-1.4689843654632568,-22.036178588867188,-37.14265060424805,-44.99018859863281,-141.5532989501953,-3.612324714660645,-8.278362274169922,-4.441862106323242,-135.8916015625,-75.46806335449219,69.24153900146484,0.4245373606681824,0.7075715065002441,-4.669782638549805
2295.566461324692,178.89834594726562,-77.4836196899414,-108.89292907714844,-3.426328182220459,-0.0114957187324762,1.5493459701538086,-39.29798126220703,-52.40058517456055,152.3590545654297,-16.549617767333984,6.412045478820801,-14.777294158935549,-56.132591247558594,58.52904510498047,-113.20046997070312,-3.513455390930176,2.718008041381836,-23.52749252319336,-39.85187149047852,-43.992713928222656,-137.8311767578125,-3.004464626312256,-9.647201538085938,-4.288970947265625,-136.14556884765625,-76.40234375,70.14674377441406,3.532846450805664,1.2731826305389404,-0.2651338577270508
2295.5964534282684,175.88311767578125,-77.27564239501953,-104.55885314941406,3.5290260314941406,-3.478111267089844,3.99925708770752,-49.30930709838867,-56.76523971557617,159.93154907226562,-8.198286056518555,-9.514741897583008,8.004692077636719,-84.86050415039062,58.33065032958984,-121.43864440917967,-6.897543907165527,9.60440444946289,-2.5345821380615234,-45.564727783203125,-44.4271354675293,-133.1645050048828,-0.0454980731010437,-14.476654052734377,-5.138041496276856,-140.0036163330078,-77.75274658203125,71.75678253173828,0.7798172235488892,-0.2658422589302063,1.513715744018555
2295.6264622211456,173.2061004638672,-77.59651184082031,-99.22560119628906,-2.046560287475586,-2.008873462677002,2.821128845214844,-48.54943084716797,-60.06198501586914,162.15011596679688,-1.4906582832336426,-16.41699981689453,8.802310943603516,-98.22149658203124,61.2702522277832,-118.23123168945312,-0.0782437324523925,-5.738248825073242,-4.046699523925781,-57.15083694458008,-46.12778472900391,-129.04356384277344,-1.989532470703125,-13.22671890258789,-5.205862998962402,-144.10556030273438,-79.3571548461914,73.0843276977539,-6.231895446777344,-1.9712822437286377,2.859029769897461
2295.6559085845947,166.60867309570312,-77.61636352539062,-90.65525817871094,-1.5193939208984375,-1.5522572994232178,2.7310590744018555,-49.34584426879883,-63.00309371948242,163.41445922851562,-9.042388916015623,8.576522827148438,8.046489715576172,-84.51910400390625,64.92871856689453,-104.74639129638672,-10.037111282348633,-2.85221004486084,-4.681214332580566,-72.08556365966797,-49.01524353027344,-125.8464584350586,-3.22065544128418,-10.108240127563477,3.5400218963623047,-150.07595825195312,-80.01286315917969,77.75704956054688,-5.407228469848633,-0.352067768573761,4.595256805419922
2295.7164289951324,157.0692138671875,-77.10151672363281,-81.13304138183594,0.2148804366588592,-1.3649227619171145,2.455812454223633,-53.587547302246094,-65.8680191040039,166.1147918701172,-4.431195259094238,2.678037643432617,3.26460075378418,-50.38797378540039,66.26578521728516,-73.83281707763672,-8.221475601196289,-5.772052764892578,-12.230062484741213,-83.36767578125,-52.65437698364258,-124.74166107177734,-0.9151872396469116,-5.30797290802002,7.897193908691406,-154.2965545654297,-80.51866912841797,80.5831069946289,1.1114881038665771,-2.308315753936768,2.9011363983154297
2295.745445251465,146.17640686035156,-76.28162384033203,-71.94779968261719,-0.5196050405502319,-0.8638583421707153,3.161639213562012,-48.541648864746094,-68.36235809326172,160.91282653808594,-4.331817626953125,5.868477821350098,-1.8415889739990237,-22.81188201904297,57.1683235168457,-48.23443222045898,-5.006906509399414,-2.989500045776367,-7.775835990905762,-89.8128890991211,-57.25794982910156,-124.22344207763672,-4.846268653869629,-2.4581222534179688,6.823080062866211,-159.7562713623047,-81.58116912841797,84.60444641113281,0.6114120483398438,-1.9923357963562007,1.2993078231811523
2295.7759580612183,132.98532104492188,-75.42861938476562,-63.01723861694336,1.194119215011597,-4.2908430099487305,3.357806205749512,-35.83467483520508,-69.09870147705078,149.82052612304688,-6.876750946044922,1.7490229606628418,-1.2173500061035156,-12.183907508850098,42.054718017578125,-38.96680450439453,-1.8353867530822756,-0.4235799312591553,3.436954498291016,-100.87616729736328,-59.9613151550293,-120.9965591430664,3.5597052574157715,10.213851928710938,6.286298751831055,-167.60057067871094,-82.2467041015625,90.5931167602539,0.052886962890625,-0.4207673668861389,2.7690954208374023
2295.805958032608,118.83341979980467,-74.2217025756836,-58.0873908996582,3.740711212158203,-2.785953998565674,1.7569503784179688,-24.32605743408203,-69.08358001708984,141.700927734375,-5.041666030883789,3.472254753112793,-0.317270278930664,-11.043231010437012,25.191469192504883,-36.97573852539063,-7.1333770751953125,11.002130508422852,8.382007598876953,-102.50100708007812,-57.959266662597656,-119.07465362548828,1.1699714660644531,7.303859710693359,0.8593063354492188,-168.8507080078125,-82.3053207397461,89.90664672851562,3.290555477142334,0.0212706103920936,1.321125030517578
2295.8359620571136,117.34007263183594,-71.4614486694336,-67.47779846191406,18.10578155517578,8.787786483764648,3.0943498611450195,-16.958772659301758,-68.7160873413086,136.4025115966797,-6.917074203491211,1.711850881576538,-3.1931095123291016,-16.011180877685547,4.4798688888549805,-35.348567962646484,-4.654905319213867,3.054713726043701,-14.952192306518556,-95.56326293945312,-54.641876220703125,-120.47920989990234,-14.10245132446289,-2.6400604248046875,-3.1679282188415527,-169.62945556640625,-80.70005798339844,88.44453430175781,10.084794998168944,2.398812294006348,-3.533686637878418
2295.8663580417638,129.85333251953125,-65.79114532470703,-85.28888702392578,16.482086181640625,8.723012924194336,5.936418533325195,-13.228379249572754,-68.5344467163086,133.78726196289062,-5.83286190032959,0.906952738761902,-2.812744140625,-21.367589950561523,-18.69362068176269,-30.86156845092773,12.697965621948242,-5.981950759887695,-10.358406066894531,-93.23743438720705,-52.4409294128418,-122.10552215576172,-14.644197463989258,-3.524188041687012,-7.7624311447143555,-171.00485229492188,-78.76688385009766,84.98968505859375,8.23255729675293,-0.4905751347541809,-1.122701644897461
2295.8963634967804,141.65504455566406,-57.644229888916016,-100.6636962890625,8.62687873840332,3.635485172271729,1.078312873840332,-12.13651180267334,-69.2856216430664,133.4251251220703,-4.577281951904297,0.683594822883606,-2.398979663848877,-27.000316619873047,-37.90196990966797,-22.75419235229492,2.603965759277344,-11.251327514648438,4.958041191101074,-95.92137908935548,-51.77176284790039,-121.4156265258789,-5.115083694458008,-2.133025646209717,-4.083691596984863,-170.99269104003906,-78.19937896728516,81.78223419189453,-2.555273532867432,0.3054729104042053,6.133925437927246
2295.926363229752,148.71583557128906,-48.83383941650391,-112.60948181152344,3.051442623138428,-1.299976825714111,-3.962258338928223,-14.161577224731444,-71.18573760986328,136.010009765625,-5.5647382736206055,0.716468334197998,-3.6421055793762207,-28.49578285217285,-46.33879852294922,-9.941582679748535,-3.6181468963623047,-5.906827926635742,12.176946640014648,-93.68922424316406,-52.13483428955078,-120.8698959350586,-2.728682041168213,-3.5059151649475098,-3.489741325378418,-171.5088348388672,-78.17168426513672,83.22672271728516,-1.474177598953247,2.678283214569092,-1.1237287521362305
2295.955367088318,154.27923583984375,-40.12483596801758,-120.91902160644533,-2.715743064880371,-0.5576605796813965,-7.567419052124023,-22.57690048217773,-74.06241607666016,143.98422241210938,-5.09716796875,0.454069435596466,-1.845294952392578,-29.922218322753903,-42.65505599975586,2.081944227218628,1.031092882156372,3.5400543212890625,4.365242004394531,-85.91868591308594,-53.62507629394531,-121.85523223876952,-3.428795337677002,-3.000507354736328,-6.0393266677856445,-172.76979064941406,-78.5257568359375,84.8291015625,2.4437408447265625,0.4483752250671386,-2.722500324249268
2296.0158836841583,159.6429901123047,-32.4410285949707,-126.5028076171875,-5.005948066711426,0.0900646597146987,-9.356924057006836,-43.56389999389648,-77.18408203125,163.0084228515625,-5.345797538757324,3.866056442260742,-3.646293640136719,-33.18991470336914,-34.373531341552734,7.6726531982421875,-2.229217529296875,2.0156774520874023,-5.528092384338379,-76.47773742675781,-56.128509521484375,-123.85220336914062,-3.196352481842041,-3.954578876495361,-7.198129653930664,-176.32435607910156,-79.3111343383789,89.20437622070312,1.409425973892212,1.408783197402954,-2.928183078765869
2296.0459020137787,163.2161865234375,-27.41996955871582,-130.64111328125,-3.048879623413086,1.4673190116882324,-9.980796813964844,-74.80343627929688,-77.66986083984375,-167.84495544433594,-6.048700332641602,0.3138984441757202,-2.2995476722717285,-36.402156829833984,-27.810523986816406,10.119884490966797,-4.804067611694336,-1.702495574951172,-6.673061370849609,-66.20114135742188,-58.9903564453125,-127.38734436035156,-2.622951030731201,-6.03713321685791,-6.745798110961914,-179.78900146484375,-80.32544708251953,94.11917114257812,-0.1699985861778259,1.7473790645599363,-5.619290351867676
2296.0764305591583,164.4005126953125,-25.140300750732425,-134.32696533203125,-5.802286148071289,0.7566213607788086,-9.467140197753906,-98.81509399414062,-75.79341125488281,-145.1660919189453,-4.965611457824707,2.645127773284912,-0.6692104339599609,-39.364219665527344,-25.7464599609375,11.622623443603516,-4.423480987548828,0.7685306072235107,-11.792098999023438,-56.15931701660156,-61.09994888305664,-132.8820037841797,-2.750575542449951,-9.303670883178713,-4.959961891174316,178.96754455566406,-81.03888702392578,97.25648498535156,1.0691945552825928,1.3408432006835938,-4.544883728027344
2296.1064307689667,164.0001983642578,-26.28046417236328,-136.91665649414062,-8.80343246459961,-4.735686302185059,-8.447612762451172,-112.05433654785156,-73.70067596435547,-132.16998291015625,-4.981216430664063,4.060752868652344,0.1816825866699218,-47.007083892822266,-30.694541931152344,10.930782318115234,1.856191635131836,-4.402493476867676,-11.980844497680664,-49.47123336791992,-61.84706497192383,-140.0125732421875,-7.676323890686035,-14.721073150634766,-6.133837699890137,-179.26051330566406,-81.82860565185547,97.13246154785156,3.8470845222473145,0.657530665397644,-3.624774932861328
2296.1364307403564,166.01405334472656,-28.761938095092773,-137.15985107421875,-12.747180938720703,1.278944730758667,13.789932250976562,-118.45864868164062,-72.72305297851562,-124.88431549072266,-4.595245361328125,3.8712873458862314,-0.009404182434082,-44.84176254272461,-46.10973358154297,8.214507102966309,8.263568878173828,-9.862140655517578,8.990079879760742,-54.41945266723633,-62.99808120727539,-147.1962127685547,-7.521958351135254,-18.1450309753418,1.4186553955078125,-175.3909149169922,-83.00697326660156,94.1956558227539,3.8133678436279297,2.009157180786133,-2.0627589225769043
2296.165982723236,165.28431701660156,-27.760740280151367,-134.42578125,-17.558982849121094,-7.721105575561523,13.630664825439451,-123.17634582519533,-73.43256378173828,-119.36668395996094,-3.991283416748047,5.156719207763672,-0.1923122406005859,-3.999082326889038,-63.47666931152344,-17.13145637512207,16.488407135009766,5.282756805419922,45.28057861328125,-54.33471298217773,-65.19013977050781,-162.3368377685547,-4.569170951843262,-11.81284523010254,14.593727111816406,-170.838623046875,-84.98796081542969,88.78358459472656,4.342341423034668,-1.613243818283081,1.3437786102294922
2296.1959834098816,163.90158081054688,-22.503910064697266,-129.54966735839844,-10.992666244506836,-8.600976943969727,19.53165054321289,-126.19546508789062,-75.32330322265625,-115.3564453125,-6.055764198303223,3.9366440773010254,-0.6348762512207031,32.631778717041016,-65.04222869873047,-38.14363479614258,35.07572937011719,1.3854598999023438,4.233349800109863,-32.25380325317383,-66.54619598388672,167.67684936523438,0.4356086254119873,-10.3199462890625,25.91982650756836,-164.7501678466797,-85.16893005371094,82.2183609008789,-1.7881042957305908,-2.799558162689209,4.226788520812988
2296.225982904434,161.72482299804688,-14.310214042663574,-126.8896713256836,-14.35463523864746,-6.593644142150879,13.220674514770508,-125.3572235107422,-77.5265884399414,-115.68038940429688,-6.531528472900391,4.272028923034668,-1.641557693481445,13.320005416870115,-66.05215454101562,-19.04740524291992,14.472576141357422,5.294351577758789,17.430591583251953,-1.3526010513305664,-59.42986679077149,137.1599578857422,-3.057770252227783,-15.126558303833008,20.80901336669922,-160.6517333984375,-85.61180114746094,79.3844985961914,-0.7808653116226196,1.7611534595489502,2.552623748779297
2296.255338191986,158.3265380859375,-6.017576217651367,-125.94459533691406,-10.50457763671875,-6.568388938903809,2.585280418395996,-114.85655975341795,-79.79299926757812,-126.59396362304688,-7.212930679321289,3.802014350891113,0.6895637512207031,-8.206074714660645,-59.898956298828125,-2.7778048515319824,10.59994888305664,-9.101938247680664,13.08674430847168,14.91713523864746,-45.55327224731445,120.29824829101562,-3.840288639068604,-7.247973442077637,16.487060546875,-159.09959411621094,-84.49925231933594,80.13694763183594,1.919299840927124,3.971279621124268,6.794582366943359
2296.3158671855927,156.43215942382812,-0.3239848911762237,-125.22119140625,-7.342619895935059,-2.5164284706115723,-6.216933250427246,-89.53851318359375,-80.85626220703125,-153.413330078125,-6.788116455078125,3.3351993560791016,5.27659797668457,-17.019760131835938,-54.14316177368164,-0.5984036326408386,10.793357849121094,-2.735515594482422,1.6044816970825195,21.65828514099121,-27.89521789550781,113.77587127685548,0.3161634802818298,2.316105842590332,2.748477935791016,-164.06443786621094,-83.6317367553711,86.7461166381836,4.9084014892578125,-0.2106978297233581,10.093610763549805
2296.3462176322937,155.9960174560547,0.8279629945755005,-123.96112823486328,-4.81435489654541,0.3739491105079651,-11.024410247802734,-47.50172805786133,-77.88655853271484,163.38900756835938,-4.35533332824707,-6.070090293884277,12.317790985107422,-26.69140625,-51.58281326293945,-3.813309192657471,1.455036163330078,-7.260452270507812,0.2985963821411133,22.2091007232666,-9.304855346679688,111.68295288085938,-10.54692268371582,-3.4520888328552246,-5.12584114074707,-169.38185119628906,-84.45221710205078,93.55733489990234,5.031675338745117,4.119815826416016,8.026300430297852
2296.3757433891296,156.02633666992188,-3.3311119079589844,-122.12019348144533,-2.8068418502807617,-0.4260876178741455,-16.127323150634766,-41.15430450439453,-74.02971649169922,155.643798828125,-4.028871536254883,2.863857746124268,-5.045629501342773,-30.588777542114254,-52.75226974487305,-12.12756061553955,-3.91714096069336,-5.588798522949219,-0.1521482467651367,9.382067680358888,7.353610515594482,110.13672637939452,-6.706906318664551,-3.1401586532592773,-5.924076080322266,-179.31484985351562,-84.6091537475586,103.53604888916016,4.716791152954102,2.762535095214844,7.088817596435547
2296.4057433605194,156.46824645996094,-12.475227355957031,-119.60735321044922,-4.205410003662109,-4.411714553833008,-18.864856719970703,-49.373294830322266,-71.95632934570312,154.8601837158203,-4.0557355880737305,0.5714728832244873,-5.155241012573242,-37.04837417602539,-56.10546875,-21.07697486877441,-4.267760276794434,-4.43656063079834,-2.63989782333374,0.2644205093383789,22.455944061279297,106.75350189208984,-3.966801166534424,4.782313346862793,-0.9638948440551758,170.23117065429688,-84.52203369140625,113.4333038330078,4.181926727294922,1.1460390090942385,3.259872436523437
2296.435743570328,157.90182495117188,-25.628097534179688,-115.97145080566406,-4.041599273681641,-9.910032272338867,-18.176982879638672,-52.64424896240234,-70.16117858886719,151.70948791503906,-2.275217056274414,3.142838478088379,-9.35810089111328,-42.00263977050781,-60.79952239990234,-31.530860900878903,-7.102277755737305,-1.588135004043579,-1.7955036163330078,1.6985386610031128,34.59356689453125,99.5096664428711,-7.408530235290527,-7.112295150756836,-8.60310173034668,163.80812072753906,-84.49319458007812,119.70380401611328,1.8334729671478271,-0.0854501128196716,-1.336533546447754
2296.4662816524506,158.76324462890625,-43.01967239379883,-111.40465545654295,-5.831000328063965,-12.116619110107422,-10.503446578979492,-50.49498748779297,-69.11923217773438,148.2174072265625,-3.740664482116699,8.37037467956543,-12.919105529785156,-39.99495315551758,-65.99554443359375,-43.975093841552734,-4.767315864562988,0.9446347951889038,-5.932039260864258,0.0292970295995473,42.24604415893555,92.49407958984376,-7.754164695739746,-5.102126121520996,-8.762176513671875,165.3094024658203,-84.8699722290039,117.648193359375,1.327261447906494,1.215322971343994,-7.070966720581055
2296.496282815933,155.15562438964844,-64.27961730957031,-104.61942291259766,1.5307204723358154,-13.569625854492188,17.651607513427734,-51.46951675415039,-69.20841979980469,149.58419799804688,-8.73623275756836,4.200392723083496,-9.20871925354004,-38.00856399536133,-70.51487731933594,-54.15660095214844,-2.877036094665528,2.2224621772766118,-7.878774642944336,-2.871938467025757,46.9142951965332,90.01505279541016,-2.9327235221862797,-5.2129669189453125,-9.512765884399414,165.2168426513672,-84.9651107788086,116.38861083984376,2.9315905570983887,2.579532623291016,-11.166597366333008
2296.526282787323,116.36920928955078,-84.04596710205078,-59.89588928222656,18.77231216430664,9.46592140197754,36.18412780761719,-58.48777770996094,-69.94574737548828,155.4687042236328,-2.180398941040039,1.5214967727661133,-4.479976654052734,-33.9619255065918,-74.11522674560547,-62.80889129638672,-2.589285373687744,3.384430408477783,-7.070594787597656,0.1933324486017227,49.21449661254883,96.84568786621094,-2.0140881538391118,-1.8710918426513672,-12.32452392578125,160.48654174804688,-84.5086669921875,118.74424743652344,0.5491931438446045,0.8509010076522827,-12.183526992797852
2296.555390357971,9.67508029937744,-78.78268432617188,45.21962356567383,-1.451803207397461,37.74314880371094,-21.383712768554688,-68.208984375,-70.41229248046875,163.74276733398438,-4.058416366577148,0.5438472032546997,0.5517425537109375,-25.761533737182617,-76.59638977050781,-71.6479721069336,-2.234970092773437,3.0305981636047363,-6.811786651611328,9.63446807861328,48.7033805847168,113.75247955322266,-8.717273712158203,6.886576652526856,-21.437633514404297,159.34031677246094,-83.89863586425781,117.88504028320312,-2.765247344970703,-2.304936408996582,-7.945743560791016
2296.616004705429,4.585404396057129,-77.13504791259766,41.52611541748047,12.67154312133789,10.171693801879885,-9.36192512512207,-78.13229370117188,-69.6968002319336,172.22314453125,-4.717543601989746,-0.1309658586978912,1.7972745895385742,-18.566421508789062,-78.82035827636719,-78.91547393798828,-1.4133119583129885,1.7382769584655762,-4.843597412109375,20.399471282958984,45.91496276855469,128.8997344970703,-20.83755111694336,8.705265045166016,-25.106712341308597,161.81576538085938,-83.8663330078125,114.4001007080078,-1.381014347076416,-2.6294398307800293,-3.991785049438477
2296.646008014679,22.51200485229492,-81.19877624511719,20.068254470825195,6.484295845031738,7.521100997924805,-1.8054819107055664,-84.7138900756836,-68.07434844970703,178.12510681152344,-8.754898071289062,0.7503830194473267,4.020016670227051,-12.860676765441896,-80.67667388916016,-86.05879974365234,-1.9351460933685305,1.7340326309204102,0.5310029983520508,16.54922103881836,46.09051132202149,125.80880737304688,2.219390869140625,-8.809089660644531,-11.532617568969728,166.8400421142578,-83.24288940429688,108.55947875976562,4.683480262756348,-1.186089277267456,0.3906288146972656
2296.705526828766,83.87394714355469,-82.33844757080078,-37.3853874206543,10.734220504760742,-2.0075511932373047,-0.009002685546875,-84.64295959472656,-66.10713195800781,179.6463165283203,-7.113900184631348,0.808003306388855,4.965088844299316,-5.734585762023926,-81.6017837524414,-94.0050048828125,-4.73363208770752,0.3223042488098144,1.621962547302246,8.799519538879395,43.62479019165039,109.40867614746094,2.83914852142334,2.932276725769043,-11.171751022338867,167.92630004882812,-83.62452697753906,107.5070571899414,-0.1458663344383239,0.0589267313480377,1.7347545623779297
2296.7095263004303,127.49479675292967,-77.91558074951172,-70.9099349975586,-4.774340629577637,-9.909090042114258,1.9359350204467771,-80.14248657226562,-63.849891662597656,179.08351135253906,-9.372228622436523,-3.7895188331604,7.74720573425293,-0.718734622001648,-83.03533935546875,-98.9041976928711,-1.00209641456604,-1.5008337497711182,3.145702362060547,3.0425896644592285,37.23389434814453,88.04369354248047,-10.466886520385742,4.952108383178711,-17.659343719482422,173.9009552001953,-84.13502502441406,102.15855407714844,-0.1453102231025695,1.2373225688934326,-0.3091630935668945
2296.73597574234,139.37303161621094,-76.17236328125,-81.58578491210938,4.233708381652832,2.801743507385254,4.916407585144043,-67.54793548583984,-62.421756744384766,176.48809814453125,-12.544563293457031,-3.638730049133301,-1.8486762046813965,-11.03496265411377,-85.50813293457031,-91.10968017578124,-1.6363437175750732,-0.0001361370086669,6.42803955078125,3.914519309997559,25.25337028503418,69.92190551757812,-1.7646114826202393,2.2660961151123047,-15.664426803588867,-173.6840057373047,-83.6051254272461,92.39221954345705,4.034168243408203,2.1725382804870605,4.815868377685547
2296.7665207386017,150.15538024902344,-75.35994720458984,-92.80994415283205,-1.2409429550170898,-5.021575927734375,2.631650924682617,-61.84059524536133,-62.94990539550781,-179.08038330078125,-25.128318786621094,18.729267120361328,-9.496829986572266,-41.224727630615234,-87.85917663574219,-60.66923904418945,-1.5031182765960691,1.193467378616333,8.376678466796875,10.09528350830078,11.939291000366213,56.76585006713867,-7.561298370361328,3.110415458679199,-12.720998764038086,-164.7533416748047,-81.54032897949219,87.15184020996094,4.452959060668945,-2.1013946533203125,4.650696754455566
2296.795528650284,159.10482788085938,-74.80278778076172,-97.27935791015624,-9.094018936157228,1.5902695655822754,4.940042495727539,-64.21769714355469,-65.32260131835938,-166.80430603027344,-15.420110702514648,11.916007995605469,-2.341233730316162,-90.20185089111328,-87.39360809326172,-9.048663139343262,4.519713401794434,-2.0608062744140625,2.726898193359375,15.111743927001951,-1.2822455167770386,44.88969421386719,4.719701766967773,0.4314090013504028,-8.668251037597656,-160.6377410888672,-78.9484634399414,87.13996124267578,-1.341555118560791,-3.7914586067199703,1.3918123245239258
2296.825528383255,169.2679443359375,-74.06828308105469,-104.3564910888672,-3.3759803771972656,-0.0611808598041534,2.000490188598633,-74.82698059082031,-67.09960174560547,-147.5500946044922,-11.358896255493164,1.6511080265045166,-4.173419952392578,-100.3528060913086,-85.52880096435547,1.9830039739608765,3.6539149284362793,-2.066188335418701,-3.866597652435303,26.778688430786133,-11.327012062072754,33.745262145996094,12.115243911743164,-13.384004592895508,2.0226612091064453,-160.91139221191406,-76.84197998046875,93.41358947753906,-6.527012825012207,-2.5194826126098637,-0.9156599044799804
2296.856236219406,176.4009552001953,-73.21060943603516,-112.75597381591795,3.0415425300598145,-1.2356421947479248,-0.1188173294067382,-93.84282684326172,-66.84547424316406,-125.09813690185548,-4.475742340087891,-0.0582294836640358,-11.155977249145508,-98.04167175292967,-85.36582946777344,2.48108983039856,1.2122068405151367,-5.655657768249512,-4.186168670654297,48.139007568359375,-17.34056282043457,27.371074676513672,5.752703666687012,-14.211999893188477,-11.040721893310549,-162.2653045654297,-74.33740234375,100.5596923828125,-3.3554697036743164,2.843503475189209,-4.473587989807129
2296.915830135345,-179.12315368652344,-73.01555633544922,-118.45980834960938,0.7363728284835815,-1.0989031791687012,0.55255126953125,-112.99143981933594,-64.9374008178711,-106.43008422851562,-0.1004453748464584,2.766125202178955,-16.543228149414062,-91.47331237792967,-87.16890716552734,-0.8694455027580261,-4.098367691040039,-6.823053359985352,-1.1379632949829102,65.95796203613281,-24.682348251342773,25.77230262756348,-12.56056785583496,5.135902404785156,3.39595890045166,-164.72109985351562,-72.69119262695312,104.75619506835938,5.811618804931641,3.12697696685791,-0.0259761810302734
2296.9458417892456,-177.09268188476562,-72.45018005371094,-121.23078918457033,-1.964263916015625,1.450897216796875,0.6910791397094727,-130.05174255371094,-61.91709899902344,-92.02536010742188,1.0906982421875,6.214527130126953,-15.719701766967772,-87.99036407470703,-89.17149353027344,-1.4206151962280271,-4.129347801208496,-6.303606986999512,0.0740804672241211,69.08623504638672,-32.39867401123047,24.300071716308597,-6.334980010986328,-9.808000564575195,1.065469741821289,-167.96327209472656,-71.45972442626953,107.89199829101562,2.581301689147949,0.9136146306991576,-0.8100786209106445
2296.976364850998,-175.2216339111328,-71.72311401367188,-124.4089584350586,-1.4999618530273438,1.240009069442749,0.6611051559448242,-143.38136291503906,-58.92807769775391,-81.28668212890625,0.1622242331504821,5.706883430480957,-13.212303161621094,-169.56747436523438,-89.48149108886719,80.42105865478516,-2.266590118408203,-3.8024415969848633,-0.0790987014770507,72.30708312988281,-41.21786117553711,23.395977020263672,-3.965078353881836,-5.50504207611084,-3.482351303100586,-171.4459228515625,-69.51432037353516,111.68871307373048,-5.135233879089356,-0.0436918660998344,-1.229994773864746
2297.006370782852,-173.47462463378906,-71.0400161743164,-127.25672912597656,0.5349022150039673,-0.0682203918695449,0.066349983215332,-154.1620330810547,-57.2371940612793,-72.43720245361328,-1.986180305480957,3.44668197631836,-9.054315567016602,-155.09925842285156,-88.69718933105469,64.00912475585938,-3.7255163192749023,-3.329072952270508,-0.9583349227905272,76.43624877929688,-54.40546798706055,17.312519073486328,-2.6851954460144043,-1.7510550022125244,1.0370807647705078,-172.97586059570312,-67.23955535888672,113.27359008789062,-3.089413642883301,-0.4916082620620727,2.084269523620605
2297.036370515824,-172.65057373046875,-70.29942321777344,-128.8369903564453,-1.1676218509674072,-0.1754820346832275,-0.5337038040161133,-162.9230194091797,-57.716007232666016,-64.58026885986328,-1.1056232452392578,2.219595432281494,-4.801071166992188,-135.39242553710938,-88.15623474121094,40.7702522277832,0.0323377251625061,-1.2240054607391355,-0.9050693511962892,87.1283950805664,-72.65057373046875,0.114907719194889,8.823341369628906,-7.866393089294434,21.059494018554688,-174.8099822998047,-65.5215835571289,114.44834899902344,1.0877230167388916,1.435275316238403,-0.604609489440918
2297.0659177303314,-173.3475341796875,-68.99059295654297,-129.3263397216797,0.4997474551200866,-2.4721217155456543,-0.7163276672363281,-168.69570922851562,-62.12062454223633,-57.46918487548828,6.420198440551758,-5.299906730651856,-0.3261260986328125,-91.5475845336914,-88.30846405029297,-6.618932247161865,-2.0823898315429688,0.5821100473403931,-0.1266546249389648,164.49148559570312,-85.20637512207031,-81.88107299804688,-7.429496765136719,-20.64784240722656,38.10124206542969,-178.83937072753906,-64.1163558959961,116.5982437133789,-0.488492488861084,4.224660873413086,-1.3974580764770508
2297.0963435173035,-174.95828247070312,-66.8786849975586,-127.82535552978516,1.3465232849121094,-2.045572280883789,-0.8762741088867188,-166.2624053955078,-69.41057586669922,-50.95612335205078,-26.982601165771484,27.214141845703125,43.12904357910156,-47.32297134399414,-85.83200073242188,-53.73540115356445,-4.286496162414551,2.905153274536133,1.3348054885864258,173.84417724609375,-84.54806518554688,-94.10780334472656,5.681182861328125,-3.215498447418213,1.896291732788086,176.93075561523438,-63.696895599365234,118.22974395751952,-1.4534742832183838,2.61429500579834,-0.0203580856323242
2297.126343488693,-177.33192443847656,-64.11058044433594,-124.75444793701172,1.9616491794586184,-2.2596774101257324,-1.2077770233154297,-164.6427459716797,-73.23070526123047,-49.9276123046875,6.049508094787598,-13.506534576416016,7.725797653198242,-43.56293869018555,-79.44393157958984,-61.23841857910156,-3.9797534942626953,1.441230535507202,1.3528423309326172,149.3842010498047,-82.99311065673828,-66.84273529052734,10.351797103881836,-5.968795776367188,4.882847785949707,172.98501586914062,-64.39007568359375,119.6275405883789,-0.5176917314529419,1.830278396606445,-0.7505483627319336
2297.156358480453,-179.52479553222656,-61.0674057006836,-121.0699691772461,-0.7462372779846191,0.3400295972824096,0.1217412948608398,-169.430908203125,-74.41824340820312,-49.68600082397461,5.214075088500977,-4.158084869384766,24.282062530517575,-45.03605270385742,-69.70291137695312,-61.94555282592773,-1.5591697692871094,-1.373842477798462,5.746607780456543,119.16019439697266,-85.89153289794922,-31.522371292114254,2.2904200553894043,-8.435909271240234,6.887582778930664,169.57345581054688,-65.9681396484375,120.32769012451172,0.4899119734764099,2.055453300476074,-0.3019723892211914
