Timestamp,D4:22:CD:00:05:5D_EulerX,D4:22:CD:00:05:5D_EulerY,D4:22:CD:00:05:5D_EulerZ,D4:22:CD:00:05:5D_FreeAccX,D4:22:CD:00:05:5D_FreeAccY,D4:22:CD:00:05:5D_FreeAccZ,D4:22:CD:00:05:5E_EulerX,D4:22:CD:00:05:5E_EulerY,D4:22:CD:00:05:5E_EulerZ,D4:22:CD:00:05:5E_FreeAccX,D4:22:CD:00:05:5E_FreeAccY,D4:22:CD:00:05:5E_FreeAccZ,D4:22:CD:00:05:6B_EulerX,D4:22:CD:00:05:6B_EulerY,D4:22:CD:00:05:6B_EulerZ,D4:22:CD:00:05:6B_FreeAccX,D4:22:CD:00:05:6B_FreeAccY,D4:22:CD:00:05:6B_FreeAccZ,D4:22:CD:00:05:6E_EulerX,D4:22:CD:00:05:6E_EulerY,D4:22:CD:00:05:6E_EulerZ,D4:22:CD:00:05:6E_FreeAccX,D4:22:CD:00:05:6E_FreeAccY,D4:22:CD:00:05:6E_FreeAccZ,D4:22:CD:00:49:AA_EulerX,D4:22:CD:00:49:AA_EulerY,D4:22:CD:00:49:AA_EulerZ,D4:22:CD:00:49:AA_FreeAccX,D4:22:CD:00:49:AA_FreeAccY,D4:22:CD:00:49:AA_FreeAccZ
1514.7191579341888,161.88900756835938,-84.1255111694336,-115.92443084716795,11.109861373901367,-4.435041427612305,-8.005779266357422,-130.13531494140625,-45.39109420776367,-98.84355926513672,-0.3964216709136963,4.715213775634766,-7.971960067749023,27.76360511779785,51.61970901489258,-50.28209686279297,0.7100701332092285,-5.986120223999023,-7.206259727478027,-94.0033950805664,-78.27603912353516,-66.03427124023438,1.635462522506714,-4.47679328918457,-8.387468338012695,-177.78785705566406,-70.12830352783203,114.73421478271484,2.125947952270508,1.555524826049805,-10.24673843383789
1514.7296690940857,140.18775939941406,-85.01544189453125,-85.28802490234375,5.886639595031738,-1.7068052291870115,-6.953729629516602,-125.12745666503906,-49.892486572265625,-109.26303100585938,-4.261791229248047,1.4618828296661377,-7.535959243774414,28.555044174194336,55.70027923583984,-60.68098068237305,2.0344815254211426,-4.488620758056641,-9.910526275634766,-84.93589782714844,-80.68251037597656,-66.30498504638672,1.266617774963379,-2.1034650802612305,-10.299175262451172,-176.41058349609375,-70.97722625732422,115.27703857421876,1.867561101913452,0.4110515713691711,-9.47970962524414
1514.7864594459534,171.86419677734375,-47.98067092895508,-92.2405242919922,-0.2354092001914978,-1.0035006999969482,0.9129114151000975,-160.59214782714844,-71.4600601196289,-68.10596466064453,9.27035903930664,5.618086814880371,-0.0161828994750976,-15.71000862121582,19.87332534790039,-38.833961486816406,-0.1702975034713745,-0.9703706502914428,5.180302619934082,85.00367736816406,-61.39801788330078,49.51646041870117,-4.285750389099121,0.8638333082199097,4.068673133850098,169.3231201171875,-70.03059387207031,118.16900634765624,-1.7682762145996094,4.182236671447754,7.599613189697266
1514.8164594173431,174.42930603027344,-48.27417755126953,-90.91248321533205,-1.0539374351501465,-0.5678189992904663,1.7870988845825195,-104.1006088256836,-57.88019180297852,-123.81047058105467,5.079892158508301,3.683839797973633,-4.459640502929688,-4.137815952301025,26.277217864990234,-28.628103256225582,-3.9493541717529297,-2.576998233795166,7.691156387329102,90.4186553955078,-61.58366394042969,49.41085052490234,-5.06806755065918,1.0509605407714844,4.989082336425781,170.06411743164062,-74.7208251953125,120.8701400756836,-3.615862846374512,4.239681243896484,6.830923080444336
1514.846400976181,175.50404357910156,-50.195743560791016,-89.37456512451172,-1.8657631874084477,-0.0212413296103477,2.211994171142578,-90.1983871459961,-43.25047302246094,-142.03392028808594,4.103161811828613,3.8301286697387695,-6.586427688598633,7.212907791137695,30.549468994140625,-22.133180618286133,-4.553289413452148,-10.132387161254885,7.896398544311523,106.37464904785156,-65.18600463867188,45.2678337097168,-4.133383750915527,-3.293527603149414,7.868965148925781,177.4857940673828,-80.77373504638672,118.15189361572266,1.7258923053741455,2.344618797302246,6.531238555908203
1514.906761884689,174.96177673339844,-53.93537902832031,-86.48194885253906,-1.7388746738433838,-0.8496755361557007,2.361477851867676,-85.2777099609375,-32.024166107177734,-154.76998901367188,-0.8542730808258057,3.1203503608703613,-12.275381088256836,16.033933639526367,32.91803359985352,-22.646045684814453,-4.000761985778809,-8.663694381713867,4.364129066467285,118.37857055664062,-68.76512145996094,44.45793533325195,-3.57485580444336,-4.93665885925293,4.861950874328613,-161.87738037109375,-85.22952270507812,102.21690368652344,1.7863430976867676,3.722504138946533,1.5460824966430664
1514.9382302761078,174.02072143554688,-58.72542572021485,-80.1169662475586,-2.5333523750305176,-3.888770580291748,8.16122817993164,-84.39140319824219,-25.6837100982666,-165.7958526611328,0.0046555511653423,3.5343475341796875,-12.833904266357422,19.5360164642334,34.30550765991211,-26.52172470092773,-3.15817928314209,-4.240022659301758,-0.4979057312011719,129.53707885742188,-71.23189544677734,44.30779266357422,-3.123093605041504,-4.367399215698242,-0.2163763046264648,-114.6087417602539,-86.78618621826172,59.92448043823242,-2.126192569732666,0.0589691996574401,-6.7711687088012695
1514.9668097496033,171.19273376464844,-62.76791000366211,-73.50545501708984,9.34845733642578,-13.831167221069336,4.826960563659668,-83.26567077636719,-21.69828224182129,-177.30560302734375,-0.2779532074928283,5.1823577880859375,-8.043075561523438,18.028827667236328,36.876426696777344,-31.63639068603516,-0.6888238191604614,4.6503095626831055,-6.5094099044799805,140.36703491210938,-72.75188446044922,44.590110778808594,-3.0113019943237305,-5.223971366882324,-3.1042513847351074,-92.41422271728516,-86.82861328125,41.01575469970703,3.207045078277588,0.5446668863296509,-7.711653709411621
1514.9968221187592,160.3767852783203,-66.05486297607422,-69.51942443847656,8.047466278076172,-0.4971664547920227,-5.168145179748535,-82.40361022949219,-19.56870460510254,170.986328125,-4.626690864562988,7.685505867004394,-10.32724952697754,8.545156478881836,40.03520202636719,-39.22697067260742,2.4060211181640625,7.790698051452637,-12.328989028930664,147.336669921875,-73.4580078125,46.84273147583008,-2.135404109954834,-5.164573669433594,-5.603655815124512,-69.16841125488281,-88.28240203857422,16.650026321411133,5.703167915344238,1.7995953559875488,-9.366313934326172
1515.02699136734,164.2297821044922,-64.10025024414062,-67.98188018798828,14.455280303955078,-0.886110782623291,-12.253059387207031,-84.0451431274414,-19.23029518127441,160.48326110839844,-11.380027770996094,13.954933166503906,-10.455406188964844,-6.873805999755859,42.28456878662109,-50.21513366699219,0.7127200365066528,0.4164462089538574,-14.864215850830078,150.17686462402344,-73.31707000732422,50.78004455566406,-1.098390817642212,-4.888988494873047,-8.234039306640625,13.352478981018066,-88.33023834228516,-68.44448852539062,-0.6832388639450073,1.280651569366455,-9.093389511108398
1515.0566895008087,177.89686584472656,-67.6152572631836,-73.34532165527344,-3.401557445526123,-4.723851203918457,-12.541812896728516,-91.30279541015624,-19.458030700683597,156.0920867919922,4.188418388366699,25.95691680908203,-20.982669830322266,-23.43437767028809,41.99826049804688,-66.26143646240234,0.5157512426376343,-3.736495018005371,-14.430120468139648,150.3914031982422,-72.39659118652344,54.96734237670898,0.508721113204956,-4.147176742553711,-8.758224487304688,35.74236297607422,-85.65625762939453,-92.21775817871094,-2.4585437774658203,-0.8566851615905762,-7.5312652587890625
1515.086688041687,177.32212829589844,-71.40895080566406,-81.11761474609375,-10.01779556274414,14.12550163269043,0.2330169677734375,-102.93682861328124,-19.54757499694824,160.97430419921875,9.414020538330078,38.988731384277344,-0.0530929565429687,-35.09455108642578,35.6536750793457,-86.50513458251953,-3.177435398101806,-13.538835525512695,-16.86330795288086,149.24075317382812,-71.3777847290039,58.46282577514648,1.653984308242798,-3.657820701599121,-7.877084732055664,33.840843200683594,-83.68419647216797,-91.32201385498048,-1.6368358135223389,-1.070197820663452,-5.29282283782959
1515.116687297821,173.46435546875,-68.88671875,-78.76820373535156,-7.5625,-1.396965265274048,-2.8038716316223145,-111.64942932128906,-20.10497283935547,169.25340270996094,-15.981161117553713,-4.28489875793457,-10.318376541137695,-32.69905471801758,24.82832717895508,-103.4776840209961,-12.665964126586914,-25.352802276611328,-10.862585067749023,148.20294189453125,-70.98802185058594,59.69081497192383,1.8643560409545896,-3.894102096557617,-6.497161865234375,29.212514877319336,-82.67989349365234,-89.17378997802734,0.097583070397377,0.5372895002365112,-4.0246782302856445
1515.1474125385284,172.13949584960938,-65.18799591064453,-69.52328491210938,-3.148892879486084,1.146935224533081,3.01716423034668,-112.88277435302734,-20.78086853027344,174.99639892578125,-23.61872100830078,1.8499062061309812,-23.17593765258789,-24.002315521240234,22.58515739440918,-105.94764709472656,16.196170806884766,8.558387756347656,-20.980098724365234,149.06988525390625,-71.57749938964844,57.88320541381836,0.3440314531326294,-3.611612319946289,-5.852718353271484,32.08153533935547,-81.47306823730469,-95.02500915527344,-3.313649654388428,-3.2891950607299805,2.463109970092773
1515.2066988945007,169.05198669433594,-63.57298278808594,-63.03841781616211,-0.4441455006599426,3.1996850967407227,2.588800430297852,-122.12805938720705,-20.01992416381836,-178.96054077148438,-17.127559661865234,0.0597408786416053,3.083989143371582,-24.63033103942871,26.303672790527344,-96.9802703857422,-2.114790916442871,-1.20711088180542,-3.2195162773132324,156.5614776611328,-72.99542236328125,48.91830825805664,0.1609305441379547,-3.854084491729736,-0.0905323028564453,36.62937545776367,-80.72774505615234,-102.84517669677734,-2.1043481826782227,-5.611245155334473,6.305206298828125
1515.2367804050446,162.45150756835938,-63.16347885131836,-58.0205192565918,3.566858291625977,-0.2982679605484009,0.4134531021118164,-128.65614318847656,-20.37424087524414,-174.871826171875,-2.8411636352539062,2.7146944999694824,0.7032766342163086,-28.12811851501465,31.539962768554688,-82.2818374633789,-0.0604113340377807,-3.6535258293151855,-12.85137176513672,172.6323699951172,-74.08186340332031,30.722509384155277,7.750285148620605,-4.019856452941895,16.31468963623047,35.671390533447266,-81.83908081054688,-104.40382385253906,1.3163056373596191,-0.9462096691131592,2.317401885986328
1515.2668588161469,157.15692138671875,-62.3597526550293,-53.62434005737305,3.2631893157958984,-8.732690811157227,8.729804992675781,-132.27330017089844,-22.500354766845703,-172.32107543945312,-12.434104919433594,1.462697982788086,-0.5598421096801758,-28.281015396118164,34.06735610961914,-63.26274871826172,-2.7269883155822754,-8.404512405395508,-8.009450912475586,-173.09921264648438,-73.39257049560547,15.953802108764648,8.82907485961914,-4.2393903732299805,7.687690734863281,40.168827056884766,-84.05809783935547,-109.22482299804688,3.3843650817871094,-4.052820205688477,6.637723922729492
1515.2969884872437,152.6152801513672,-60.5156135559082,-50.76411819458008,-0.5560885667800903,-3.183813095092773,8.412879943847656,-134.11508178710938,-24.67060089111328,-170.52792358398438,-7.946236610412598,1.6124451160430908,-2.111142158508301,-25.8531551361084,31.481246948242188,-47.00945281982422,0.842809796333313,-1.242527961730957,-5.826904296875,-175.6434783935547,-70.86688232421875,15.09281063079834,10.061304092407228,-4.328965187072754,2.082784652709961,46.79896926879883,-85.28495025634766,-117.82199096679688,7.233491897583008,-0.7691973447799683,3.113750457763672
1515.3269789218905,146.5615692138672,-58.697879791259766,-50.60637664794922,5.024616241455078,-5.246547698974609,8.34576416015625,-135.13011169433594,-27.316272735595703,-169.16229248046875,-8.078235626220703,1.1123509407043457,-3.0702900886535645,-28.599178314208984,26.88104820251465,-34.21372604370117,-1.6510632038116455,6.140782356262207,-5.574641227722168,166.37380981445312,-67.28990173339844,20.248872756958008,7.553539276123047,2.66489315032959,1.567707061767578,75.20130157470703,-87.0618896484375,-150.21487426757812,3.684850215911865,-0.0762980431318283,-1.0719480514526367
1515.385702610016,141.58206176757812,-57.17414855957031,-53.79878234863281,9.677446365356444,1.775496244430542,2.3723363876342773,-134.2679443359375,-30.373485565185547,-168.5676727294922,-8.516244888305664,1.9695358276367188,-4.512503623962402,-36.47819137573242,21.049541473388672,-23.96070098876953,-5.003925323486328,5.619294166564941,1.2803268432617188,150.47496032714844,-65.03336334228516,25.77019500732422,9.670761108398438,6.16231632232666,-1.599822998046875,143.59823608398438,-86.78107452392578,139.36134338378906,-0.0901548415422439,-3.484790802001953,1.351409912109375
1515.3957307338717,140.62940979003906,-55.391239166259766,-61.1382942199707,2.3572092056274414,14.177263259887695,6.654693603515625,-132.79185485839844,-33.233760833740234,-168.64743041992188,-8.681758880615234,2.840417861938477,-5.758784294128418,-44.44500350952149,13.871502876281738,-15.104063987731934,-4.072732925415039,9.089431762695312,-2.810267448425293,146.42874145507812,-66.2177505493164,31.07938575744629,5.693309783935547,13.441713333129885,-4.561347007751465,159.7395477294922,-86.21385192871094,124.62278747558594,2.801626205444336,-1.4542944431304932,2.94537353515625
1515.4166197776794,141.6261444091797,-50.74652862548828,-69.623779296875,5.203426361083984,12.506170272827148,1.2288093566894531,-131.34326171875,-35.506439208984375,-169.18299865722656,-8.525615692138672,2.589777946472168,-5.804881095886231,-57.03224563598633,5.954046726226807,-7.202085494995117,1.3081235885620115,8.84537124633789,-2.151834011077881,145.82850646972656,-68.49748992919922,35.85367965698242,0.805939793586731,6.390700340270996,1.0412569046020508,165.037353515625,-85.87702178955078,120.10506439208984,6.660933494567871,1.729275465011597,0.7104454040527344
1515.44682431221,145.49998474121094,-44.2825813293457,-77.80908203125,4.111939430236816,6.018738746643066,-5.543452262878418,-130.30397033691406,-36.938907623291016,-169.56275939941406,-7.581280708312988,1.0483677387237549,-4.652602195739746,-66.00855255126953,-1.5654160976409912,0.1144544258713722,0.0131061673164367,1.0922017097473145,13.073348999023438,140.16064453125,-69.35566711425781,42.25165557861328,-0.7945241928100586,8.43804931640625,-0.8465709686279297,163.1339569091797,-85.35311889648438,121.2818832397461,4.710411071777344,0.9885426759719848,-1.592667579650879
1515.5068063735962,150.74545288085938,-37.29351043701172,-84.53898620605469,-1.3696510791778564,4.281302452087402,-9.793901443481444,-130.7615509033203,-37.06730651855469,-169.03179931640625,-7.926034927368164,0.1006011664867401,-5.928234100341797,-64.70565032958984,-8.15236759185791,7.416544914245605,-2.4576058387756348,6.197944641113281,2.729890823364258,135.23870849609375,-69.7281265258789,46.94171905517578,1.411982774734497,5.468182563781738,-2.92158842086792,157.35671997070312,-84.92449188232422,126.32295989990234,0.5539499521255493,0.2173141539096832,-2.7721009254455566
1515.537008523941,156.14573669433594,-31.02585792541504,-89.41702270507812,-3.941603660583496,2.85396671295166,-11.226810455322266,-131.93655395507812,-35.47080612182617,-167.31080627441406,-8.76318359375,1.358903884887695,-8.358383178710938,-65.4984359741211,-14.581045150756836,14.96751594543457,-1.221229076385498,5.581181526184082,-4.848958969116211,132.92147827148438,-70.08524322509766,51.701416015625,1.3096075057983398,2.689147472381592,-4.644591331481934,157.5061798095703,-84.57949829101562,125.8001708984375,0.2171419262886047,-0.2066311240196228,-4.128113746643066
1515.5666444301603,161.32733154296875,-26.42216682434082,-93.26721954345705,-3.369002342224121,2.3729090690612797,-10.296669006347656,-132.98768615722656,-32.44969940185547,-165.02798461914062,-7.162436485290527,1.2049686908721924,-7.219152450561523,-69.39768981933594,-22.6696834564209,22.836986541748047,0.9124433994293212,2.798114776611328,-3.541107177734375,132.25369262695312,-69.88235473632812,57.64250183105469,0.267093300819397,1.527212619781494,-5.3105058670043945,156.85133361816406,-84.58362579345703,126.69605255126952,1.6551318168640137,-1.4007797241210938,-5.153797149658203
1515.5967154502869,164.4774932861328,-24.58607292175293,-96.63201141357422,-3.168864250183105,1.6589651107788086,-6.398016929626465,-134.87570190429688,-28.00833320617676,-163.22994995117188,-1.0264689922332764,4.978725433349609,-5.829073905944824,-70.46942901611328,-33.934993743896484,29.483413696289062,1.4239380359649658,5.221667289733887,2.202373504638672,132.23146057128906,-68.80950164794922,64.50650024414062,-0.2316060662269592,-0.2852935194969177,-5.306399345397949,152.352294921875,-84.62247467041016,131.89939880371094,0.8802050352096558,-0.8984456062316895,-6.817153930664063
1515.6269788742063,164.69668579101562,-26.24928092956543,-99.36849975585938,-5.9204607009887695,-4.709814071655273,-7.744933128356934,-136.6897735595703,-23.604665756225582,-162.29100036621094,-12.905096054077148,2.9885787963867188,-3.5417704582214355,-61.30830383300781,-48.66790390014648,30.678516387939453,2.9466419219970703,6.985164642333984,8.713151931762695,131.72366333007812,-66.0232925415039,71.55375671386719,-1.558932542800903,-4.962582588195801,-3.001284122467041,152.04629516601562,-85.0573959350586,132.3441619873047,0.5979115962982178,-1.773037672042847,-6.682135581970215
1515.6566092967987,162.09262084960938,-30.101341247558597,-100.5562973022461,-9.578521728515623,-3.303694725036621,8.378080368041992,-138.16944885253906,-19.482133865356445,-161.28297424316406,-5.244318962097168,1.437273025512695,0.4449043273925781,-33.83026885986328,-62.11336517333984,18.703584671020508,8.749300003051758,6.199263572692871,12.776403427124023,128.36428833007812,-58.30844497680664,75.76268768310547,-5.266900062561035,-13.601959228515623,9.139423370361328,149.39500427246094,-86.11214447021484,133.40185546875,1.8523163795471191,-1.358364820480347,-1.956393241882324
1515.686996936798,158.7017822265625,-29.040510177612305,-98.78752136230467,-3.294631004333496,-13.924449920654297,13.067815780639648,-138.96238708496094,-17.5100154876709,-159.61131286621094,-7.994718551635742,0.5846377611160278,-0.3557329177856445,-6.89425802230835,-65.24934387207031,-1.399536371231079,9.945438385009766,17.7357177734375,-0.0477104187011718,117.38778686523438,-44.04201889038086,76.553466796875,1.3522565364837646,1.1142287254333496,16.118331909179688,143.46791076660156,-86.69832611083984,138.0187530517578,1.5514168739318848,-2.3419651985168457,2.5208559036254883
1515.7163286209106,165.72994995117188,-26.553056716918945,-96.65275573730467,-17.14272689819336,-16.097843170166016,13.19293975830078,-139.22947692871094,-17.27937126159668,-158.022705078125,-8.395853042602539,3.303725242614746,-2.8470191955566406,-19.237422943115234,-62.6099967956543,0.8918097615242004,10.457630157470703,11.06385612487793,0.6325769424438477,110.33707427978516,-26.33551788330078,76.80282592773438,-1.206118106842041,-0.4664527773857116,15.843538284301758,159.7225341796875,-83.58271026611328,121.2106704711914,-0.9799048900604248,-5.01759147644043,7.23106575012207
1515.7469568252563,164.84983825683594,-20.38762855529785,-94.363037109375,-9.878694534301758,-17.450145721435547,11.225418090820312,-139.58718872070312,-17.706138610839844,-157.83290100097656,-9.152713775634766,3.343991756439209,-2.8714804649353027,-47.68296051025391,-54.96826171875,9.1746826171875,16.542449951171875,-3.1968088150024414,9.17331886291504,105.5857925415039,-8.770359992980957,75.24429321289062,7.865659713745117,1.7374305725097656,17.082015991210938,160.81019592285156,-82.46891021728516,119.30879974365234,0.3991753458976745,0.3979777693748474,10.283910751342772
1515.8065540790558,160.6508331298828,-13.968626976013184,-94.24341583251952,-2.973853588104248,-13.00667953491211,5.036043167114258,-140.16180419921875,-18.699073791503903,-159.0977020263672,-8.72488784790039,3.107546329498291,-3.0030946731567383,-64.06414794921875,-45.90852355957031,9.710111618041992,17.47085189819336,-0.3908958435058594,8.391618728637695,95.96623992919922,8.68781566619873,74.40534973144531,19.46083068847656,4.510870933532715,11.012266159057615,154.805908203125,-82.96086883544922,125.42536163330078,2.3756237030029297,1.3991663455963137,11.933300018310549
1515.836493730545,158.05859375,-9.65981388092041,-95.45674896240234,-1.7882237434387207,-8.604877471923828,-1.1450843811035156,-141.30543518066406,-20.428268432617188,-161.10348510742188,-9.03007698059082,1.7756972312927246,-2.344113826751709,-72.512939453125,-39.47544860839844,5.171909332275391,16.399532318115234,-1.3864250183105469,-0.1220560073852539,72.59986114501953,26.53988265991211,73.16151428222656,16.707271575927734,12.030412673950195,3.4589719772338867,136.9475860595703,-84.47103881835938,142.13514709472656,6.554088592529297,1.7068417072296145,7.152984619140625
1515.8662464618685,156.78829956054688,-9.193353652954102,-96.89371490478516,-3.1740875244140625,-3.631611824035645,-2.4736366271972656,-142.64781188964844,-23.04315948486328,-163.203857421875,-9.73948097229004,0.2972708940505981,-1.2116289138793943,-79.93882751464844,-36.88238906860352,-0.0282495617866516,12.74393081665039,-2.458775043487549,-2.424083709716797,47.83129119873047,41.46820831298828,72.91793823242188,23.695274353027344,1.4451305866241455,-4.808492660522461,116.0589599609375,-84.78421020507812,160.70335388183594,6.146637916564941,2.608874797821045,1.6551694869995115
1515.8963887691498,154.49986267089844,-12.173993110656738,-97.78528594970705,-4.355780601501465,0.1049015522003173,-4.694808006286621,-143.55838012695312,-26.13861083984375,-165.04949951171875,-13.404434204101562,-0.9545096158981324,-3.098548889160156,-85.96085357666016,-39.580265045166016,-3.791727066040039,7.862926483154297,0.014348030090332,-1.0402889251708984,34.948280334472656,52.58651351928711,76.96823120117188,10.376279830932615,6.83299446105957,3.73210334777832,109.55359649658205,-83.9376449584961,164.2914276123047,0.9047408103942872,1.062971830368042,0.6346817016601562
1515.9264211654663,150.85629272460938,-18.214340209960938,-98.05696105957033,-4.447059631347656,0.1069343984127044,-10.034942626953123,-143.134765625,-29.107999801635746,-166.2183074951172,-9.042579650878906,-0.7415721416473389,-5.024511337280273,-87.78768920898438,-47.1136474609375,-5.869492530822754,3.7794508934021,2.54254150390625,2.144250869750977,28.071674346923828,60.914920806884766,83.82209014892578,-3.239992141723633,9.424505233764648,3.538625717163086,109.9597396850586,-83.03339385986328,161.08851623535156,-2.3695178031921387,0.9760836362838744,-1.5221986770629885
1515.9560463428495,147.11090087890625,-27.23849868774414,-97.6863250732422,-4.696450233459473,-2.1161203384399414,-12.242969512939451,-141.4562530517578,-31.508563995361328,-167.47535705566406,-5.690413475036621,1.2935457229614258,-5.685665130615234,-84.64647674560547,-57.75151824951172,-7.213436126708984,2.92002010345459,1.843445062637329,1.8718929290771484,25.99692153930664,66.16620635986328,87.36888885498047,-3.677673816680908,5.4392499923706055,0.971604347229004,112.86103057861328,-82.55830383300781,156.40554809570312,0.2653406262397766,0.5008214712142944,-3.3918561935424805
1515.9860379695892,143.4650421142578,-39.24138259887695,-96.30265045166016,-3.550415515899658,-3.588664054870605,-8.302785873413086,-140.93923950195312,-32.809425354003906,-169.095947265625,-3.737003326416016,2.577402114868164,-5.6936540603637695,-80.16065979003906,-69.37366485595703,-8.900293350219727,1.9791505336761477,0.9199891090393066,2.263960838317871,27.69258499145508,67.59735870361328,90.73155975341795,-5.885725021362305,6.139492988586426,-2.8981704711914062,114.3580551147461,-82.28360748291016,153.38682556152344,2.164324283599853,0.444815456867218,-3.628411769866944
1516.0279068946838,137.9534912109375,-53.93349838256836,-92.25617218017578,-1.001194953918457,-4.925276756286621,-2.107056140899658,-141.59164428710938,-33.31399154663086,-170.6797637939453,-1.5111894607543943,3.0000128746032715,-5.58757209777832,-74.19483184814453,-80.64535522460938,-13.989181518554688,1.2405290603637695,-0.1203937530517578,1.3423948287963867,30.42323303222656,65.58248901367188,97.92236328125,-5.065787315368652,3.441951274871826,-7.388853073120117,113.44527435302734,-82.02918243408203,152.196044921875,1.325618028640747,0.6597572565078735,-5.798454284667969
1516.0461716651917,124.97431182861328,-70.17789459228516,-79.1601791381836,3.881011486053467,-7.330219268798828,8.136396408081055,-142.6039581298828,-33.070838928222656,-171.58291625976562,-4.855701446533203,4.057328224182129,-7.880364418029785,47.10462951660156,-88.25257873535156,-137.63397216796875,-0.7587233781814575,0.3025624752044678,0.6596717834472656,36.23137283325195,60.939056396484375,105.96471405029295,-4.976626396179199,4.037858963012695,-10.365301132202148,114.20793914794922,-81.81909942626953,148.5680694580078,1.503384351730347,0.3710579872131347,-7.503703117370605
1516.1064729690552,63.15868377685547,-80.65199279785156,-11.807271003723145,11.775798797607422,-0.3149713277816772,23.145416259765625,-144.16722106933594,-31.30834007263184,-171.80064392089844,-5.871001243591309,0.8930778503417969,-7.58051872253418,83.58663177490234,-79.91765594482422,179.21405029296875,-3.532741069793701,0.5983272790908813,-0.059340476989746,38.94193649291992,53.65690994262695,114.39236450195312,-10.896623611450195,7.912539482116699,-9.542858123779297,116.75019073486328,-81.81369018554688,143.42930603027344,1.2281551361083984,-0.739397406578064,-8.538177490234375
1516.136854887009,21.83912467956543,-72.7259750366211,38.89791870117188,5.883489608764648,22.19833755493164,-11.54111671447754,-147.42709350585938,-27.190439224243164,-171.81118774414062,-7.268314361572266,2.5628457069396973,-5.72496509552002,77.30176544189453,-72.43883514404297,176.4654541015625,-5.088327407836914,2.458428382873535,-2.477447509765625,30.473695755004883,45.39046096801758,123.0167999267578,-16.406341552734375,6.550786018371582,-14.89396858215332,125.67033386230467,-81.74764251708984,133.09915161132812,0.4927176833152771,-4.123336791992188,-7.807019233703613
1516.1667256355286,20.2816219329834,-71.35060119628906,38.69361114501953,4.367164611816406,6.407223701477051,-5.282000541687012,-150.34310913085938,-23.73245048522949,-172.1514129638672,-7.749738693237305,2.4712395668029785,-2.907357692718506,68.23734283447266,-65.52523803710938,176.9056396484375,-4.91259765625,3.8432865142822266,-4.224453926086426,14.239240646362305,42.213172912597656,129.36163330078125,-10.154943466186523,4.06859302520752,-17.988277435302734,142.77870178222656,-80.28424072265625,114.04888153076172,0.7975072860717773,-4.348938941955566,-1.7509164810180664
1516.19619846344,34.51071548461914,-73.89099884033203,25.845489501953125,10.29891586303711,6.749744415283203,-11.978473663330078,-150.34182739257812,-23.180500030517575,-173.11190795898438,-9.976184844970703,1.8159246444702148,-1.447998046875,57.59288024902344,-59.33135986328125,178.28196716308594,-4.515408515930176,1.4676456451416016,-5.470492362976074,16.144384384155273,47.2458381652832,135.37213134765625,12.48185920715332,7.359333992004394,-16.44574737548828,148.55694580078125,-79.85204315185547,106.95423889160156,0.94294273853302,1.455641746520996,2.70162296295166
1516.2264111042025,77.19900512695312,-74.74433898925781,-7.064431667327881,7.902753829956055,7.632272720336914,0.0998773574829101,-149.0673370361328,-24.35479164123535,-174.8485870361328,-16.47277069091797,-0.1228626072406768,-0.6967382431030273,44.657623291015625,-55.14763259887695,179.7340545654297,-5.53182315826416,0.7189452648162842,-6.979245185852051,25.13560676574707,54.83734130859375,136.90975952148438,1.0060298442840576,-2.858767509460449,-12.257835388183594,158.37783813476562,-79.51166534423828,97.43326568603516,1.71480131149292,-2.0156173706054688,2.8195009231567383
1516.2574391365051,117.26922607421876,-70.77400207519531,-37.23398971557617,-6.149226188659668,-13.329717636108398,8.43631362915039,-147.41064453125,-25.99736213684082,-176.94090270996094,-12.915403366088867,2.358659267425537,-1.8830838203430176,31.775863647460938,-53.45063018798828,-179.43917846679688,-8.827228546142578,4.00130558013916,-5.443337440490723,31.288862228393555,64.29644775390625,127.97022247314452,7.873391151428223,-2.7513985633850098,-14.681093215942385,171.1017303466797,-79.84032440185547,86.28756713867188,2.1432852745056152,1.0399682521820068,9.622512817382812
1516.2864406108856,125.79845428466795,-67.75248718261719,-48.13868713378906,14.89188003540039,-7.684809684753418,-5.471086502075195,-143.06173706054688,-28.24047470092773,179.978515625,-14.182573318481444,2.664233684539795,-5.418398857116699,26.117786407470703,-53.51597595214844,178.6608123779297,-10.649274826049805,9.26922607421875,-3.026632308959961,34.80852508544922,73.14665222167969,102.7671127319336,-5.250388145446777,-7.076282501220703,-8.454866409301758,177.51991271972656,-80.36235046386719,82.84403228759766,1.708005666732788,-2.784280776977539,8.84676742553711
1516.3164489269257,136.3062744140625,-66.70252990722656,-57.10832595825195,-9.042228698730469,0.7975219488143921,9.90269660949707,-133.5212860107422,-30.634601593017575,175.8512420654297,-10.061912536621094,2.834228038787842,-7.776677131652832,35.096031188964844,-55.131107330322266,171.6190185546875,-7.667765617370605,11.11625862121582,0.9101829528808594,12.554351806640623,75.10757446289062,50.84922409057617,-19.045188903808597,1.2900543212890625,-5.2799835205078125,-176.3040771484375,-80.70953369140625,79.65013122558594,-2.229345798492432,0.573615312576294,1.4482660293579102
1516.3772721290588,141.43209838867188,-66.80121612548828,-61.67154693603516,-6.99726676940918,-3.005880355834961,4.470180511474609,-118.85684967041016,-31.806978225708008,171.65719604492188,-1.7279577255249023,13.850908279418944,2.122802734375,54.86062240600586,-57.33186340332031,162.0406494140625,-7.1923933029174805,8.808021545410156,1.0643815994262695,-8.145541191101074,66.89868927001953,18.624956130981445,-11.86678695678711,11.40752410888672,-4.721125602722168,-171.91050720214844,-80.3109130859375,79.50006103515625,-2.526919364929199,2.3558735847473145,-2.3696303367614746
1516.406480550766,147.625244140625,-67.34385681152344,-62.39775466918945,-1.704505205154419,1.8247969150543213,-0.6816921234130859,-101.69583892822266,-29.812902450561523,172.19122314453125,-5.967509269714356,31.366119384765625,-2.6358118057250977,77.0218734741211,-60.32294845581055,153.2299346923828,-7.442390441894531,4.92156982421875,0.908167839050293,-16.293325424194336,54.29467010498047,6.577596664428711,-0.1550619900226593,0.830697774887085,-6.127546310424805,-168.54811096191406,-78.25421142578125,80.8294906616211,-3.511399745941162,-0.4477773308753967,-4.31877326965332
1516.4366445541382,155.29049682617188,-69.47171783447266,-66.138916015625,2.0966310501098637,0.1331766247749328,3.8334474563598633,-94.6626205444336,-24.884984970092773,-179.16566467285156,-12.281530380249023,20.284931182861328,-6.102679252624512,96.5541763305664,-63.87478256225586,146.1833953857422,1.112914800643921,-0.6803083419799805,1.6209564208984375,-9.60226345062256,41.80435943603516,1.4945166110992432,5.754064559936523,-11.129873275756836,1.0291080474853516,-168.6769256591797,-74.93084716796875,84.44368743896484,0.270594835281372,-0.4531645774841308,-1.947521686553955
1516.4966371059418,160.45033264160156,-71.1930160522461,-70.55526733398438,0.2287974655628204,-0.5727947950363159,0.2660760879516601,-96.87407684326172,-19.847509384155277,-166.64796447753906,-8.354185104370117,8.927711486816406,-11.449163436889648,108.50418090820312,-67.9510498046875,139.7852325439453,4.254619598388672,-2.685532569885254,0.6522493362426758,9.877449989318848,32.08872985839844,-1.3004884719848633,7.346683502197266,-13.376060485839844,3.089072227478028,-173.38607788085938,-72.24495697021484,90.12942504882812,1.638197422027588,1.4257972240447998,2.134397506713867
1516.5046553611755,166.71360778808594,-72.47590637207031,-75.65641021728516,-0.0321561396121978,-0.6375420093536377,0.1663837432861328,-102.00469207763672,-16.108867645263672,-154.32533264160156,-1.837339162826538,0.7193278074264526,-12.365434646606444,115.45079803466795,-72.78804779052734,134.2343292236328,0.0703421533107757,-0.4178413152694702,3.3126134872436523,31.26268768310547,24.706308364868164,-1.3432466983795166,9.802251815795898,28.723434448242188,14.632524490356444,-177.47747802734375,-71.26847839355469,94.8299560546875,-6.405682563781738,2.8520679473876958,-0.2375268936157226
1516.5269486904144,172.79957580566406,-73.50125885009766,-81.22003936767578,-0.4149506688117981,-0.5481239557266235,0.3271589279174804,-108.13903045654295,-13.96660614013672,-144.0454559326172,1.764248609542847,-2.3549680709838867,-11.361150741577148,122.14715576171876,-78.63491821289062,128.59771728515625,0.2338465750217437,0.5618631839752197,5.833940505981445,34.372291564941406,18.23577880859375,-5.364093780517578,4.047576904296875,-8.840755462646484,10.677961349487305,179.92117309570312,-70.8960952758789,98.2068328857422,-3.687501907348633,1.8643484115600584,-0.147348403930664
1516.557113647461,177.99708557128906,-74.06442260742188,-86.29592895507812,0.1408766210079193,-0.776132345199585,-0.1326828002929687,-112.76522827148438,-14.207454681396484,-137.097900390625,-0.1001150757074356,-1.55647611618042,-8.147073745727539,140.9678955078125,-85.3225326538086,108.5689697265625,0.0219053626060485,-0.8598573207855225,2.3864850997924805,51.38420867919922,12.320740699768066,-7.3699049949646,-1.5005700588226318,-4.602944374084473,-3.1495423316955566,176.62576293945312,-70.60438537597656,101.76494598388672,0.9618023633956908,0.991933822631836,-2.534580707550049
1516.5861959457395,-178.63221740722656,-73.87139129638672,-90.06527709960938,0.0362446382641792,-1.7673358917236328,-0.8380603790283203,-116.40402221679688,-16.93914222717285,-133.68983459472656,1.6997642517089844,-11.200286865234377,-9.846485137939451,-102.74838256835938,-85.8652572631836,-10.289081573486328,-0.9825994968414308,-0.2591738104820251,-0.9065732955932616,64.21218872070312,4.974054336547852,-7.799202919006348,4.341917037963867,7.865763664245605,7.492589950561523,170.1617431640625,-70.3131103515625,107.2098159790039,0.9091957807540894,1.0929174423217771,-4.792300224304199
1516.617122173309,-177.86463928222656,-72.33879852294922,-91.53630065917967,0.7452999353408813,-3.0584464073181152,-1.378727912902832,-114.47811126708984,-22.36637306213379,-135.68771362304688,2.628819465637207,-17.82447052001953,-7.848392486572266,-78.8956069946289,-78.51542663574219,-36.37986755371094,0.2149685025215149,0.6529929637908936,-3.880947589874268,62.15022277832031,-4.586659908294678,-6.974728107452393,1.860511064529419,0.006610395386815,-5.883381843566895,161.38429260253906,-69.42285919189453,113.54373168945312,0.2329404354095459,-0.1791687607765197,-5.821074485778809
1516.6776382923126,-179.89149475097656,-69.22013854980469,-89.20824432373047,-0.26774662733078,-2.8811964988708496,-1.2018251419067385,-108.74542236328124,-30.094970703125,-142.43446350097656,-28.939727783203125,1.7870762348175049,6.961118698120117,-73.86019134521484,-70.55602264404297,-43.91520690917969,0.1019876599311828,1.5838582515716553,-6.21323299407959,57.71427917480469,-17.31553077697754,-4.7299675941467285,5.4591474533081055,-4.137551307678223,-8.414718627929688,152.58224487304688,-68.38252258300781,119.1072006225586,-0.7001181840896606,0.7633954286575317,-4.291133880615234
1516.706962108612,177.44093322753906,-65.03961181640625,-84.1772232055664,0.3566852211952209,1.003542423248291,-2.804450035095215,-111.14740753173828,-32.28795623779297,-144.8078155517578,-9.935102462768556,-9.287389755249023,11.774316787719728,-72.04324340820312,-62.82442092895508,-47.82868576049805,-0.174755573272705,1.5336976051330566,-6.888392448425293,52.55405044555664,-32.02275848388672,0.7154293656349182,12.994377136230469,-0.890068769454956,4.950634002685547,144.6953125,-68.57096099853516,125.87313079833984,-5.360295295715332,0.0512300580739975,-2.086003303527832
1516.7367844581604,175.46527099609375,-60.50864791870117,-79.74951934814453,1.5910117626190186,-1.4080798625946045,0.5141124725341797,-114.6722640991211,-30.534442901611328,-142.57154846191406,-14.288471221923828,-8.710987091064453,7.625268936157227,-70.03787994384766,-55.78961944580078,-50.41408920288086,0.0700224637985229,2.9057540893554688,-4.189208030700684,35.716121673583984,-42.78718566894531,11.745648384094238,15.188129425048828,8.919017791748047,18.732635498046875,141.4944305419922,-68.19778442382812,130.43820190429688,-1.5352745056152344,-1.9561848640441892,-3.579685688018799
1516.7663023471832,174.1194305419922,-55.98442840576172,-76.84561157226562,2.940051555633545,2.73282527923584,-0.9235219955444336,-116.95464324951172,-26.111703872680664,-139.05209350585938,-15.606019973754885,-14.425210952758787,1.4159164428710938,-66.49053192138672,-49.52986145019531,-52.66261672973633,-0.3559762239456177,4.131314277648926,0.9833784103393556,16.046125411987305,-44.14922332763672,18.4796142578125,13.427738189697266,5.931257247924805,-0.9009742736816406,142.47409057617188,-66.90009307861328,129.97726440429688,1.0035457611083984,1.2186594009399414,9.679924011230469
1516.7965698242188,173.8741912841797,-52.653133392333984,-74.9278335571289,-0.444695770740509,0.1984826326370239,3.051420211791992,-116.25442504882812,-21.95709228515625,-136.37594604492188,-19.08240127563477,-12.871458053588867,-3.1535372734069824,-64.8097915649414,-43.12189483642578,-54.76856231689453,0.6188855171203613,6.857615470886231,8.170530319213867,10.732282638549805,-42.52611923217773,15.325112342834473,19.19693756103516,-14.700719833374023,4.17637825012207,142.61007690429688,-66.52949523925781,131.8800048828125,-5.593688011169434,-0.4791697263717651,10.845447540283203
1516.8265719413755,173.34088134765625,-50.70940017700195,-73.28429412841797,-1.1745421886444092,0.659583568572998,1.97860050201416,-115.55506896972656,-18.25323486328125,-133.1417694091797,-19.077777862548828,-10.815855026245115,-7.574287414550781,-64.8256607055664,-35.65598678588867,-56.06734085083008,-0.4488463401794433,14.236198425292969,15.692981719970703,29.44661903381348,-38.39433288574219,13.052899360656738,24.96920394897461,-6.714922904968262,-3.37692928314209,144.6136932373047,-66.59280395507812,132.50621032714844,-3.780863285064697,0.1346495747566223,5.588882446289063
