Timestamp,D4:22:CD:00:05:5D_EulerX,D4:22:CD:00:05:5D_EulerY,D4:22:CD:00:05:5D_EulerZ,D4:22:CD:00:05:5D_FreeAccX,D4:22:CD:00:05:5D_FreeAccY,D4:22:CD:00:05:5D_FreeAccZ,D4:22:CD:00:05:5E_EulerX,D4:22:CD:00:05:5E_EulerY,D4:22:CD:00:05:5E_EulerZ,D4:22:CD:00:05:5E_FreeAccX,D4:22:CD:00:05:5E_FreeAccY,D4:22:CD:00:05:5E_FreeAccZ,D4:22:CD:00:05:6B_EulerX,D4:22:CD:00:05:6B_EulerY,D4:22:CD:00:05:6B_EulerZ,D4:22:CD:00:05:6B_FreeAccX,D4:22:CD:00:05:6B_FreeAccY,D4:22:CD:00:05:6B_FreeAccZ,D4:22:CD:00:05:6E_EulerX,D4:22:CD:00:05:6E_EulerY,D4:22:CD:00:05:6E_EulerZ,D4:22:CD:00:05:6E_FreeAccX,D4:22:CD:00:05:6E_FreeAccY,D4:22:CD:00:05:6E_FreeAccZ,D4:22:CD:00:49:AA_EulerX,D4:22:CD:00:49:AA_EulerY,D4:22:CD:00:49:AA_EulerZ,D4:22:CD:00:49:AA_FreeAccX,D4:22:CD:00:49:AA_FreeAccY,D4:22:CD:00:49:AA_FreeAccZ
1564.8209037780762,-173.98870849609375,-83.39128875732422,-129.35336303710938,0.6530988216400146,10.095069885253906,-11.339349746704102,-97.79092407226562,-56.27888870239258,-146.97885131835938,-29.278484344482425,-5.485889434814453,2.7128400802612305,39.77272415161133,38.357303619384766,-47.70336151123047,2.6468405723571777,9.248006820678713,-2.159494400024414,-68.2165756225586,-70.1177978515625,-123.03962707519533,3.1365699768066406,-2.7042126655578613,-5.189013481140137,162.77928161621094,-70.88175964355469,122.91739654541016,-1.9594018459320068,-0.8394790887832642,-9.489322662353516
1564.8299188613892,178.4652862548828,-80.55352020263672,-124.33705139160156,0.5034173727035522,9.185306549072266,1.044477462768555,-96.36775970458984,-58.91047668457031,-157.70599365234375,-15.941669464111328,9.455877304077148,-4.000432968139648,29.240589141845703,36.76680374145508,-62.74324417114258,0.3313250541687011,-4.778154373168945,-5.3830976486206055,-46.786163330078125,-67.13765716552734,-134.11878967285156,-1.480804204940796,-6.431358337402344,-4.516998291015625,162.8072967529297,-72.1191177368164,124.772705078125,-3.3259096145629883,-0.4159640669822693,-5.1462907791137695
1564.8861577510834,-172.7766571044922,-46.27773666381836,-101.25260925292967,-3.0520544052124023,-0.3010194301605224,1.1407413482666016,162.593505859375,-67.80279541015625,-17.81607437133789,1.7456459999084473,-0.2278289794921875,12.430315017700195,-36.49264526367188,10.937530517578123,-44.67230987548828,8.33095932006836,-15.373537063598633,20.691307067871094,107.82521057128906,-71.76842498779297,41.36902618408203,-4.751191139221191,-3.697732925415039,15.350683212280272,-171.37997436523438,-75.26953125,110.87986755371094,1.5677087306976318,3.842894554138184,7.267822265625
1564.916585445404,-175.16448974609375,-46.82749557495117,-98.12054443359376,-2.0319747924804688,-0.4101131558418274,1.1489753723144531,168.2025146484375,-65.43272399902344,-26.583295822143555,2.6715307235717773,-1.2799880504608154,7.490423202514648,-20.51051902770996,5.749750137329102,-35.859825134277344,6.178031921386719,-15.381994247436523,13.654912948608398,108.2432098388672,-60.76508712768555,44.00736999511719,-0.2422031760215759,-2.1003990173339844,9.142284393310549,176.81112670898438,-77.67267608642578,123.30571746826172,-1.2375884056091309,-0.7655090093612671,6.117664337158203
1564.9461266994476,-176.42938232421875,-48.535926818847656,-96.15497589111328,-1.5864722728729248,-1.0797314643859863,0.9077472686767578,173.0560302734375,-67.45094299316406,-32.68070602416992,6.412782669067383,9.017097473144531,0.6304311752319336,-4.607507228851318,2.402488946914673,-28.153228759765625,-0.0735583305358886,-15.860122680664062,6.674238204956055,105.15909576416016,-55.346412658691406,48.97980117797852,3.6277284622192383,1.0608150959014893,-1.7015981674194336,174.9669647216797,-78.35986328125,128.04530334472656,-2.566152572631836,-1.9954259395599363,4.634243011474609
1565.006618499756,-176.212890625,-51.2199592590332,-95.50157928466795,-3.121657371520996,-0.5363117456436157,1.470014572143555,-159.77745056152344,-70.57196044921875,-58.10198211669922,5.362527847290039,9.145944595336914,-3.659371852874756,7.925643920898437,2.548384666442871,-23.43551254272461,1.8938069343566892,-9.476093292236328,2.896215438842773,103.34416961669922,-61.95478057861328,52.35931396484375,3.675464630126953,3.028959274291992,-1.797816276550293,-179.9625701904297,-78.9524917602539,128.02210998535156,0.0602193027734756,-0.5453590154647827,6.554338455200195
1565.0376546382904,-175.75387573242188,-54.99794387817383,-95.57061767578124,-3.849769115447998,-0.6927599906921387,1.8749685287475584,-125.72765350341795,-69.2994613647461,-91.24898529052734,7.134454727172852,6.681331634521484,-5.414892196655273,18.37553024291992,4.574841976165772,-22.35352325439453,0.4747157096862793,-6.935452461242676,0.6197977066040039,107.07103729248048,-74.97335815429688,54.98296356201172,0.2682693004608154,0.5416134595870972,3.866525650024414,-173.87631225585938,-79.64900207519531,127.36815643310548,2.005213737487793,0.2138842344284057,2.7655153274536133
1565.0661399364471,-175.461181640625,-59.98897933959961,-94.64059448242188,-5.715946197509766,-2.9882254600524902,3.30910873413086,-95.40017700195312,-63.96242141723633,-120.47299194335938,4.828523635864258,2.891355514526367,-5.42903995513916,27.902454376220703,7.1218767166137695,-24.259531021118164,-2.1049461364746094,-4.239583015441895,-2.226236343383789,-174.21563720703125,-88.21963500976562,-12.83769702911377,-6.865665435791016,-5.419492721557617,1.317133903503418,-168.3267822265625,-80.61433410644531,126.34558868408205,1.1399285793304443,-0.1548835635185241,-4.823490142822266
1565.096160173416,-176.0628204345703,-65.11310577392578,-92.04499053955078,-0.1605372726917266,-7.815036773681641,3.388148307800293,-74.8904037475586,-56.04036331176758,-141.64468383789062,-1.1749703884124756,1.5263776779174805,-11.062721252441406,34.96793746948242,10.399018287658691,-28.083179473876957,-4.227370262145996,-0.9561995267868042,-6.524760246276856,-87.43612670898438,-76.76245880126953,-86.56255340576172,-3.153219223022461,-10.688129425048828,-0.0656919479370117,-165.0876922607422,-81.33431243896484,126.84738159179688,1.26257061958313,0.6521801948547363,-8.277599334716797
1565.1257400512695,-177.62521362304688,-68.80888366699219,-89.58335876464844,5.942263603210449,-6.231536865234375,-1.561619758605957,-65.86051177978516,-48.53256607055664,-156.1263427734375,-3.2171168327331543,2.21022891998291,-12.786849975585938,38.36701202392578,15.2136812210083,-33.92863082885742,-2.4556384086608887,6.085757255554199,-7.615560531616211,-74.99435424804688,-67.92850494384766,-83.2533950805664,-0.1598602831363678,-13.68585968017578,-5.065001487731934,-171.7518310546875,-81.73946380615234,135.49700927734375,2.702620506286621,3.261319160461426,-5.885200500488281
1565.1563789844513,-179.46102905273438,-71.09185791015625,-87.12444305419922,3.569122791290283,1.2793455123901367,-5.715527534484863,-63.39823913574219,-41.83698654174805,-168.0325469970703,-7.712285995483398,3.6058387756347656,-12.795597076416016,35.792232513427734,20.82648468017578,-41.532039642333984,1.1151494979858398,4.847725868225098,-8.086238861083984,-63.50435256958008,-67.07530212402344,-82.32698822021484,0.67635178565979,-3.296868324279785,-7.450774192810059,174.4903106689453,-82.82247161865234,149.4449462890625,1.261962890625,1.5809259414672852,-5.709586143493652
1565.1863813400269,178.0479278564453,-72.21639251708984,-82.86985778808594,2.442836284637451,2.2389254570007324,-6.064453125,-66.6408462524414,-36.83549118041992,-177.3583526611328,-14.59445571899414,7.09410285949707,-13.080163955688477,27.07475471496582,25.42140769958496,-50.8782844543457,2.317566394805908,3.604492664337158,-9.611091613769531,-58.7830810546875,-69.07109832763672,-81.4509506225586,1.943037986755371,-6.182306289672852,-9.381607055664062,156.91986083984375,-84.11763763427734,166.55014038085938,-0.1215252131223678,0.8153961896896362,-7.657887458801269
1565.2161281108856,176.22755432128906,-71.93294525146484,-76.62062072753906,2.1891956329345703,3.962103366851807,-5.797934532165527,-72.55004119873047,-34.26662063598633,177.4482879638672,-16.097854614257812,13.31622314453125,-14.386308670043944,16.10578727722168,28.659852981567383,-64.16375732421875,3.0246825218200684,0.8812978267669678,-10.044418334960938,-53.15520858764648,-71.91619873046875,-84.5284652709961,3.177579879760742,-5.302438735961914,-8.055782318115234,137.61801147460938,-84.61158752441406,-175.0918731689453,-0.2696818709373474,1.3425061702728271,-6.755415916442871
1565.2461683750153,176.14515686035156,-69.95001220703125,-71.05842590332031,2.5131397247314453,3.4058117866516118,-4.517083168029785,-76.64854431152344,-35.614234924316406,177.32057189941406,-13.047821044921877,26.907066345214844,-21.02532196044922,5.860464096069336,28.66500663757324,-83.6567153930664,-0.791327953338623,-9.360315322875977,-14.574264526367188,-38.8830451965332,-75.02747344970703,-96.21026611328124,3.43502140045166,-3.691180229187012,-7.463712692260742,111.82808685302734,-84.7318115234375,-151.723388671875,0.9249768257141112,0.88948655128479,-2.926069736480713
1565.3061599731443,174.75848388671875,-67.11768341064453,-67.21495056152344,2.268354892730713,0.526585578918457,-1.8168015480041504,-82.09368133544922,-39.80333709716797,-174.6971435546875,-15.809772491455078,-12.802934646606444,-10.452178955078123,-3.1363916397094727,23.53915405273437,-103.19775390625,-14.048683166503906,-26.00690078735352,-23.003734588623047,-18.551410675048828,-76.28038787841797,-114.24291229248048,2.268836498260498,-3.6248745918273926,-4.20863151550293,82.7824935913086,-84.8270263671875,-126.49020385742188,1.049708604812622,-1.7758588790893557,-0.7313680648803711
1565.3366959095,171.8851776123047,-64.69209289550781,-64.21906280517578,-3.6460680961608887,-1.7791800498962402,1.2411422729492188,-83.93779754638672,-44.175254821777344,-167.58889770507812,-18.91343307495117,-18.53020477294922,-5.261272430419922,-12.73983097076416,22.30956649780273,-106.3236846923828,25.8089599609375,8.02365493774414,-20.393115997314453,-3.033524513244629,-75.38755798339844,-126.72737121582033,0.720417857170105,-4.1376953125,-1.1207218170166016,84.26283264160156,-85.17176055908203,-131.93309020996094,-2.1194334030151367,-7.882537841796875,-0.5524539947509766
1565.3666837215424,167.94015502929688,-63.00279235839844,-60.384159088134766,0.6035739183425903,-3.2763500213623047,5.527867317199707,-99.58544921875,-45.67507553100586,-157.58583068847656,-7.561084747314453,4.272736549377441,4.6820173263549805,-20.763612747192383,24.921049118041992,-94.47941589355467,-18.549057006835938,0.728154182434082,7.359241485595703,6.452090740203857,-74.44367980957031,-129.73849487304688,0.2634966969490051,-5.048213005065918,2.460168838500977,99.29302978515624,-85.12444305419922,-151.15863037109375,-1.1225700378417969,-8.381206512451172,8.394569396972656
1565.3967700004578,163.74224853515625,-62.00529861450195,-55.69245147705078,-0.4697153568267822,-2.795315742492676,6.31080436706543,-103.55255126953124,-47.14667892456055,-154.94256591796875,-0.6153881549835205,1.6389291286468506,4.826475143432617,-15.934600830078123,24.144474029541016,-77.96826171875,-0.2986250519752502,-0.6100937128067017,-12.239351272583008,9.195585250854492,-74.1722183227539,-121.4980697631836,5.293596267700195,-8.046358108520508,9.902860641479492,115.3048095703125,-85.34444427490234,-169.2755889892578,2.3273191452026367,-5.098411560058594,8.00981330871582
1565.426385641098,157.53485107421875,-61.50485610961914,-50.78582000732422,1.1315176486968994,-2.0442800521850586,7.480880737304687,-100.92176055908205,-50.89477157592773,-156.123046875,-6.626524925231934,0.4925943613052368,0.2229995727539062,-19.34136199951172,15.656415939331056,-60.68504333496094,-6.769604682922363,-4.423304557800293,-7.145807266235352,6.511142730712891,-74.86235809326172,-108.95655059814452,12.546716690063477,-5.832884788513184,9.941411972045898,137.96572875976562,-85.77668762207031,166.39744567871094,6.685061454772949,2.48997163772583,3.713740348815918
1565.45645737648,148.02659606933594,-62.6943359375,-48.15996551513672,7.710600852966309,-5.118281364440918,7.185098648071289,-96.89421081542967,-54.99521255493164,-158.20936584472656,-7.575887680053711,0.1003311574459075,-2.7882957458496094,-24.28511047363281,2.3322865962982178,-50.80844497680664,-6.050471305847168,5.780036926269531,-2.515252590179444,-2.0882530212402344,-76.89801025390625,-102.18190002441406,9.81829071044922,-3.804718017578125,1.1993837356567385,159.49574279785156,-84.36070251464844,140.72998046875,13.886329650878906,5.115573883056641,-2.745058059692383
1565.4871604442596,135.2745819091797,-63.51670455932617,-51.12004089355469,13.438976287841797,10.550710678100586,1.1018123626708984,-90.59275817871094,-57.96720123291016,-162.37979125976562,-8.309526443481445,0.612697958946228,-3.515510082244873,-28.680206298828125,-13.37541389465332,-44.00063705444336,-7.91581916809082,6.835906028747559,-6.717914581298828,-18.011423110961914,-81.47456359863281,-104.209716796875,3.433446884155273,-9.268636703491213,-0.1088266372680664,165.6118621826172,-81.73356628417969,128.78944396972656,3.923222541809082,2.5462608337402344,-0.994633674621582
1565.5166673660278,136.20257568359375,-59.8905143737793,-64.84993743896484,15.103015899658203,15.415838241577148,10.282434463500977,-86.2640609741211,-59.634708404541016,-166.14837646484375,-7.775870323181152,-0.6321079730987549,-4.877504348754883,-38.118011474609375,-31.04833030700684,-33.20470428466797,0.3645302653312683,-1.4882783889770508,-11.252082824707031,-33.87517547607422,-86.09294891357422,-110.10204315185548,-8.114681243896484,7.351742744445801,-2.7036795616149902,171.64414978027344,-79.83120727539062,119.96321868896484,-3.3304271697998047,-2.4102463722229004,1.3085079193115234
1565.546667098999,143.32180786132812,-51.90396881103516,-79.95418548583984,13.796171188354492,4.975305557250977,3.347137451171875,-83.93153381347656,-60.5533561706543,-168.62606811523438,-5.433631896972656,-0.219547152519226,-2.625530242919922,-60.63505935668945,-46.402286529541016,-11.843873023986816,9.80238151550293,-0.6719741821289062,-1.240192413330078,-47.26506042480469,-87.48970031738281,-105.45741271972656,-3.473916530609131,8.061607360839844,-2.3621420860290527,177.72679138183594,-78.25618743896484,113.35346221923828,1.066772699356079,0.4828662276268005,2.2232580184936523
1565.6065633296969,151.0352325439453,-42.1888427734375,-91.4717254638672,5.001753807067871,-0.3334257006645202,-3.4490952491760254,-84.08435821533203,-61.29121017456055,-168.5266876220703,-4.994011878967285,-1.9186384677886963,-3.2945332527160645,-89.41480255126953,-51.86295700073242,16.244070053100586,-4.3723249435424805,9.199905395507812,8.762487411499023,-30.35649299621582,-85.91932678222656,-115.00578308105467,-3.416943073272705,-3.1451945304870605,-3.710886478424072,179.4625244140625,-78.61787414550781,110.11858367919922,4.759832382202148,2.5539703369140625,-2.854824542999268
1565.6363351345062,157.0968017578125,-32.88216018676758,-100.36056518554688,-1.1860456466674805,-0.3548185229301452,-9.589973449707031,-87.8962631225586,-61.33301544189453,-164.65882873535156,-6.297048568725586,-1.5974066257476809,-4.258787155151367,-84.58854675292969,-51.01386642456055,31.10570907592773,-14.92827033996582,5.401182174682617,12.91273307800293,-27.056730270385746,-83.79846954345703,-114.21312713623048,-2.010038375854492,-9.23126983642578,-6.0088300704956055,179.17117309570312,-79.41239929199219,108.67686462402344,0.9888617992401124,0.8362501859664917,-6.642088890075684
1565.6671500205994,161.03323364257812,-25.168270111083984,-107.44944763183594,-3.466334819793701,0.1926047801971435,-12.27442741394043,-93.65482330322266,-60.48363494873047,-158.71395874023438,-7.737973213195801,-2.3718466758728027,-5.683510780334473,-53.906829833984375,-49.16440963745117,28.530092239379883,10.808551788330078,10.620519638061523,-16.06442642211914,-32.42341232299805,-83.29317474365234,-111.53346252441406,-1.905785322189331,-4.542116165161133,-4.876412391662598,-178.6992645263672,-79.58845520019531,105.2108154296875,-1.5683002471923828,0.2010396122932434,-6.303118705749512
1565.696530342102,163.869384765625,-19.84173011779785,-113.41131591796876,-2.771445274353028,-0.1590758860111236,-11.346963882446287,-101.77574157714844,-58.62628173828125,-151.4779510498047,-6.409767150878906,0.4464226365089416,-3.003045558929444,-39.85447692871094,-48.5407829284668,20.559057235717773,2.1543002128601074,13.832612991333008,-22.11203384399414,-35.80167770385742,-84.05647277832031,-113.02937316894533,-0.9750899076461792,-0.0599522069096565,-4.722320556640625,-173.35455322265625,-79.17362213134766,99.48229217529295,0.4022012948989868,1.427479267120361,-4.513794898986816
1565.7266795635223,165.70082092285156,-17.061912536621094,-119.3254852294922,-5.29702091217041,-2.7320590019226074,-8.105785369873047,-110.30094146728516,-55.45795822143555,-143.97915649414062,-6.586177825927734,-1.0371825695037842,-2.784493923187256,-47.632572174072266,-49.24209976196289,14.525041580200195,-7.099955558776856,7.431235313415527,-6.895792007446289,-21.04669761657715,-85.54231262207031,-129.27435302734375,1.0478777885437012,-0.3587158322334289,-3.4360947608947754,-165.72975158691406,-78.63299560546875,91.38722229003906,3.753685474395752,-0.345982551574707,-3.513700008392334
1565.7567563056946,166.4307098388672,-17.09375762939453,-124.9198989868164,-5.616150856018066,-8.021125793457031,-9.081941604614258,-117.3090362548828,-51.38105392456055,-137.87399291992188,-7.487954139709473,0.2470522224903106,-2.628246307373047,-63.475215911865234,-53.053199768066406,11.985979080200195,-2.316733837127685,-5.896485328674316,0.0078773498535156,21.666318893432617,-85.4913330078125,-170.4553985595703,1.6379709243774414,-2.9643759727478027,-0.4306011199951172,-156.8883056640625,-78.91150665283203,81.50946044921875,3.901371955871582,0.4376260638236999,0.1498794555664062
1565.7861030101776,168.70184326171875,-19.93009757995605,-129.11253356933594,-10.465181350708008,-10.540021896362305,-6.819681167602539,-121.78327178955078,-47.8079833984375,-134.169189453125,-6.21868896484375,0.4244564771652221,-0.0774621963500976,-76.4549789428711,-63.4536247253418,16.179773330688477,-4.403332710266113,-2.11242151260376,5.659747123718262,52.66619491577149,-83.0546875,161.14199829101562,-1.5008587837219238,-5.2015485763549805,2.2816638946533203,-152.4755401611328,-79.71781921386719,74.64714813232422,3.349123001098633,-0.0730232447385788,1.295061111450195
1565.8166408538818,171.8614501953125,-22.19386482238769,-131.49623107910156,-9.152664184570312,-2.7534780502319336,35.2176513671875,-124.36141967773438,-46.037933349609375,-131.84974670410156,-6.253269195556641,-0.5116055011749268,-0.0400705337524414,-106.30648803710938,-77.87657165527344,49.37491226196289,-2.58153772354126,10.641302108764648,32.55683135986328,71.30810546875,-80.06291198730469,145.59173583984375,-0.942360520362854,-5.177001953125,4.00090217590332,-150.8247833251953,-79.64613342285156,70.24981689453125,-2.1378297805786133,-0.9426589012145996,1.967315673828125
1565.8466613292694,170.79595947265625,-20.621824264526367,-130.1726837158203,-18.223228454589844,-15.814981460571287,2.1177120208740234,-126.04097747802734,-45.97628784179688,-129.8404083251953,-6.009499549865723,0.1839281320571899,-0.3759641647338867,-169.20880126953125,-84.63911437988281,126.27074432373048,-11.38746452331543,8.353839874267578,27.62850570678711,85.52787017822266,-75.9199447631836,134.33238220214844,4.766561508178711,-4.27324104309082,7.958600997924805,-151.1343536376953,-79.02571105957031,69.87276458740234,-1.8414092063903809,1.6153016090393066,8.812049865722656
1565.906656742096,168.93661499023438,-17.3957576751709,-127.9471206665039,-11.30161476135254,-13.470964431762695,9.923332214355469,-126.81602478027344,-46.96418762207031,-128.65243530273438,-6.917616844177246,0.1497096419334411,-0.9316511154174804,-102.36717987060548,-86.00679016113281,69.8609848022461,19.563941955566406,18.86135482788086,4.908919334411621,96.29166412353516,-69.04036712646484,126.98542785644533,5.929767608642578,-3.9795641899108887,11.82469367980957,-150.42955017089844,-79.3998031616211,68.63311767578125,0.2462750673294067,1.0557856559753418,6.268255233764648
1565.9362428188324,169.5825653076172,-11.79049301147461,-127.74018096923828,-13.175180435180664,-11.977781295776367,7.884384155273437,-126.89229583740234,-48.63579177856445,-128.79592895507812,-7.680661201477051,0.5227228403091431,-0.9139671325683594,-76.65645599365234,-72.01443481445312,33.09686279296875,12.964624404907228,8.724655151367188,15.723346710205078,99.6230239868164,-58.25096130371094,123.73700714111328,16.993377685546875,-6.906963348388672,24.887920379638672,-150.76876831054688,-80.36292266845703,69.03157043457031,2.843841075897217,3.2139811515808105,3.947774887084961
1565.9663081169128,166.7709503173828,-6.1655378341674805,-128.28213500976562,-10.929304122924805,-5.255035400390625,5.84342098236084,-126.40095520019533,-51.1124267578125,-130.53213500976562,-8.058963775634766,0.1580198407173156,0.4446334838867187,-76.9789047241211,-57.08637237548828,19.975021362304688,0.0760495662689209,4.797808647155762,16.644996643066406,95.33531951904295,-44.29790115356445,123.36773681640624,10.732259750366213,-4.520505905151367,22.43833923339844,-154.15672302246094,-80.64111328125,72.80491638183594,2.2503485679626465,4.171043395996094,6.672298431396484
1565.996473312378,164.040283203125,-2.015297174453736,-129.14247131347656,-5.780549049377441,-1.1828856468200684,-1.9996867179870603,-124.06873321533205,-54.29390335083008,-134.30548095703125,-8.638570785522461,-2.271566867828369,3.798619270324707,-67.86764526367188,-47.18999099731445,8.927497863769531,6.537386894226074,0.7426595687866211,1.1498565673828125,89.68199157714844,-28.16469955444336,123.74195098876952,7.7753095626831055,2.1823625564575195,15.40224266052246,-156.84718322753906,-80.89828491210938,75.37728881835938,3.2748918533325195,1.7642030715942385,5.684507369995117
1566.0262215137482,162.6387939453125,-0.9405301809310912,-130.31689453125,-3.519470691680908,2.883057117462158,-7.125699996948242,-120.30947875976562,-56.85219192504883,-139.04537963867188,-7.585455894470215,-6.40234375,4.611677169799805,-63.74008941650391,-41.616607666015625,1.6858078241348269,2.2829723358154297,-1.0003132820129397,-9.418252944946287,80.0938720703125,-11.703414916992188,124.6004638671875,-0.8767894506454468,5.693909645080566,12.86839485168457,-160.01373291015625,-81.14381408691406,78.61994171142578,2.9544901847839355,0.5868879556655884,2.681246757507324
1566.0567972660065,161.53570556640625,-3.4360768795013428,-131.15243530273438,-3.150676250457764,4.735030174255371,-10.79327392578125,-116.47867584228516,-58.03605651855469,-143.47622680664062,-4.371663093566895,-5.0520429611206055,-1.6938858032226562,-66.435302734375,-41.08625030517578,-3.235872268676758,-1.1687660217285156,0.8039768934249878,-8.974311828613281,61.60463333129883,3.974155426025391,125.55166625976562,-6.016742706298828,7.702935218811035,5.41930103302002,-162.83102416992188,-81.462890625,82.15927124023438,2.16896915435791,0.3322934508323669,-0.5020895004272461
1566.0862295627594,159.42697143554688,-9.5282564163208,-130.938232421875,-5.153504371643066,3.559656143188477,-12.58761215209961,-114.87952423095705,-57.224388122558594,-148.17491149902344,-2.345908164978028,-1.4439187049865725,-8.297199249267578,-70.39900970458984,-45.121055603027344,-7.733165740966797,-2.296770572662353,1.9311728477478027,-6.272287368774414,42.31962585449219,18.30710220336914,126.5639419555664,-3.723652839660645,3.5091562271118164,-7.775163650512695,-165.52764892578125,-80.81375885009766,86.09342193603516,2.218780994415283,-0.1142476350069046,-3.579941749572754
1566.1173343658447,155.97486877441406,-18.654680252075195,-129.16677856445312,-6.42060661315918,0.3285425901412964,-12.25670051574707,-118.4433364868164,-55.177978515625,-152.43133544921875,-3.317653179168701,5.019742012023926,-8.919673919677734,-73.81100463867188,-52.7651481628418,-11.985517501831056,-0.8398820161819458,2.484749317169189,-5.864570617675781,33.09514617919922,29.39824104309082,126.68463134765624,1.4282381534576416,-1.0996301174163818,-7.759594917297363,-166.3712158203125,-79.901123046875,88.9130859375,1.5114455223083496,-0.243643432855606,-6.128177642822266
1566.1463959217072,152.16139221191406,-29.95984649658203,-125.17876434326172,-5.395878791809082,-2.72415542602539,-9.741582870483398,-125.83139038085938,-52.68209838867188,-154.46102905273438,-6.976542472839356,9.194522857666016,-8.724161148071289,-75.60997772216797,-62.8377685546875,-16.71271514892578,-0.7240133285522461,2.984025478363037,-4.523658752441406,36.22428131103516,37.9981575012207,125.990478515625,-2.0428929328918457,-2.4971494674682617,-5.542216300964356,-167.5304412841797,-79.66324615478516,92.05097198486328,1.2544329166412354,1.0040605068206787,-7.217585563659668
1566.206568479538,147.29776000976562,-42.4079704284668,-118.4432373046875,-2.6101999282836914,-4.183864593505859,-6.956272125244141,-130.84413146972656,-50.75218200683594,-154.66566467285156,-6.776418685913086,5.961057662963867,-8.826025009155273,-71.80428314208984,-73.82672882080078,-25.63386344909668,-1.0748720169067385,3.1198043823242188,-3.80571174621582,45.70317840576172,45.55379104614258,128.16648864746094,-3.772916316986084,-1.9041264057159424,-7.958857536315918,-169.45657348632812,-80.41511535644531,94.2007827758789,1.7229390144348145,1.4866995811462402,-7.948923110961914
1566.236086845398,139.9056854248047,-55.62275314331055,-108.2350616455078,0.9309176206588744,-2.8483242988586426,-0.4409427642822265,-129.26434326171875,-49.78278350830078,-154.2379608154297,-4.491808891296387,0.7322537899017334,-6.254481315612793,-51.21903991699219,-82.964111328125,-51.97150421142578,-1.5385313034057615,2.179532527923584,-4.75908088684082,53.20553588867188,50.8536262512207,137.8540496826172,-4.351044654846191,-1.00449800491333,-10.241558074951172,-172.79258728027344,-81.50608825683594,96.16938018798828,1.132087230682373,0.090533897280693,-7.585169792175293
1566.2660913467407,124.59661102294922,-68.17851257324219,-87.69739532470703,6.110187530517578,-12.427377700805664,6.358591079711914,-128.71084594726562,-47.70547103881836,-153.15000915527344,-3.939708232879639,-5.885122299194336,0.4510927200317383,22.10289192199707,-85.30235290527344,-133.00819396972656,-3.106276035308838,4.005387306213379,-6.029097557067871,57.6290168762207,51.63751220703125,156.2379608154297,-8.566644668579102,-4.983592987060547,-14.2183837890625,-174.43502807617188,-82.0648193359375,96.65130615234376,0.7882341146469116,-1.2725942134857178,-5.057621955871582
1566.2961888313291,100.31370544433594,-75.72779083251953,-48.12975692749024,23.50570297241211,0.6431258916854858,12.085552215576172,-132.46766662597656,-44.25425720214844,-152.4606475830078,-12.941295623779297,-2.3783397674560547,2.6350231170654297,55.07756805419922,-81.66177368164062,-171.98133850097656,-5.352483749389648,9.402421951293944,-8.026758193969727,59.93860626220703,45.6218376159668,174.8865966796875,-15.931884765625,-7.419669151306152,-25.546295166015625,-171.02200317382812,-82.41041564941406,94.1818389892578,0.3983978629112243,-2.987325668334961,-3.2578048706054688
1566.326187133789,92.32603454589844,-75.46208953857422,-24.03916931152344,7.746518135070801,28.36425399780273,-6.517467498779297,-132.3417205810547,-42.45535659790039,-154.1085662841797,-10.337509155273438,0.0720500648021698,0.1240463256835937,70.9775390625,-77.4034423828125,172.96145629882812,-3.930021286010742,9.374626159667969,-8.904003143310547,54.95664978027344,39.70825958251953,-175.43756103515625,-11.352380752563477,-14.413972854614258,-13.38051414489746,-170.69554138183594,-82.1028060913086,95.73687744140624,5.298646926879883,-2.0195536613464355,1.224895477294922
1566.3567004203796,111.79340362548828,-72.94184875488281,-40.18711853027344,9.028213500976562,8.876470565795898,4.956341743469238,-127.0453872680664,-42.50139617919922,-158.37754821777344,-14.223196029663086,-3.0994668006896973,4.377079010009766,84.3159408569336,-72.67668914794922,163.73004150390625,-2.907021999359131,5.5770769119262695,-6.703827857971191,38.66958618164063,43.29034423828125,179.5393829345703,12.951440811157228,7.377176284790039,-7.076169967651367,-172.4499969482422,-80.1535415649414,98.0857925415039,11.909368515014648,-0.6619715690612793,8.31582260131836
1566.3867027759552,127.858154296875,-70.50335693359375,-58.64405822753906,5.159902572631836,-15.59409523010254,3.6126012802124015,-119.94595336914062,-43.6479606628418,-165.22552490234375,-10.28029441833496,-4.104791641235352,-3.742691993713379,94.209228515625,-67.27790832519531,155.1564483642578,-6.154390335083008,1.7747418880462646,-0.2237100601196289,41.47714614868164,50.05146408081055,164.00546264648438,2.6291871070861816,3.710825920104981,-16.87963104248047,-170.39013671875,-79.4524917602539,98.09880828857422,0.0102793611586093,-2.771121025085449,4.829878807067871
1566.416240692139,137.5099334716797,-67.09517669677734,-65.89208221435547,2.694911479949951,-12.549610137939451,16.32324981689453,-106.5174331665039,-44.39263153076172,-168.25494384765625,-10.31894302368164,17.79186248779297,-3.5050272941589355,101.20175170898438,-61.13279724121094,144.6566162109375,-14.236566543579102,4.823223114013672,12.167551040649414,44.781829833984375,55.68780517578125,138.87538146972656,-12.268720626831056,-9.383291244506836,-16.311092376708984,-167.5557861328125,-78.26659393310547,101.30326080322266,-2.9345297813415527,-5.497672080993652,3.8014516830444336
1566.446239709854,151.76023864746094,-64.81037139892578,-70.71253204345703,-19.812618255615234,13.831052780151367,9.435121536254885,-97.83531188964844,-43.74587631225586,-161.08950805664062,-22.96633529663086,28.094871520996094,-2.763314247131348,106.2154312133789,-57.01407241821289,135.90980529785156,-8.512723922729492,13.830419540405272,7.9487152099609375,40.012020111083984,53.567039489746094,115.01585388183594,-2.0267553329467773,-7.185201644897461,-5.501430511474609,-164.68223571777344,-77.77337646484375,107.31551361083984,-6.466866493225098,-1.2623059749603271,0.6350469589233398
1566.5067200660706,155.54464721679688,-64.9758071899414,-75.0951919555664,5.059205055236816,-0.286526620388031,0.4714517593383789,-102.08787536621094,-40.79401397705078,-144.18719482421875,-24.914588928222656,8.813108444213867,-2.6287431716918945,118.28943634033205,-57.44252014160156,129.593017578125,-5.928645133972168,8.028711318969727,0.1266927719116211,39.717811584472656,45.91847610473633,98.00209045410156,0.4736565947532654,-7.774490356445312,-1.1671733856201172,-162.1558380126953,-76.43048095703125,109.47019958496094,-4.976784706115723,6.083874702453613,-5.393889427185059
1566.5363380908966,160.45062255859375,-65.76919555664062,-79.43134307861328,1.4515929222106934,-0.5855934619903564,0.9533309936523438,-111.50961303710938,-37.738895416259766,-126.15015411376952,-7.015899658203125,-4.169856071472168,-8.72713851928711,136.6100616455078,-61.89438247680664,120.58065032958984,-3.985284328460693,1.5617010593414309,3.660221099853516,38.619850158691406,37.14142990112305,82.99562072753906,-4.729872703552246,-0.0868798643350601,5.191333770751953,-166.86550903320312,-74.05927276611328,114.84066009521484,5.539215087890625,5.111395835876465,-1.1447267532348633
1566.5665929317474,165.33505249023438,-67.047119140625,-84.17261505126953,0.7182244062423706,0.2804859280586242,0.407266616821289,-115.7706527709961,-35.536895751953125,-112.01329040527344,4.227418899536133,-1.821962118148804,-11.232650756835938,152.99171447753906,-66.68074798583984,108.33091735839844,-0.7171502113342285,2.3864474296569824,1.3155441284179688,40.96989059448242,29.865886688232425,69.63610076904297,14.783514022827148,-3.370856285095215,-1.893077373504639,-174.40982055664062,-71.72028350830078,120.5109405517578,2.083176612854004,0.4763568043708801,3.6284103393554688
1566.5965993404388,169.18942260742188,-68.77699279785156,-88.26728820800781,0.7825709581375122,0.3363865613937378,0.4759912490844726,-117.10977172851562,-33.762454986572266,-102.07877349853516,6.836068153381348,0.8198728561401367,-12.657527923583984,159.62721252441406,-70.6419448852539,98.91780090332033,-0.5062304735183716,0.6046477556228638,-1.1214008331298828,54.28317642211914,23.907230377197266,61.92100524902344,11.05207633972168,-7.958687782287598,-3.5888805389404297,179.8636016845703,-70.09500885009766,124.181640625,-5.632742881774902,2.04801082611084,4.624075889587402
1566.626101732254,172.70663452148438,-70.54334259033203,-91.95893096923828,-0.0761303007602691,-0.3356704115867615,0.0763969421386718,-119.49407958984376,-32.94913482666016,-95.45137786865234,3.811121940612793,-0.0190943740308284,-11.806264877319336,160.13687133789062,-74.15371704101562,93.28235626220705,-4.056009292602539,-0.1740728616714477,-2.836791515350342,67.8366928100586,16.21870231628418,58.69520950317383,-4.875216484069824,5.202885627746582,-0.1297435760498047,175.73191833496094,-69.59819030761719,126.47132110595705,-3.78417444229126,0.264462947845459,0.4024152755737304
1566.656504392624,176.8611602783203,-72.05559539794922,-95.98243713378906,-0.3255910873413086,-0.6302152872085571,-0.1369075775146484,-124.67388916015624,-34.00440979003906,-91.6341552734375,-0.9676885604858398,-3.8162994384765625,-7.922421455383301,160.3695526123047,-77.27770233154297,90.0930633544922,-3.519777774810791,1.8434302806854248,-2.4229989051818848,72.779296875,8.532083511352539,55.22686004638672,-2.9774370193481445,3.696278095245361,2.786849021911621,172.5084991455078,-69.74357604980469,128.71226501464844,-2.383176803588867,1.3226473331451416,-2.807723045349121
1566.6858310699463,-178.57839965820312,-73.0401840209961,-100.35723114013672,0.0325723141431808,-1.2118983268737793,-0.382512092590332,-129.36785888671875,-37.38942337036133,-90.6844482421875,-1.810410499572754,-5.748139381408691,-3.594531536102295,161.47848510742188,-80.75518798828125,87.53087615966797,-2.763047218322754,1.382412672042847,-1.6382360458374023,78.75581359863281,1.633900165557861,51.36257553100586,0.4279518127441406,-0.1615435481071472,-4.035564422607422,168.2490692138672,-69.49103546142578,131.26524353027344,-1.0574257373809814,1.1614601612091064,-3.9444098472595215
1566.7161326408386,-175.1185760498047,-73.08795928955078,-103.8908920288086,0.5642204284667969,-2.186118602752685,-1.2236404418945312,-132.99607849121094,-42.4082260131836,-92.6738510131836,2.1431164741516118,-11.416614532470703,-2.457799434661865,166.77772521972656,-84.6122055053711,80.06414794921875,-2.3985767364501958,0.2220162153244018,-3.157782077789306,87.75502014160156,-6.011927604675293,47.81132125854492,0.0386356636881828,1.9807088375091555,-2.344523906707764,161.46421813964844,-69.38013458251953,135.25216674804688,0.3497263193130493,-1.300434112548828,-4.482577323913574
1566.7506201267242,-175.56777954101562,-71.60399627685547,-103.82378387451172,1.2794160842895508,-3.624845027923584,-1.544398307800293,-130.3616485595703,-46.867523193359375,-98.34123992919922,-2.5402398109436035,1.0278139114379885,8.670429229736328,-146.3282012939453,-88.1584701538086,29.452533721923828,-2.7162880897521973,0.559532642364502,-5.991687774658203,95.5032196044922,-15.02703094482422,44.02938461303711,1.6262998580932615,2.546470642089844,-1.839277267456055,153.96640014648438,-69.04090881347656,139.58392333984375,0.5586713552474976,-2.42739200592041,-6.199675559997559
1566.806081533432,-179.63064575195312,-68.16802215576172,-100.40887451171876,0.7649012804031372,-4.284907341003418,-2.9239754676818848,-135.472900390625,-45.01937484741211,-99.4659652709961,-13.21454620361328,-15.90523910522461,-2.244220733642578,-54.9954833984375,-85.66976165771484,-65.51402282714844,-3.8315892219543457,2.581509113311768,-6.958696365356445,100.6383056640625,-25.76534080505371,40.13386917114258,4.815946578979492,2.634822368621826,-0.0686979293823242,147.32672119140625,-68.88558959960938,144.33790588378906,-2.549076557159424,-2.048226833343506,-5.510761260986328
1566.8363115787506,178.25340270996094,-63.58404922485352,-96.82260131835938,0.7502527236938477,0.6281516551971436,-0.2618951797485351,-142.1800079345703,-43.29125595092773,-98.0361099243164,1.7888925075531006,-13.003463745117188,2.802048683166504,-41.51361846923828,-80.53643798828125,-80.83460998535156,-2.858433723449707,4.303254127502441,-5.995540618896484,101.53547668457033,-38.73032379150391,37.56763458251953,7.600543975830078,2.281654357910156,4.760028839111328,141.19935607910156,-69.03445434570312,151.08746337890625,-4.714202880859375,-0.4068954586982727,-2.574645519256592
1566.8665974140167,176.279541015625,-58.8811149597168,-93.9371337890625,2.068888664245605,-0.279728889465332,-1.1533126831054688,-139.53025817871094,-42.18351364135742,-96.17937469482422,-7.956476211547852,-15.735977172851562,8.895944595336914,-36.745243072509766,-74.55130004882812,-86.07032012939453,-2.0542383193969727,5.959578514099121,-5.721695899963379,94.15917205810548,-53.62493133544922,38.21063232421875,8.467918395996094,3.2433176040649414,22.871490478515625,136.4962158203125,-68.56470489501953,157.0821075439453,0.3993063569068908,2.4556593894958496,3.0687952041625977
1566.8957006931305,176.28297424316406,-54.95827865600586,-91.76256561279295,0.2046388387680053,1.7682523727416992,1.6061067581176758,-133.14129638671875,-40.79708099365234,-93.00484466552734,-12.079233169555664,-18.80072784423828,10.720138549804688,-37.442291259765625,-67.97139739990234,-87.17887115478516,0.2751564979553222,14.88083267211914,0.0309505462646484,75.16694641113281,-60.85187149047852,40.839839935302734,2.4109249114990234,6.77888298034668,17.884998321533203,137.23976135253906,-68.00857543945312,157.80718994140625,0.8440402746200562,-1.1691420078277588,9.767547607421877
1566.9257714748385,176.14413452148438,-52.263465881347656,-90.2502670288086,-0.9839760065078736,0.7772210836410522,2.003726005554199,-128.80628967285156,-36.098541259765625,-87.40472412109375,-11.53192138671875,-18.32455825805664,9.132379531860352,-38.280609130859375,-60.977874755859375,-85.85189819335938,-9.249845504760742,14.767333984375,5.7263898849487305,67.45201873779297,-56.99088287353516,34.04337310791016,32.06468963623047,3.5039401054382324,8.08740234375,138.64645385742188,-67.83085632324219,156.98231506347656,-4.392413139343262,-1.446979522705078,9.198526382446287
1566.9563376903534,176.22093200683594,-50.99763488769531,-89.2664794921875,-0.8096669912338257,0.8737590312957764,2.377347946166992,-129.7707061767578,-31.446928024291992,-81.23653411865234,-3.2060489654541016,-16.2288818359375,6.355306625366211,-41.90704345703125,-54.22493362426758,-79.99296569824219,-9.70174789428711,19.860820770263672,13.287101745605469,78.79696655273438,-50.50372695922852,33.00677490234375,12.97581672668457,3.1503782272338867,7.856193542480469,140.60171508789062,-68.05493927001953,156.63690185546875,-1.7439451217651367,-0.5722266435623169,7.946493148803711
1566.9863605499268,176.32513427734375,-50.99203872680664,-88.1793212890625,-0.2494127452373504,0.4755937457084656,1.5185203552246094,-131.96954345703125,-28.08160400390625,-77.20591735839844,-1.0673682689666748,-2.852710723876953,3.739665985107422,-43.51513671875,-45.03525924682617,-69.6276626586914,-12.892704010009766,20.612648010253903,22.368602752685547,87.55596923828125,-46.0732650756836,36.2702522277832,3.562199592590332,6.804121971130371,7.372692108154297,140.7096710205078,-69.59270477294922,158.80897521972656,-1.7915804386138916,1.6945888996124268,4.826787948608398
1567.0160365104675,176.34014892578125,-51.91842269897461,-87.06827545166016,-0.4832361340522766,0.4107229113578796,1.3453969955444336,-135.8736114501953,-26.326488494873047,-76.488037109375,1.6108968257904053,3.954627513885498,-1.9397997856140137,-32.398128509521484,-32.04904556274414,-60.113895416259766,1.5662527084350586,6.681971549987793,14.577333450317385,88.40386962890625,-44.02810287475586,42.22907257080078,5.265585899353027,5.999359130859375,2.46022891998291,142.95965576171875,-70.98577117919922,158.84951782226562,-3.596645832061768,1.7398102283477783,4.888114929199219
1567.046585559845,176.31964111328125,-53.71127700805664,-86.05318450927734,-1.3535821437835691,0.4256520271301269,1.2054204940795898,-138.62425231933594,-26.82941627502441,-79.29856872558594,5.712828636169434,8.001951217651367,-5.234652519226074,-21.277572631835938,-18.036088943481445,-51.98908996582031,7.414032936096191,2.936765670776367,3.440370559692383,88.74533081054688,-44.01497268676758,50.99418640136719,5.092062950134277,6.054093360900879,-0.2562103271484375,145.65977478027344,-72.02935028076172,158.86465454101562,-3.240372657775879,0.5835992097854614,2.430972099304199
1567.106594324112,176.6380615234375,-56.31351089477539,-85.63521575927734,-2.105307102203369,0.4392621517181396,0.980792999267578,-135.18760681152344,-29.816146850585938,-85.64188385009766,6.682746887207031,7.363186836242676,-5.735411643981934,-11.402680397033691,-6.200840473175049,-47.18741989135742,2.0534725189208984,1.480844497680664,6.301548004150391,90.78034973144533,-46.32612991333008,62.630149841308594,1.730339765548706,6.696290969848633,0.3576221466064453,149.940185546875,-72.60823822021484,157.15635681152344,-2.470885753631592,2.053041458129883,1.8602428436279297
1567.1368155479431,177.8253936767578,-59.69572448730469,-86.6671142578125,-2.773681163787842,0.6902521848678589,0.9962997436523438,-126.54424285888672,-33.719635009765625,-95.23176574707033,5.022641181945801,4.317840576171875,-7.629661560058594,1.8825775384902956,4.308972358703613,-46.172122955322266,-4.639100074768066,-3.341588020324707,2.1499900817871094,92.36072540283205,-51.027862548828125,77.18526458740234,-2.854006290435791,4.051051139831543,1.007918357849121,152.82513427734375,-73.59869384765625,155.688232421875,0.4782158136367798,2.244716167449951,1.123122215270996
1567.1674525737762,179.7077178955078,-63.75080871582031,-89.80448913574219,-2.395991325378418,0.3017373085021972,0.6990242004394531,-116.6514892578125,-36.70307922363281,-107.06392669677734,2.1239452362060547,1.4675376415252686,-9.26951026916504,14.1245756149292,13.100472450256348,-44.852500915527344,-10.481782913208008,-4.42095947265625,-4.568209648132324,90.00131225585938,-57.26768493652344,94.93579864501952,-5.027941703796387,-0.2606616020202636,0.1504716873168945,153.7458953857422,-75.11618041992188,154.85906982421875,1.4193589687347412,2.0150060653686523,-4.087651252746582
1567.1959774494171,-178.0336456298828,-67.95098876953125,-94.60299682617188,-0.2218565046787262,-0.6385966539382935,0.3626747131347656,-107.9218521118164,-38.64972305297852,-120.19207000732422,-1.3230466842651367,-0.6136481761932373,-10.336311340332031,18.206201553344727,19.215503692626957,-42.76893997192383,-2.9053783416748047,7.533201217651367,-6.488635063171387,83.48419952392578,-63.64924240112305,114.33939361572266,-5.0431413650512695,-5.500997543334961,-3.7141013145446777,155.14292907714844,-76.10435485839844,152.76966857910156,0.5044775009155273,0.9037686586380004,-7.141730308532715
1567.226613521576,-176.22232055664062,-71.57526397705078,-99.73953247070312,2.0845956802368164,-1.47556471824646,-0.3444156646728515,-100.20328521728516,-40.184356689453125,-134.8467254638672,-5.990181922912598,-0.0562530681490898,-9.092279434204102,13.798532485961914,23.781818389892575,-43.091983795166016,-2.3922104835510254,4.105714797973633,-7.203373908996582,69.84331512451172,-69.49185180664062,134.79193115234375,-0.043918952345848,-7.821144104003906,-4.02098274230957,156.525390625,-76.57295989990234,150.6121368408203,-0.6296213865280151,0.3163601756095886,-7.217700004577637
1567.25669836998,-175.7992401123047,-74.2626724243164,-103.35862731933594,2.713908195495605,-1.8029279708862305,-2.750064849853516,-96.0497817993164,-40.910762786865234,-148.97962951660156,-15.868099212646484,7.147703170776367,-9.393253326416016,10.601128578186035,28.960603713989254,-49.68685150146485,4.709875106811523,4.408792495727539,-8.201799392700195,45.6525993347168,-74.00695037841797,160.39254760742188,-0.0977304726839065,-6.002973556518555,-7.438641548156738,156.98390197753906,-76.80656433105469,148.95616149902344,-0.30093914270401,0.0537381023168563,-5.646605491638184
1567.2867987155914,-178.2893829345703,-75.64583587646484,-103.62801361083984,3.0739588737487797,-2.572183609008789,-3.6064724922180176,-101.571533203125,-41.268802642822266,-159.66680908203125,-21.476581573486328,9.012495040893556,-6.636935234069824,10.729788780212402,34.791961669921875,-66.81037139892578,6.162059783935547,-0.3562314510345459,-10.615873336791992,12.767220497131348,-76.4565658569336,-167.61489868164062,0.4815515875816345,-5.173916816711426,-8.84878921508789,156.13632202148438,-76.95795440673828,147.72097778320312,0.934228539466858,-1.1220879554748535,-4.114422798156738
1567.3161551952362,176.5928955078125,-75.48650360107422,-99.58993530273438,1.0805974006652832,-3.117370128631592,-2.6031594276428223,-106.65052795410156,-41.54114532470703,-166.2130584716797,-15.141937255859377,15.13338851928711,-3.038278579711914,3.2346699237823486,35.60676574707031,-90.86305236816406,2.05576229095459,-5.285645484924316,-21.89466857910156,-25.32839584350586,-75.36589050292969,-132.47915649414062,-0.432264506816864,-7.20424747467041,-5.541801452636719,152.7082061767578,-77.32266998291016,147.99160766601562,0.5942016839981079,-1.7894060611724854,-3.1146106719970703
1567.3462274074554,170.89913940429688,-73.62332153320312,-92.49917602539062,1.6003568172454834,-3.722686290740967,0.3501176834106445,-112.28961944580078,-41.29232406616211,-165.51937866210938,-8.299484252929688,28.411060333251957,-1.9511370658874512,-19.87833023071289,25.92458152770996,-107.99093627929688,-12.339059829711914,-23.307228088378903,-32.1004638671875,-54.429237365722656,-69.90630340576172,-108.23780059814452,1.3138055801391602,-10.516485214233398,0.9459505081176758,146.41822814941406,-77.5875244140625,150.42791748046875,-0.1064089238643646,-0.7777819633483887,-2.514820098876953
1567.4060015678406,165.1890106201172,-70.39839935302734,-86.17829132080078,-1.386573314666748,-1.0449490547180176,1.0127315521240234,-114.7015380859375,-40.95180892944336,-161.01304626464844,-8.23105239868164,-9.263648986816406,-7.041367530822754,-50.34651565551758,23.136892318725582,-109.75975799560548,-8.317630767822266,1.2337749004364014,-18.361900329589844,-68.62992858886719,-63.722354888916016,-98.21470642089844,1.13049054145813,-10.43582534790039,-1.6022157669067385,139.08058166503906,-76.7964859008789,152.16241455078125,-3.606812000274658,-3.846127510070801,-1.846477031707764
1567.4362797737122,160.41539001464844,-66.62781524658203,-80.54261779785156,1.0208473205566406,2.164943218231201,-1.6413469314575195,-114.45532989501952,-41.95848846435547,-158.5689697265625,-17.541515350341797,-2.912078380584717,0.3366451263427734,-74.59909057617188,28.27117919921875,-101.92743682861328,-7.55303955078125,-5.537899017333984,16.681312561035156,-77.27344512939453,-62.20503234863281,-91.14181518554688,5.308236122131348,-6.428108215332031,-1.4949140548706057,137.933837890625,-75.68798065185547,150.11485290527344,-10.02138900756836,-6.410829544067383,0.8191900253295898
