Timestamp,D4:22:CD:00:05:5D_EulerX,D4:22:CD:00:05:5D_EulerY,D4:22:CD:00:05:5D_EulerZ,D4:22:CD:00:05:5D_FreeAccX,D4:22:CD:00:05:5D_FreeAccY,D4:22:CD:00:05:5D_FreeAccZ,D4:22:CD:00:05:5E_EulerX,D4:22:CD:00:05:5E_EulerY,D4:22:CD:00:05:5E_EulerZ,D4:22:CD:00:05:5E_FreeAccX,D4:22:CD:00:05:5E_FreeAccY,D4:22:CD:00:05:5E_FreeAccZ,D4:22:CD:00:05:6B_EulerX,D4:22:CD:00:05:6B_EulerY,D4:22:CD:00:05:6B_EulerZ,D4:22:CD:00:05:6B_FreeAccX,D4:22:CD:00:05:6B_FreeAccY,D4:22:CD:00:05:6B_FreeAccZ,D4:22:CD:00:05:6E_EulerX,D4:22:CD:00:05:6E_EulerY,D4:22:CD:00:05:6E_EulerZ,D4:22:CD:00:05:6E_FreeAccX,D4:22:CD:00:05:6E_FreeAccY,D4:22:CD:00:05:6E_FreeAccZ,D4:22:CD:00:49:AA_EulerX,D4:22:CD:00:49:AA_EulerY,D4:22:CD:00:49:AA_EulerZ,D4:22:CD:00:49:AA_FreeAccX,D4:22:CD:00:49:AA_FreeAccY,D4:22:CD:00:49:AA_FreeAccZ
386.9905114173889,178.3424072265625,-54.916015625,-104.5028839111328,1.9478862285614011,-0.1911308467388153,0.6875419616699219,-173.61245727539062,-25.79448699951172,-23.703731536865234,5.12779426574707,-7.955875396728516,3.763202667236328,-73.81645202636719,-39.22114562988281,-42.788047790527344,-3.2848963737487797,10.979928970336914,20.427513122558597,60.94125747680664,0.4862401485443115,-17.21923065185547,17.10592269897461,9.08135986328125,-8.657848358154297,139.1420135498047,-72.63868713378906,144.8360595703125,-2.6599931716918945,-0.4170096516609192,4.822371482849121
387.004506111145,153.23162841796875,-71.78678131103516,-105.59575653076172,0.3636394739151001,0.9443283081054688,0.6559677124023438,-170.7124481201172,-25.3554744720459,-24.65206527709961,9.494821548461914,2.868572235107422,-0.9221773147583008,-68.53607177734375,-25.800939559936523,-36.71266174316406,5.577414512634277,3.817174911499024,18.344173431396484,67.7375259399414,6.844605445861816,-14.358744621276855,6.126105308532715,8.54673957824707,-13.028972625732422,140.9003448486328,-72.82659149169922,143.11013793945312,-1.3611462116241455,1.3078536987304688,4.091763496398926
387.0547647476196,170.96665954589844,-58.569461822509766,-123.44295501708984,1.150234937667847,0.3273802995681762,1.057551383972168,-144.23062133789062,-65.82658386230469,-41.501224517822266,-0.1178767681121826,-8.888729095458984,14.378318786621094,-72.02957916259766,-43.28926086425781,-94.50820922851562,1.2069768905639648,-5.650529861450195,20.40784454345703,55.41035079956055,-62.82937240600586,79.02738952636719,-3.2836217880249023,10.264104843139648,23.32257461547852,155.7493438720703,-83.37374114990234,119.83140563964844,-1.635812520980835,-0.8318159580230713,8.410625457763672
387.08527517318726,172.66314697265625,-56.948333740234375,-125.5563735961914,0.3957182765007019,0.2157438695430755,0.6444540023803711,171.28041076660156,-71.30471801757812,1.773127555847168,7.17833423614502,0.9402345418930054,14.538414001464844,-69.68771362304688,-29.87607765197754,-95.56819915771484,1.578418493270874,-1.6535234451293943,25.592510223388672,85.7844009399414,-63.48550796508789,58.12306594848633,-3.249321460723877,8.880609512329102,11.9488525390625,159.096435546875,-82.4274673461914,117.65402221679688,3.380352020263672,-0.7957652807235718,4.833742141723633
387.1446919441223,175.0958251953125,-56.26758193969727,-128.1256866455078,0.7487220764160156,1.3780009746551514,1.704145431518555,154.22039794921875,-74.00723266601562,18.9920711517334,-8.400077819824219,-1.1425349712371826,5.928254127502441,-61.72999954223633,-14.63200569152832,-90.46296691894533,0.5554561614990234,-9.989866256713867,24.390872955322266,101.2853775024414,-64.13256072998047,52.82674026489258,-6.939558982849121,3.66671085357666,0.6034030914306641,161.25927734375,-81.06771850585938,116.31861114501952,0.4270912408828735,-2.8820242881774902,9.94476318359375
387.1746990680695,177.90724182128906,-56.55476379394531,-130.37271118164062,1.4055757522583008,0.9399385452270508,1.8344850540161133,152.99710083007812,-73.99899291992188,25.06204032897949,0.0544828623533248,9.109003067016602,0.3670902252197265,-50.380367279052734,-1.0603500604629517,-81.2291259765625,-1.2536067962646484,-15.870420455932615,17.03217315673828,108.5233917236328,-68.813232421875,55.1957893371582,-8.548639297485352,3.04190444946289,-7.283726692199707,164.7777099609375,-79.79248046875,114.52730560302734,-1.0776646137237549,-2.1972250938415527,7.074878692626953
387.2045621871948,-179.1432342529297,-58.0407829284668,-132.26690673828125,1.087275743484497,1.3907275199890137,2.7054014205932617,156.68975830078125,-79.54790496826172,27.04736328125,-1.9883077144622805,4.030801773071289,-4.683961868286133,-35.206668853759766,6.8645124435424805,-70.00362396240234,-6.8066816329956055,-8.911859512329102,2.2569780349731445,114.28778839111328,-78.1982192993164,57.67439651489258,-8.532718658447266,-4.170230865478516,-8.070365905761719,169.0961151123047,-79.56036376953125,111.98013305664062,-0.1891961097717285,0.5148377418518066,6.018834114074707
387.2347376346588,-175.7970428466797,-61.9342155456543,-134.4446563720703,2.2320446968078613,0.0662950575351715,4.133910179138184,121.9487533569336,-86.32587432861328,65.13520812988281,-0.4858148694038391,5.254364013671875,-8.66114616394043,-19.290441513061523,7.76446533203125,-60.27686309814453,-14.714937210083008,-2.899482250213623,-8.339899063110352,-152.60440063476562,-88.88970184326172,-28.021638870239254,-5.423213958740234,-4.550641059875488,-8.633993148803711,172.0859375,-79.33273315429688,110.92066192626952,-0.7550486326217651,1.8351645469665527,4.327700614929199
387.2647316455841,-171.41087341308594,-68.41441345214844,-137.3224334716797,-6.2243194580078125,4.238787651062012,8.686513900756836,20.358549118041992,-81.24462127685547,168.8401641845703,-1.3427965641021729,5.067450523376465,-8.921457290649414,-6.223973751068115,3.990797281265259,-53.617218017578125,-10.45819091796875,-4.386943817138672,-15.151039123535156,-66.04090881347656,-77.0997314453125,-103.17823791503906,-5.327305793762207,-7.994284629821777,-5.995301246643066,176.49830627441406,-78.7472152709961,108.9490203857422,-2.131819725036621,-0.8466364145278931,-0.1627321243286132
387.2946395874024,-166.774169921875,-76.46910858154297,-143.47415161132812,-9.470386505126951,-2.015871047973633,5.476984977722168,7.281989097595215,-71.2763442993164,-178.93492126464844,-6.716944694519043,2.057823181152344,-7.410830497741699,1.306062936782837,-1.159246802330017,-49.505218505859375,0.657923698425293,-6.735762596130371,-10.912912368774414,-58.508392333984375,-65.41209411621094,-101.75837707519533,-3.609312057495117,-12.169662475585938,-9.166738510131836,-175.7151641845703,-77.78582763671875,104.20616149902344,-2.2091498374938965,-2.2016282081604004,-3.533166885375977
387.3246414661408,-172.44384765625,-79.82349395751953,-130.81686401367188,7.978033065795898,-2.364142894744873,-5.555231094360352,0.1708576083183288,-62.35786056518555,-175.5278778076172,-11.979642868041992,-0.5530445575714111,-5.634981155395508,5.384276390075684,-5.008732318878174,-49.36827087402344,5.062992095947266,-3.542032241821289,-8.037214279174805,-57.37656021118164,-56.16288757324219,-97.69392395019533,-2.6810998916625977,-5.815829277038574,-10.578603744506836,-169.65293884277344,-77.6135025024414,100.18873596191406,2.314244747161865,1.0776078701019287,-9.55527687072754
387.3551812171936,173.52609252929688,-76.12146759033203,-106.73035430908205,2.9826154708862305,6.225377082824707,-7.894952774047852,-5.255431652069092,-55.65053939819336,-173.87977600097656,-15.696588516235352,-2.012167930603028,-11.903631210327148,7.96109676361084,-6.338601589202881,-53.85010528564453,5.094985008239746,-3.3369240760803223,-4.409444808959961,-56.96596908569336,-49.17097473144531,-91.98084259033205,0.5029810667037964,-6.385447502136231,-11.015167236328123,-166.068359375,-79.0113525390625,98.26396942138672,0.1374538540840149,1.9060173034667969,-10.895191192626951
387.3851852416992,165.51766967773438,-73.10955047607422,-93.63590240478516,1.3118324279785156,-16.435707092285156,-12.460456848144531,-12.842499732971191,-52.63083267211914,-170.65460205078125,-15.463382720947266,-2.715750217437744,-13.209209442138672,11.893271446228027,-3.4169342517852783,-62.57872772216797,9.05137062072754,-3.308351993560791,-2.8177027702331543,-58.40108871459961,-43.59126663208008,-86.6124038696289,2.63010311126709,-6.638547897338867,-10.36016082763672,-158.1878662109375,-81.2783203125,92.96714782714844,-4.974300384521484,-0.4184948205947876,-7.960500717163086
387.44439697265625,166.1826629638672,-74.35372924804688,-90.2576141357422,2.0705928802490234,20.52925491333008,-0.7737970352172852,-23.645309448242188,-54.01931381225586,-166.0325469970703,-13.626577377319336,-7.48301887512207,-15.723003387451172,14.318584442138672,3.770726442337036,-74.99642944335938,11.328954696655272,-1.3077011108398438,-4.625593185424805,-60.96881866455078,-39.23131942749024,-82.8340835571289,1.8627243041992188,-6.239802360534668,-9.521734237670898,-142.93630981445312,-82.62413787841797,80.70011901855469,1.707395076751709,-1.1476590633392334,-8.145719528198242
387.4744186401367,164.0703582763672,-73.08891296386719,-89.38703155517578,-2.8047432899475098,4.097855567932129,-4.430547714233398,-36.33171844482422,-59.202674865722656,-159.47508239746094,-17.05599594116211,1.365514039993286,-7.513240814208984,13.546642303466797,14.473203659057615,-91.5931625366211,2.2171688079833984,-4.411087989807129,-6.77642822265625,-61.45934677124024,-36.40663146972656,-80.3634033203125,4.637327194213867,-6.570451736450195,-7.167121887207031,-137.9584197998047,-83.12165832519531,77.27057647705078,4.26005744934082,0.1119118928909301,-4.958131790161133
387.5049431324005,160.1591796875,-71.4922866821289,-88.08451080322266,3.1311240196228027,-8.802534103393555,-1.8361468315124512,-44.53887176513672,-64.5748291015625,-152.45196533203125,-0.5956981182098389,-7.11534309387207,1.7037220001220703,6.159267902374268,27.15169906616211,-114.0244140625,-7.589248657226562,-12.172773361206056,-18.471900939941406,-59.269474029541016,-35.46004104614258,-78.57801055908203,7.400910377502441,-9.035017013549805,-7.319277763366699,-136.96299743652344,-83.84129333496094,75.48165893554688,1.2072560787200928,-1.5043556690216064,-0.7157211303710938
387.5341236591339,160.03538513183594,-68.43147277832031,-85.68978881835938,2.3262715339660645,-3.208008289337158,4.065860748291016,-43.60237121582031,-68.13973999023438,-150.70094299316406,-1.2360832691192627,-10.496414184570312,0.2581615447998047,-17.98457145690918,34.389625549316406,-142.9218292236328,-20.878681182861328,-14.659751892089844,-47.10665130615234,-59.12553405761719,-37.185546875,-76.59133911132812,9.179182052612305,-13.830280303955078,-4.164288520812988,-139.88009643554688,-83.94896697998047,77.45669555664062,-2.029043197631836,-1.2575066089630127,3.0459117889404297
387.56443643569946,157.81544494628906,-65.32862091064453,-83.45667266845703,3.4254941940307617,-3.792637825012207,1.859479904174805,-40.5478744506836,-70.81336975097656,-151.990234375,-1.812525510787964,-5.999597549438477,4.029136657714844,-51.465579986572266,34.938716888427734,-147.16249084472656,1.7590446472167969,26.31961441040039,9.237297058105469,-65.07443237304688,-42.58987808227539,-73.72553253173828,9.492687225341797,-14.275760650634766,-1.2335281372070312,-148.00579833984375,-84.29093170166016,85.1940689086914,-3.6148557662963863,-1.1773450374603271,4.4613542556762695
387.5951826572418,155.6944580078125,-62.9281120300293,-80.0830078125,0.2111566960811615,0.596112847328186,4.340404510498047,-37.044883728027344,-73.26179504394531,-154.1930389404297,-1.6414008140563965,-2.6231484413146973,2.527046203613281,-51.12032318115234,43.20219039916992,-131.61497497558594,-42.53801727294922,1.1249465942382812,-3.244318008422852,-78.26693725585938,-50.38453674316406,-69.04188537597656,10.39315414428711,-12.054990768432615,3.532855033874512,-150.3957061767578,-84.61209869384766,87.84584045410156,-0.6895776987075806,-0.5255298614501953,5.974285125732422
387.6246290206909,151.90321350097656,-62.40421676635742,-76.23033142089844,-0.7185579538345337,1.0346765518188477,3.961050033569336,-41.494171142578125,-76.2654800415039,-151.52670288085938,-2.860806465148926,-1.096250295639038,2.021951675415039,-33.52070999145508,47.75823211669922,-102.23694610595705,-14.858114242553713,-4.952055931091309,-11.958885192871094,-93.0587387084961,-58.80587387084961,-63.8978271484375,5.710565567016602,-5.4848222732543945,6.850530624389648,-148.8513641357422,-84.4474868774414,87.09307098388672,-0.4706521034240722,-1.4432108402252195,2.774200439453125
387.6550223827362,145.65798950195312,-63.30407333374024,-71.81788635253906,1.5709218978881836,-2.2317614555358887,4.400533676147461,-45.81965637207031,-78.9864501953125,-148.6259765625,-3.890709400177002,0.4785524010658264,-0.0940752029418945,-19.7668399810791,43.41928863525391,-74.8623046875,-5.933562278747559,0.5141806602478027,-6.698612213134766,-102.24800872802734,-66.92227172851562,-58.36375045776367,0.9416382312774658,4.759084701538086,3.456435203552246,-147.7854461669922,-83.05680847167969,86.01097869873047,2.053223133087158,0.8969992399215698,-0.3143138885498047
387.6844878196716,136.10562133789062,-64.8255615234375,-67.18561553955078,6.489625930786133,-5.693653106689453,3.778543472290039,-52.4836311340332,-81.23815155029297,-142.67755126953125,-3.8597521781921382,-1.2284409999847412,-0.1714668273925781,-16.798494338989258,32.41225051879883,-55.77121353149414,-2.4457154273986816,7.790186882019043,-7.455578804016113,-105.86582946777344,-69.47138214111328,-58.241817474365234,2.374460220336914,16.87185287475586,1.0446043014526367,-148.30438232421875,-80.70616149902344,84.39939880371094,8.127838134765625,1.7699401378631592,-1.846421241760254
387.7451627254486,123.77748107910156,-65.27474212646484,-68.30705261230469,17.457534790039062,5.089748382568359,-2.5847554206848145,-64.17666625976562,-82.96438598632812,-131.9799346923828,-4.275775909423828,-0.8636795282363892,-0.3732290267944336,-22.51671600341797,19.37314987182617,-41.836055755615234,0.1203680038452148,2.644554615020752,-2.5161232948303223,-100.6845245361328,-68.07643127441406,-64.23663330078125,-2.649081230163574,3.169875144958496,-4.384868621826172,-152.35214233398438,-78.64595794677734,83.3968734741211,8.240398406982422,1.1925113201141355,-2.9311652183532715
387.7742998600006,126.1815185546875,-60.843360900878906,-83.26243591308594,28.72660446166992,8.124719619750977,3.8298377990722656,-75.34632873535156,-84.24885559082031,-121.3452377319336,-3.2111520767211914,0.9494560956954956,0.981201171875,-26.020828247070312,6.943371772766113,-31.349103927612305,9.014663696289062,2.438337802886963,2.4174375534057617,-92.41644287109376,-66.18795776367188,-71.1517105102539,-5.5975494384765625,-6.338430404663086,-3.291691303253174,-155.63177490234375,-78.31088256835938,82.12542724609375,-1.0557153224945068,1.698852777481079,-2.9097914695739746
387.8049504756928,136.70852661132812,-51.50734329223633,-100.97281646728516,13.263177871704102,3.1598286628723145,2.3694324493408203,-79.45008850097656,-85.47537231445312,-116.9788055419922,-4.079586982727051,-1.5854544639587402,-0.3879318237304687,-25.802492141723636,-3.935100317001343,-24.753507614135746,6.232208251953125,-6.076511383056641,7.769865036010742,-83.29190063476562,-64.27301788330078,-78.76741790771484,-5.549251556396484,-7.816844940185547,-1.291852951049805,-154.44334411621094,-77.61878967285156,80.76190948486328,-3.968995094299317,3.09756088256836,-0.5589303970336914
387.8350932598114,146.15101623535156,-40.04551696777344,-115.4929428100586,6.05785083770752,-3.710471153259277,-4.550686836242676,-79.48756408691406,-86.4623794555664,-115.1154327392578,-4.036245346069336,1.996644735336304,0.0834999084472656,-16.401500701904297,-12.863868713378906,-21.749736785888672,10.148340225219728,4.266782760620117,4.007482528686523,-71.48680114746094,-62.88775253295898,-86.0126724243164,-2.7529826164245605,-7.6411285400390625,-1.392857551574707,-151.2257843017578,-75.45011138916016,78.3813247680664,4.858059883117676,2.569572925567627,2.826687812805176
387.8682563304901,155.90673828125,-28.8044490814209,-126.1867218017578,-0.3382589221000671,-3.654311180114746,-8.048885345458984,-79.53144836425781,-87.25862121582031,-112.34782409667967,-1.3728437423706057,-0.9242931604385376,-1.574294090270996,-14.660184860229492,-20.124685287475582,-20.331666946411133,8.395111083984375,5.335400581359863,6.206489562988281,-56.93658447265625,-62.07741165161133,-93.06739044189452,-0.2682533264160156,-8.961082458496094,-1.9098291397094729,-149.05328369140625,-74.55196380615234,78.19802856445312,5.613204002380371,1.8914027214050293,2.5789451599121094
387.8948023319245,165.7178497314453,-19.8353328704834,-134.03274536132812,-3.73768949508667,-0.8940765857696533,-10.596555709838867,-93.57945251464844,-87.80474090576172,-95.88287353515624,-4.396899223327637,-4.260881423950195,-2.696399211883545,-20.792207717895508,-24.706281661987305,-19.168964385986328,-1.8408186435699463,-0.314630925655365,1.749720573425293,-41.68758010864258,-61.95805358886719,-99.67536163330078,0.613866925239563,-8.662736892700195,-4.157690048217773,-147.8149871826172,-74.84888458251953,78.48174285888672,1.3839807510375977,3.391088485717773,-2.3440804481506348
387.9250619411469,173.42784118652344,-15.875761985778809,-140.97964477539062,-10.655858993530272,0.4127935171127319,-8.569313049316406,-128.66029357910156,-86.85689544677734,-61.76298904418945,-4.3313751220703125,-4.900058746337891,-2.9914045333862305,-27.228391647338867,-30.25194931030273,-20.517786026000977,-0.1065137684345245,0.2863863706588745,-9.70281982421875,-27.09291648864746,-62.87086868286133,-105.8812255859375,2.1051416397094727,-7.320497512817383,-5.437129974365234,-148.45887756347656,-74.80437469482422,79.21631622314453,4.952564239501953,1.8950564861297607,-1.1849365234375
387.9550437927246,174.6271209716797,-18.14941024780273,-147.20431518554688,-16.841312408447266,-0.3314048647880554,-13.13239860534668,-143.5255889892578,-83.34751892089844,-49.78553771972656,-3.194965362548828,-1.1340694427490234,-1.5503044128417969,-32.898311614990234,-41.71729278564453,-23.960372924804688,3.3122105598449707,-5.893123626708984,1.612884521484375,-12.867880821228027,-64.80884552001953,-114.74964904785156,5.427792549133301,-14.747940063476562,-5.33981990814209,-146.02365112304688,-75.45753479003906,77.20765686035156,1.115809679031372,2.4401421546936035,-1.405534744262695
387.9840614795685,170.1768035888672,-21.96961784362793,-150.30877685546875,-17.254051208496094,7.596344947814941,21.85400009155273,-149.97149658203125,-79.30618286132812,-46.459808349609375,-3.1209187507629395,-0.478532075881958,0.6344032287597656,-24.92240524291992,-56.96194839477539,-31.77689552307129,24.264705657958984,-8.19599723815918,25.93844223022461,6.914763927459717,-67.66143798828125,-136.4947509765625,5.910877227783203,-15.768260955810549,8.751401901245117,-142.93821716308594,-75.4805908203125,74.43814849853516,-2.2271924018859863,-0.1730405986309051,-1.9211821556091309
388.0450241565704,173.24716186523438,-23.27353858947754,-147.01535034179688,-26.26559066772461,-10.079429626464844,-4.4029645919799805,-156.03736877441406,-77.18950653076172,-41.74394989013672,-2.600468158721924,1.1118180751800537,1.0433950424194336,-23.047128677368164,-61.72748565673828,-40.31248474121094,31.23369598388672,-12.461687088012695,12.592464447021484,47.72262191772461,-61.563575744628906,-176.01329040527344,7.882411956787109,-15.521842956542969,27.23447036743164,-140.9900665283203,-75.98827362060547,72.6357421875,-0.112553521990776,-1.5419936180114746,1.1586685180664062
388.075213432312,177.3031463623047,-21.909900665283203,-140.25218200683594,-21.954723358154297,-9.17160987854004,11.563793182373049,-162.26339721679688,-75.96109771728516,-36.34938049316406,-5.13348388671875,-1.7190098762512207,-0.0250225067138671,-46.94536590576172,-50.85219955444336,-30.221080780029297,-0.1298775672912597,-17.505142211914062,27.878921508789062,70.05418395996094,-44.57081985473633,159.84951782226562,12.672531127929688,-13.801259994506836,26.98764038085937,-146.24441528320312,-75.60688781738281,77.34566497802734,1.0225646495819092,0.9735193252563475,2.42654800415039
388.1049633026123,176.4427947998047,-16.014339447021484,-133.63291931152344,-16.74268341064453,-11.704832077026367,18.401042938232425,-164.81480407714844,-75.79365539550781,-34.56524658203125,-5.441342353820801,-1.0145788192749023,0.3679933547973633,-51.71449279785156,-37.03106689453125,-28.365434646606445,17.123249053955078,-16.076702117919922,3.935365676879883,77.43370056152344,-22.897953033447266,143.23788452148438,7.953380584716797,1.764817237854004,18.660968780517575,-150.42796325683594,-74.89378356933594,80.98379516601562,0.352774977684021,1.3594787120819092,5.101309776306152
388.1343286037445,169.7099609375,-8.03121280670166,-130.23324584960938,-10.09040069580078,-11.21477508544922,8.89876937866211,-164.80824279785156,-77.07894897460938,-35.72515869140625,-5.021512985229492,0.0145902540534734,1.1029863357543943,-57.51961898803711,-26.92955207824707,-32.846405029296875,0.6820886135101318,-8.947502136230469,-1.278116226196289,77.36280822753906,0.0374260209500789,129.37757873535156,1.426790714263916,13.885690689086914,13.754199981689451,-151.2666473388672,-76.45632934570312,82.34295654296875,4.490930557250977,3.025247097015381,7.623615264892578
388.16546654701233,166.12359619140625,-1.673419952392578,-129.00054931640625,-3.728123188018799,-4.803577423095703,-2.937793254852295,-163.13929748535156,-80.16463470458984,-38.76534652709961,-6.32861328125,-0.2604014277458191,1.4788951873779297,-61.44706726074219,-23.66939926147461,-41.13772201538086,-5.0822601318359375,-1.2039906978607178,-3.27663516998291,73.6619644165039,18.70600128173828,118.29281616210938,-1.362010478973389,3.862382411956787,4.144750595092773,-154.95516967773438,-77.19979858398438,85.84224700927734,8.78167724609375,5.307002067565918,5.588796615600586
388.1943588256836,167.1573028564453,0.1381253451108932,-128.6793975830078,1.713125467300415,1.1223382949829102,-9.802932739257812,-125.45346069335938,-86.75526428222656,-78.58010864257812,-0.7320746183395386,-5.811420440673828,6.836694717407227,-64.37620544433594,-26.94550132751465,-50.70387268066406,-6.341915130615234,3.3989086151123047,0.4276752471923828,69.16761016845703,32.0611457824707,111.16468811035156,-19.12405014038086,-9.423126220703123,-0.3344640731811523,-162.47317504882812,-77.18214416503906,91.21453857421876,9.713335037231444,4.014137268066406,6.558849334716797
388.22466921806335,169.14585876464844,-3.5295181274414062,-128.9925079345703,0.9647403955459596,5.527020454406738,-9.564847946166992,-5.875550746917725,-83.75961303710938,167.06671142578125,-10.938735961914062,-5.828234672546387,2.6259212493896484,-63.94001770019531,-35.138877868652344,-60.87250518798828,-4.984702110290527,6.251896858215332,0.8646230697631836,61.32025909423828,42.564823150634766,103.76526641845705,-7.6320295333862305,-9.864784240722656,-12.983667373657228,-173.2131805419922,-77.30317687988281,98.63182830810548,2.8851051330566406,1.1044795513153076,5.480563163757324
388.2546675205231,166.09471130371094,-12.267208099365234,-130.35545349121094,-0.7101548910140991,4.556018829345703,-12.461360931396484,20.73683357238769,-80.48847198486328,151.50978088378906,-7.966763496398926,3.1220030784606934,-6.859919548034668,-60.32895278930664,-45.33584976196289,-70.9007339477539,-3.50516414642334,4.882224082946777,-2.679811477661133,58.30474090576172,50.50871658325195,96.48306274414062,4.189028739929199,-8.172733306884766,-12.775615692138672,175.50201416015625,-77.4339828491211,107.17516326904295,-3.2651476860046387,0.1748137176036834,-0.4577207565307617
388.28466629982,160.02423095703125,-24.226776123046875,-131.89474487304688,-3.822100162506104,1.1136658191680908,-14.672332763671877,28.67591094970703,-80.52552032470703,148.07638549804688,14.768138885498049,-0.7763470411300659,-2.603012561798096,-56.731483459472656,-55.41845703125,-80.22261810302734,-0.5103399753570557,3.118588924407959,-6.129117965698242,59.35148239135742,55.88905715942383,95.05021667480467,-0.6468867063522339,0.1849460899829864,-8.594930648803711,169.55870056152344,-76.66386413574219,110.88410949707033,-0.4739971756935119,-0.562410831451416,-9.344919204711914
388.34453082084656,155.24290466308594,-37.396671295166016,-132.44821166992188,-5.582662582397461,-0.9298728704452516,-13.676504135131836,23.19793128967285,-79.76573181152344,151.73765563964844,-13.75527000427246,6.62977409362793,-3.9995131492614746,-53.19388198852539,-64.13941192626953,-90.07263946533205,-0.2923119068145752,3.949118137359619,-7.029285430908203,58.80950546264648,58.62657928466797,104.98674011230467,-0.7142131328582764,-3.131718635559082,-9.845855712890623,168.38929748535156,-75.30850982666016,110.8817367553711,0.3490626215934753,-1.3014273643493652,-7.178258895874023
388.3747317790985,153.4172821044922,-51.47053527832031,-131.48390197753906,-4.39272403717041,-0.8935679197311401,-6.849832534790039,13.330839157104492,-80.65506744384766,156.454345703125,-5.340149879455566,-1.3879179954528809,-5.962983131408691,-41.44672775268555,-71.60926818847656,-104.06402587890624,0.1449854373931884,6.028592109680176,-6.957110404968262,57.37630844116211,56.62176513671875,125.73106384277344,-6.669155120849609,-8.97128677368164,-11.704978942871094,165.6115264892578,-76.44361877441406,113.92862701416016,-0.9083762168884276,1.271292209625244,-6.49452018737793
388.4044570922852,151.77407836914062,-67.34004211425781,-128.68798828125,-2.092791080474853,-2.037966728210449,3.749711036682129,5.508931636810303,-81.04789733886719,160.65115356445312,-3.845803260803223,-6.743224143981934,-4.859023094177246,-23.051027297973636,-76.91461181640625,-122.44927978515624,1.6172335147857666,6.343221664428711,-4.955431938171387,47.684226989746094,46.44034957885742,147.30299377441406,-4.204873085021973,-5.328264236450195,-27.187522888183597,159.60340881347656,-78.2939453125,119.22975158691406,0.5652288198471069,2.0735597610473637,-7.118119239807129
388.43488597869873,131.32879638671875,-82.88385009765625,-103.3167953491211,9.94987678527832,-0.4840966463088989,15.283998489379885,0.7843298316001892,-81.04871368408203,163.97055053710938,-1.6456434726715088,-1.827592372894287,-2.2601189613342285,-5.634249210357666,-79.62430572509766,-140.51480102539062,0.9681246280670166,7.402554512023926,-1.7335748672485352,33.44145584106445,37.50053405761719,158.84701538085938,-28.373241424560547,-2.100368022918701,-21.157638549804688,157.67274475097656,-78.81840515136719,120.46823120117188,1.5915424823760986,-0.0371556729078292,-4.402246475219727
388.4651215076447,36.94577407836914,-80.64051818847656,-0.5372538566589355,16.681968688964844,17.419429779052734,8.377395629882812,-5.532266616821289,-81.50188446044922,169.213623046875,-0.1833758354187011,-0.8113119602203369,1.8788537979125977,6.075431346893311,-80.13528442382812,-152.2805938720703,0.5589303970336914,5.957187652587891,-0.0521059036254882,31.11287498474121,38.40045166015625,150.97813415527344,24.19429397583008,19.1824951171875,-2.0142884254455566,160.77838134765625,-79.52723693847656,118.45792388916016,1.5684678554534912,-0.8813349008560181,-2.4552712440490723
388.4959008693695,23.049728393554688,-76.2841567993164,8.988032341003418,17.890029907226562,14.557973861694336,-14.381858825683594,-19.985137939453125,-82.81124877929688,-178.2379913330078,-3.09016752243042,-3.0940842628479004,2.0683374404907227,4.114381790161133,-78.9636001586914,-151.26869201660156,2.07834529876709,1.9310567378997805,-2.066558361053467,40.54597854614258,42.52122497558594,135.26319885253906,-17.844879150390625,-10.061491012573242,-5.614044189453125,166.95481872558594,-79.83470916748047,113.1916275024414,5.666111946105957,-1.1586151123046875,-3.750231742858887
388.52473068237305,30.30458641052246,-78.38423156738281,-2.9087612628936768,9.798135757446287,-5.8750410079956055,-3.172149181365967,-36.65719604492188,-82.8083267211914,-161.79493713378906,-4.687455177307129,-2.426684856414795,2.3589954376220703,-5.158146858215332,-77.6982421875,-144.9287567138672,3.1416468620300293,2.3486108779907227,-1.768049240112305,32.523468017578125,42.88468933105469,111.66758728027344,-6.220478057861328,7.426759719848633,-14.981107711791992,174.1897430419922,-79.72271728515625,105.73275756835938,5.658930778503418,0.303955614566803,1.2609939575195312
388.5549266338349,72.01136016845703,-80.31072998046875,-38.06767654418945,6.498947143554688,-5.653800010681152,3.279499053955078,-45.50558090209961,-81.2493667602539,-152.17034912109375,-3.928080081939697,-0.1941976547241211,2.9346933364868164,-10.29938793182373,-77.13670349121094,-139.79161071777344,3.7809133529663086,2.8795361518859863,1.4923009872436523,29.87289428710937,38.63553237915039,88.34774780273438,-12.332647323608398,2.705683708190918,-9.205448150634766,178.08192443847656,-79.51905822753906,100.85868072509766,1.7779335975646973,1.3293728828430176,3.257286071777344
388.5850734710693,93.49368286132812,-81.13568115234375,-57.29683303833008,-5.126883506774902,-8.253856658935547,3.891819953918457,-51.36940383911133,-79.24746704101562,-145.56080627441406,-1.7543420791625977,-3.604804992675781,3.070189476013184,-11.258761405944824,-77.36048889160156,-135.70028686523438,2.3818655014038086,-1.4148507118225098,3.600046157836914,23.430044174194336,30.97122383117676,69.37783813476562,-8.073295593261719,5.807835578918457,-8.351234436035156,-176.58071899414062,-79.26813507080078,95.39179229736328,2.020993232727051,1.1445951461791992,4.616896629333496
388.64466190338135,112.67532348632812,-81.8974380493164,-79.16881561279297,3.105111598968506,-5.130282402038574,4.89896297454834,-57.36333847045898,-76.98172760009766,-137.9883575439453,-0.6150006055831909,-5.1443071365356445,5.583332061767578,-14.105216026306152,-78.35800170898438,-131.1961212158203,2.155029296875,-2.482713222503662,5.856273651123047,19.043493270874023,22.15035057067871,54.68825912475586,9.426763534545898,-4.848116874694824,-3.5321998596191406,-173.04119873046875,-78.96906280517578,92.23938751220705,3.507830142974853,-1.003495216369629,2.0964841842651367
388.67474269866943,133.9950408935547,-80.53511047363281,-99.55860900878906,-4.883045196533203,-7.08590030670166,6.198646545410156,-61.34370422363281,-74.12663269042969,-130.8324737548828,-4.773903846740723,-7.222577095031738,3.881838798522949,-18.45110321044922,-79.79292297363281,-126.58008575439452,1.100712537765503,-1.2275679111480713,5.816232681274414,29.74749183654785,14.81599235534668,45.46080017089844,18.10445022583008,-19.343032836914062,-5.000750541687012,-173.85726928710938,-78.0560531616211,93.4570770263672,0.3952513337135315,-1.19803786277771,-0.8539953231811523
388.7050750255585,154.1907501220703,-77.62528228759766,-112.07775115966795,0.6107299327850342,6.987261772155762,-1.3780546188354492,-69.29813385009766,-72.75160217285156,-119.23114776611328,-25.66363906860352,-4.23347282409668,-5.177406311035156,-24.53032875061035,-81.39559173583984,-118.43386840820312,0.5898702144622803,-1.037524938583374,2.253453254699707,49.65096282958984,8.081241607666016,43.89528274536133,4.646222114562988,-6.172083854675293,-10.29507064819336,-176.6755828857422,-76.45147705078125,97.53083038330078,-2.937323093414306,0.5387281179428101,-1.82523775100708
388.73433899879456,163.87930297851562,-74.80435180664062,-117.9572296142578,-0.7779480218887329,-1.7285244464874268,3.4915084838867188,-88.31718444824219,-71.78170013427734,-96.38821411132812,-20.76944732666016,-1.6941850185394287,-4.039449691772461,-36.2123908996582,-82.49099731445312,-103.09823608398438,0.9338195323944092,-2.674673080444336,-2.182767391204834,61.81941986083984,-2.535733222961426,45.05564880371094,3.08815860748291,4.372939109802246,0.6206026077270508,-178.19859313964844,-75.17314147949219,102.7369384765625,-4.030247688293457,-1.3242464065551758,-3.1991829872131348
388.7644951343536,170.11231994628906,-71.50370025634766,-120.62965393066406,-1.3813025951385498,1.5539464950561523,0.6038589477539062,-107.74943542480467,-68.62470245361328,-71.42660522460938,-13.182437896728516,-4.222685813903809,-7.247189521789551,-48.4655876159668,-82.9659194946289,-88.02886199951172,0.2496250867843628,-2.576246738433838,-3.588063240051269,68.30072784423828,-14.724740982055664,44.97160339355469,-2.2312803268432617,4.208433151245117,-1.760833740234375,-176.3767852783203,-73.8225326538086,104.86666107177734,-0.9382563829421996,0.5462169647216797,0.8203554153442383
388.7943515777588,173.93426513671875,-68.263916015625,-122.92918395996094,1.1994922161102295,0.4807791709899902,0.0699100494384765,-123.73152923583984,-63.384559631347656,-51.40703201293945,-6.494596481323242,-4.047343254089356,-10.322687149047852,-50.0394401550293,-83.84451293945312,-85.22513580322266,-2.135783672332764,-4.649924278259277,-3.5493226051330566,74.80586242675781,-24.82512855529785,40.92572784423828,-4.625978469848633,-0.253838300704956,13.852523803710938,-175.31777954101562,-73.7715835571289,104.61375427246094,-0.7074538469314575,2.0906052589416504,1.8705663681030276
388.824649810791,176.07899475097656,-65.97175598144531,-124.3668975830078,1.1079480648040771,0.9405640363693236,1.0102472305297852,-137.97457885742188,-57.21290969848633,-37.00762939453125,-4.2308855056762695,-0.9628857374191284,-12.424497604370115,-42.89796829223633,-84.91677856445312,-94.65306091308594,-3.5203065872192383,-4.831155776977539,-0.6395654678344727,82.0938949584961,-30.481067657470703,36.18360137939453,-1.274043083190918,-3.9499549865722656,6.977790832519531,-175.92086791992188,-74.41805267333984,106.25154113769533,-3.306829929351806,1.6363248825073242,-0.5900163650512695
388.854775428772,176.9937744140625,-64.89310455322266,-125.83218383789062,-0.5845515727996826,1.3647339344024658,0.8328018188476562,-153.142333984375,-51.11415100097656,-26.535436630249023,-4.02237606048584,-2.0384626388549805,-11.974737167358398,-30.39048957824707,-85.82449340820312,-111.26666259765624,-5.076013565063477,0.4032089710235595,0.6069612503051758,90.35894012451172,-35.08066177368164,33.34316635131836,1.2709457874298096,-6.225825309753418,2.616593360900879,-178.31878662109375,-74.49417114257812,109.04715728759766,-3.495987892150879,2.06473159790039,1.769942283630371
388.8847644329071,177.7428741455078,-64.64137268066406,-128.61489868164062,-1.6705613136291504,0.9989933967590332,0.2948141098022461,-169.2635955810547,-46.75997543334961,-18.378597259521484,-2.0471954345703125,-2.545356273651123,-7.256917953491211,-14.059596061706545,-86.71824645996094,-131.0911865234375,-4.813914299011231,-0.6131258010864258,0.0256414413452148,96.65013122558594,-42.30235290527344,31.79724884033203,0.6388101577758789,-5.98302173614502,2.411118507385254,177.95225524902344,-75.22714233398438,111.91446685791016,-1.980243444442749,1.2317183017730713,1.170732498168945
388.9448535442352,178.05450439453125,-63.99615478515625,-131.94711303710938,-0.6120052337646484,1.12882661819458,0.6290559768676758,176.3107147216797,-45.38759613037109,-11.263467788696287,7.424038887023926,-0.100272998213768,-3.1992015838623047,-8.63652515411377,-87.50880432128906,-142.10189819335938,-2.750967502593994,1.5513169765472412,-1.032322883605957,98.98991394042967,-54.84040069580078,27.137113571166992,8.163827896118164,-2.5057578086853027,4.694035530090332,171.47047424316406,-75.89525604248047,117.4888153076172,-1.7316129207611084,0.9812054634094238,-0.8917369842529297
388.9749531745911,177.9553985595703,-62.67999649047852,-134.3133087158203,1.3040239810943604,-2.7401986122131348,-1.3831892013549805,169.7903594970703,-48.6727294921875,-5.425439834594727,7.873617172241211,9.26932144165039,0.8647871017456055,-11.779481887817385,-88.2778549194336,-144.4521942138672,-1.347309112548828,4.669822692871094,-2.923649787902832,103.01837158203124,-68.5160140991211,15.767745018005373,13.613702774047852,-6.777440071105957,22.474742889404297,164.5387420654297,-76.1972885131836,123.3030014038086,-0.5135796070098877,-0.3170859813690185,-3.649871826171875
389.0047426223755,177.3719940185547,-60.81900405883789,-134.67202758789062,1.4649014472961426,-2.3260974884033203,-0.8246526718139648,177.96444702148438,-51.46847152709961,-3.466637134552002,6.3666582107543945,17.508296966552734,16.266597747802734,-60.76217651367188,-88.9251708984375,-97.45970916748048,0.147743284702301,0.8346652984619141,-4.83466911315918,103.63977813720705,-75.46121978759766,14.94778537750244,18.059558868408203,-7.081341743469238,9.16997528076172,160.10276794433594,-76.56863403320312,126.72152709960938,-0.2045264244079589,-1.9137136936187744,-2.326010704040528
389.0348203182221,176.09959411621094,-58.76631164550781,-133.2014617919922,-1.383342742919922,0.2956674098968506,0.8226222991943359,-178.70057678222656,-52.88377380371094,-4.120117664337158,8.031864166259766,-1.7184057235717771,4.54262638092041,-93.57117462158205,-87.380126953125,-62.71592330932617,5.237308502197266,2.384512424468994,0.7424240112304688,100.1941375732422,-74.65738677978516,19.19215965270996,8.240585327148438,-3.574885845184326,2.4314565658569336,155.61044311523438,-76.88860321044922,130.69482421875,-0.7247259616851807,-0.1216384321451187,-3.260913848876953
389.0648210048676,175.1554412841797,-56.45197296142578,-131.10240173339844,0.2914861440658569,0.0201059952378273,0.8974313735961914,178.55117797851562,-52.12771224975586,-5.789926052093506,15.282709121704102,6.685367584228516,15.374916076660156,-77.3581314086914,-84.07493591308594,-76.56745147705078,4.918413162231445,0.7797884941101074,9.164804458618164,92.52389526367188,-73.30075073242188,30.566404342651367,15.074485778808594,15.147232055664062,1.9230756759643557,152.3508758544922,-76.15693664550781,133.1442108154297,-2.82379150390625,0.94739031791687,-1.1084270477294922
389.09496545791626,174.65274047851562,-54.518184661865234,-129.92828369140625,1.4842345714569092,0.6222697496414185,-0.0601577758789062,178.9727020263672,-50.4761962890625,-7.326431751251221,12.851051330566406,-4.025701522827148,12.557334899902344,-76.0553207397461,-75.71632385253906,-80.93608856201172,4.909662246704102,15.706476211547852,17.056560516357422,93.33921813964844,-71.51195526123047,34.98909378051758,-1.8290555477142332,19.438804626464844,8.550422668457031,152.62860107421875,-75.39632415771484,132.6561737060547,-0.4903668761253357,0.7279239892959595,7.208839416503906
389.1246132850647,174.69337463378906,-53.15596008300781,-130.78500366210938,-1.0422229766845703,1.4296810626983645,1.001603126525879,-179.37893676757812,-48.5424690246582,-9.218067169189451,11.101884841918944,-2.344987392425537,10.628917694091797,-72.3823013305664,-62.6093864440918,-84.17417907714844,7.783557891845703,18.137699127197266,18.867462158203125,99.4499282836914,-71.42151641845703,33.95404815673828,3.387725353240967,19.63602828979492,10.658205032348633,152.94161987304688,-75.26908111572266,131.90475463867188,1.0727441310882568,0.9708684682846068,6.423452377319336
389.1548748016357,176.25738525390625,-52.61226272583008,-132.91033935546875,2.7325472831726074,1.31136155128479,-0.1330957412719726,178.4486083984375,-47.3615608215332,-10.886693000793455,3.3912477493286133,-2.091311454772949,6.488868713378906,-69.51205444335938,-44.95658493041992,-84.55352020263672,5.427776336669922,7.878451347351074,16.99378204345703,110.7598876953125,-73.7168960571289,34.70209503173828,-7.562197685241699,6.006063461303711,12.5906982421875,156.06900024414062,-74.86092376708984,127.9072723388672,-1.0706498622894287,-1.3490869998931885,7.150293350219727
389.1848893165589,178.26470947265625,-53.95563888549805,-135.48336791992188,1.1442933082580566,1.379441499710083,1.3943376541137695,-177.29840087890625,-49.17330551147461,-12.823034286499023,8.258293151855469,9.072914123535156,2.2725830078125,-64.08258056640625,-27.71250534057617,-82.1060791015625,3.113006114959717,-1.966085433959961,10.82979965209961,125.31708526611328,-78.50784301757812,33.079429626464844,-10.062700271606444,-6.471197128295898,8.027931213378906,157.27322387695312,-74.07955169677734,125.2429656982422,-0.3250749707221985,-1.9494621753692627,6.27342414855957
389.2454614639282,-179.73287963867188,-56.730281829833984,-136.68304443359375,-0.6241120100021362,1.2172293663024902,3.1315317153930664,-172.1768341064453,-54.6943588256836,-15.647544860839844,-0.8584429025650024,0.6351227760314941,-2.417239189147949,-50.26227569580078,-17.694786071777344,-76.43807220458984,-0.5297791957855225,-5.064218521118164,6.037306785583496,161.67713928222656,-84.04942321777344,7.557377338409424,-8.259832382202148,-11.819868087768556,2.8661603927612305,156.23309326171875,-74.1418228149414,124.8495864868164,-4.923563003540039,-0.7797669172286987,7.531551361083984
389.2745406627655,-177.65196228027344,-60.05030059814453,-138.19102478027344,-0.1966699361801147,2.059953212738037,2.1541051864624023,-166.6585235595703,-63.79656982421875,-18.95340919494629,2.682408332824707,3.657692909240722,-5.196946144104004,-35.88395690917969,-17.658891677856445,-68.70939636230469,-3.867851734161377,-0.583412766456604,5.426497459411621,-118.18443298339844,-82.76714324951172,-62.56095504760742,-5.351395606994629,-13.704362869262695,-0.5191745758056641,157.8118133544922,-74.7691421508789,123.78929901123048,-6.107295989990234,0.6704270839691162,4.558250427246094
389.3045320510864,-174.32144165039062,-64.40753936767578,-141.076904296875,0.5511739253997803,2.705355167388916,3.0527496337890625,-153.44027709960938,-76.41814422607422,-29.641843795776367,0.8135944604873657,2.627516746520996,-3.7437448501586914,-21.56096839904785,-23.185007095336918,-62.84498977661133,-14.44670295715332,-1.387385368347168,8.338752746582031,-92.68724822998048,-75.28483581542969,-79.00345611572266,1.3382794857025146,-14.868200302124023,-1.996955394744873,162.60983276367188,-74.81942749023438,121.42941284179688,-2.690178871154785,2.334399700164795,2.0022993087768555
389.3345518112183,-168.4334716796875,-70.62422180175781,-147.8735809326172,-2.89111852645874,1.2477564811706543,7.025764465332031,-70.22205352783203,-84.91046142578125,-113.55036163330078,-8.482397079467773,-1.7844116687774658,-2.3880772590637207,-5.551115989685059,-27.01094055175781,-62.58456039428711,-4.763260841369629,-5.071276664733887,1.7440786361694336,-87.98335266113281,-68.10172271728516,-78.4520034790039,4.380066871643066,-11.001033782958984,-7.839550971984863,167.78622436523438,-73.52762603759766,119.68169403076172,-1.2716612815856934,0.2649238705635071,-0.8531618118286133
389.3648147583008,-159.45814514160156,-77.60520935058594,-163.11907958984375,-5.536646842956543,-1.600471019744873,4.743374824523926,-18.900882720947266,-75.47545623779297,-169.89210510253906,-20.30346298217773,-2.070920944213867,-1.894145965576172,6.63376522064209,-26.04071044921875,-68.04560852050781,1.5843582153320312,-5.6078081130981445,-3.793240547180176,-96.1633758544922,-63.44944763183594,-71.8383560180664,5.816183090209961,-7.472814559936523,-12.956899642944336,172.92344665527344,-71.65015411376953,118.1631317138672,-1.420867919921875,0.2001828849315643,-5.995391845703125
389.3943486213684,-160.49688720703125,-81.05508422851562,-159.1213836669922,6.347794532775879,-4.081350326538086,-6.527238845825195,-17.903480529785156,-67.13995361328125,-175.6750030517578,-20.22966766357422,2.5728201866149902,-10.701253890991213,17.094776153564453,-20.202621459960938,-76.48178100585938,-0.506333589553833,-6.742474555969238,-4.753966331481934,-110.65699005126952,-61.54814147949219,-65.00424194335938,5.523586273193359,-3.0378103256225586,-9.827905654907228,177.09983825683594,-70.45787811279297,117.15909576416016,0.887493371963501,0.45581716299057,-8.87397575378418
389.4254846572876,179.035888671875,-79.53314971923828,-127.6371841430664,5.288079261779785,5.540213584899902,-10.781915664672852,-18.418331146240234,-62.79965591430664,-175.3996124267578,-13.873785018920898,-0.7280323505401611,-16.020095825195312,30.394718170166016,-9.665557861328123,-85.71153259277344,-2.2361059188842773,-3.762639999389648,-8.938884735107422,-119.42749786376952,-62.31825637817383,-61.43329620361328,4.842052459716797,0.482365071773529,-7.036064147949219,179.0602569580078,-70.97260284423828,117.3763656616211,0.5345133543014526,1.7368535995483398,-8.469734191894531
