Timestamp,D4:22:CD:00:05:5D_EulerX,D4:22:CD:00:05:5D_EulerY,D4:22:CD:00:05:5D_EulerZ,D4:22:CD:00:05:5D_FreeAccX,D4:22:CD:00:05:5D_FreeAccY,D4:22:CD:00:05:5D_FreeAccZ,D4:22:CD:00:05:5E_EulerX,D4:22:CD:00:05:5E_EulerY,D4:22:CD:00:05:5E_EulerZ,D4:22:CD:00:05:5E_FreeAccX,D4:22:CD:00:05:5E_FreeAccY,D4:22:CD:00:05:5E_FreeAccZ,D4:22:CD:00:05:6B_EulerX,D4:22:CD:00:05:6B_EulerY,D4:22:CD:00:05:6B_EulerZ,D4:22:CD:00:05:6B_FreeAccX,D4:22:CD:00:05:6B_FreeAccY,D4:22:CD:00:05:6B_FreeAccZ,D4:22:CD:00:05:6E_EulerX,D4:22:CD:00:05:6E_EulerY,D4:22:CD:00:05:6E_EulerZ,D4:22:CD:00:05:6E_FreeAccX,D4:22:CD:00:05:6E_FreeAccY,D4:22:CD:00:05:6E_FreeAccZ,D4:22:CD:00:49:AA_EulerX,D4:22:CD:00:49:AA_EulerY,D4:22:CD:00:49:AA_EulerZ,D4:22:CD:00:49:AA_FreeAccX,D4:22:CD:00:49:AA_FreeAccY,D4:22:CD:00:49:AA_FreeAccZ
466.33706998825073,-152.807861328125,-82.01654815673828,-167.7749786376953,-0.416914701461792,1.3797297477722168,-0.7998981475830078,168.2081298828125,-71.74156951904297,-70.6226806640625,9.190023422241213,-4.813394546508789,-3.741543769836426,-8.985671043395996,34.370513916015625,-93.52361297607422,-1.093414306640625,-0.8132175207138062,-8.676971435546875,-164.75062561035156,-81.95989990234375,-13.655327796936035,2.826269626617432,-7.179803848266602,-4.460930824279785,167.62570190429688,-80.53132629394531,126.3019027709961,0.27354496717453,0.2131312787532806,-5.010202407836914
466.3520839214325,-138.192626953125,-84.66983032226562,175.57058715820312,-1.9764554500579836,-0.9762344360351562,-4.098625183105469,173.61375427246094,-73.45785522460938,-65.22428131103516,-3.2753214836120605,-3.119630813598633,-1.1771535873413086,-13.78609561920166,27.901485443115234,-109.48441314697266,-1.5864319801330566,-4.281417846679688,-13.372234344482422,-164.06265258789062,-80.74309539794922,-17.294301986694336,5.399116516113281,-5.400935173034668,-4.972028732299805,160.7075958251953,-81.23334503173828,130.20993041992188,0.8152681589126587,-1.1577770709991455,-7.066344261169434
466.4045052528381,174.96461486816406,-55.73875045776367,-59.76206588745117,-0.3348320722579956,2.664274215698242,1.3460044860839844,165.6047821044922,-83.64128112792969,27.44825553894043,-0.9078494310379028,-2.926814079284668,6.071890830993652,-86.87418365478516,-3.9194352626800537,-71.02748107910156,-3.357333183288574,0.6366735696792603,11.259479522705078,-176.29994201660156,-71.36534118652344,-32.251502990722656,-3.5632901191711426,10.209190368652344,-1.3866643905639648,142.3871612548828,-80.8006820678711,151.0837860107422,-0.1180841326713562,-2.0449819564819336,6.686639785766602
466.4344403743744,175.4722900390625,-55.86733627319336,-60.231422424316406,1.0777761936187744,1.8809516429901123,1.0696935653686523,162.51121520996094,-82.83623504638672,29.047807693481445,-12.61988639831543,-8.117015838623047,5.68609619140625,-87.47859954833984,13.014863967895508,-65.74195861816406,-0.1220730543136596,-1.763481616973877,10.571371078491213,-150.84375,-62.212005615234375,-50.72616195678711,-5.2882890701293945,7.783411979675293,-2.421972751617432,159.1231689453125,-78.6209945678711,133.968994140625,1.3458881378173828,-2.172140598297119,8.047340393066406
466.4645802974701,176.7732391357422,-57.3054313659668,-60.60179138183594,-0.2228381633758545,1.0389180183410645,1.067668914794922,165.42201232910156,-68.62909698486328,23.4361629486084,0.5976471900939941,4.957534790039063,2.0435142517089844,-83.6606674194336,29.682579040527344,-57.75488662719727,7.579272270202637,-7.398428916931152,6.750604629516602,-127.86996459960938,-47.9756088256836,-63.68344879150391,-11.508106231689451,-4.986346244812012,-5.889324188232422,167.5552520751953,-76.28885650634766,125.44689178466795,-1.2294270992279053,-1.0262105464935305,5.236929893493652
466.4946537017822,178.2294921875,-59.65813827514648,-61.16278076171875,-0.761584997177124,0.643557071685791,1.171915054321289,-177.14918518066406,-68.94866180419922,8.682299613952637,-4.200930595397949,6.704886436462402,-1.3724727630615234,-70.49131774902344,43.69915390014648,-47.60311508178711,19.10848999023437,-11.656389236450195,4.495538711547852,-125.70083618164062,-43.64051055908203,-70.8863296508789,-11.141229629516602,-5.264614105224609,-7.983761787414551,175.84222412109375,-75.36985778808594,118.7536849975586,-5.349820137023926,0.3565952181816101,2.7085914611816406
466.524169921875,179.7894744873047,-62.96563720703125,-62.2735595703125,-1.01812744140625,0.4424814581871032,1.0266380310058594,-148.39678955078125,-71.52384185791016,-15.234902381896973,-3.764412879943848,2.7156152725219727,-5.582080841064453,-46.584991455078125,52.50406265258789,-37.76287841796875,12.880681991577148,-11.308719635009766,-2.7632155418396,-123.77210998535156,-42.5590705871582,-82.8181381225586,-7.88673210144043,-7.365092277526855,-7.537933349609375,-173.35304260253906,-74.97563934326172,110.8655242919922,-3.804045200347901,1.2414155006408691,2.0896053314208984
466.5552821159363,-178.39361572265625,-66.91419982910156,-64.60160064697266,-0.9961093664169312,-0.6268197298049927,0.7982540130615234,-114.27474975585938,-73.29237365722656,-44.85991287231445,-2.399996757507324,0.8718503713607788,-7.174595832824707,-24.7022705078125,57.47791290283203,-30.028377532958984,10.039068222045898,-5.487648010253906,-6.6894636154174805,-112.04078674316406,-42.81985092163086,-98.24569702148438,-12.06591796875,-20.21878433227539,-7.495431900024414,-164.52606201171875,-75.14738464355469,105.21746063232422,-0.2577157616615295,2.553011417388916,-0.7641353607177734
466.5842754840851,-176.09864807128906,-70.94670104980469,-68.4074935913086,-0.0274281688034534,-1.6900465488433838,1.0883245468139648,-80.14698791503906,-72.62874603271484,-77.70610046386719,-3.378790855407715,-3.750925540924072,-6.7655792236328125,-9.89592742919922,60.63658142089844,-25.832841873168945,8.187372207641602,-6.75130558013916,-4.694273948669434,-96.05650329589844,-43.915775299072266,-112.9843292236328,-9.730741500854492,-16.223709106445312,-4.53642463684082,-158.5525665283203,-76.0445556640625,101.8750457763672,-0.4008092284202575,2.034679412841797,-4.694411277770996
466.6238858699799,-173.46029663085938,-74.62374114990234,-72.57964324951172,0.153229534626007,-1.1315724849700928,-0.2051715850830078,-58.06047439575195,-69.80760955810547,-104.00146484375,-7.067826271057129,-7.535046577453613,-5.375965118408203,0.7859731912612915,62.38107299804688,-23.761125564575195,2.344432830810547,-5.187477111816406,-2.534848690032959,-81.6788330078125,-44.563926696777344,-121.38206481933594,-9.134563446044922,-8.478046417236328,-8.628753662109375,-154.43505859375,-77.17882537841797,100.47818756103516,-2.216176986694336,0.5215641260147095,-4.389309883117676
466.6745457649231,-170.55958557128906,-77.92739868164062,-75.55778503417969,1.4913341999053955,-0.9050101041793824,-1.644923210144043,-50.26974105834961,-66.77574920654297,-120.50284576416016,-13.322633743286133,-7.524803161621094,-2.8771414756774902,5.593979835510254,62.79877471923828,-25.160001754760746,0.4938027858734131,-5.880279541015625,-2.539146423339844,-72.79425811767578,-45.812103271484375,-123.32159423828124,-5.503260612487793,-11.342845916748049,-10.829462051391602,-151.6512451171875,-78.51593780517578,100.3281021118164,-2.9030661582946777,-0.6776835918426514,-4.2303972244262695
466.70423913002014,-169.2530975341797,-80.68502044677734,-75.1074447631836,0.7228989601135254,-1.665212869644165,-2.125820636749268,-48.133750915527344,-64.08395385742188,-129.18048095703125,-13.176143646240234,-2.8230204582214355,-4.277677536010742,4.512436389923096,62.697872161865234,-33.46821975708008,-2.366936206817627,-4.685275077819824,-4.629376411437988,-70.94115447998047,-48.09588623046875,-124.01203155517578,-5.42203426361084,-8.445978164672852,-11.467849731445312,-148.09132385253906,-80.0761947631836,98.86473083496094,-1.4962544441223145,-0.9979995489120485,-5.76683521270752
466.7341976165772,-175.27725219726562,-82.51171875,-65.76787567138672,4.585511207580566,-0.503786563873291,-3.151383399963379,-47.67278289794922,-62.41263198852539,-131.5227508544922,-13.67124366760254,-6.520114898681641,-11.97214126586914,-1.6561393737792969,61.59171676635742,-48.84310150146485,-2.7096424102783203,-4.844919204711914,-6.849997520446777,-73.36229705810547,-50.74480056762695,-124.12657165527344,-5.445657730102539,-5.718186378479004,-10.525264739990234,-144.9657745361328,-81.34519958496094,97.22634887695312,0.6099295616149902,-0.6870222091674805,-6.244887351989746
466.7641997337341,174.87142944335938,-83.03443908691406,-51.02753829956055,3.861727237701416,1.1859219074249268,-2.42964506149292,-57.97356796264648,-64.50861358642578,-125.27136993408205,-19.989601135253903,-5.362170219421387,-13.573617935180664,-11.660076141357422,57.95636749267578,-69.02816772460938,-2.077223300933838,-1.0680737495422363,-10.031661987304688,-76.94184112548828,-53.45662689208984,-123.1810302734375,-4.224885940551758,-5.088654518127441,-9.41692352294922,-147.19862365722656,-82.27452850341797,100.05120849609376,1.195329666137695,-1.2537755966186523,-3.5122594833374023
466.794394493103,165.3331756591797,-82.77762603759766,-38.48494720458984,-0.0345044732093811,0.8333357572555542,-0.1302576065063476,-78.71109771728516,-68.52235412597656,-108.35799407958984,1.5679216384887695,-12.66630744934082,-5.144135475158691,-24.40555000305176,50.50707244873047,-89.72364044189453,-3.0160226821899414,-8.094993591308594,-16.600723266601562,-80.51067352294922,-55.969120025634766,-121.48477935791016,-2.662233352661133,-6.514421463012695,-8.17209243774414,-154.00881958007812,-83.82057189941406,106.2011947631836,0.0938284993171691,-1.6231646537780762,0.4778261184692383
466.8249316215515,155.40940856933594,-82.27943420410156,-26.649044036865234,1.696030855178833,0.2186130881309509,1.9218416213989256,-92.96461486816406,-71.5326919555664,-93.34552001953124,7.808950424194336,-13.359519958496094,-2.4735608100891118,-35.86144256591797,40.6265983581543,-107.11976623535156,-8.60906982421875,-12.804004669189451,-23.34650421142578,-83.2307357788086,-58.04952621459961,-119.82129669189452,-1.737945318222046,-8.199613571166992,-6.45096492767334,-164.78085327148438,-85.27254486083984,115.91153717041016,0.5942682027816772,-3.0082273483276367,2.6202869415283203
466.854905128479,142.27854919433594,-81.90202331542969,-11.59109878540039,-1.5843491554260254,-1.0796079635620115,1.5880250930786133,-105.36570739746094,-74.26333618164062,-77.3133316040039,5.472002983093262,-7.859519958496094,4.474163055419922,-30.17679977416992,36.44058609008789,-120.34561157226562,-13.749296188354492,8.773113250732422,-12.34208869934082,-84.312255859375,-59.8133659362793,-118.56941986083984,-1.8773577213287356,-9.734683990478516,-3.438250541687012,-172.31353759765625,-86.4548110961914,123.00926208496094,0.492793321609497,-1.817396640777588,2.223918914794922
466.8839201927185,126.71380615234376,-80.96454620361328,4.094527244567871,1.6376574039459229,-0.4934793710708618,0.3983087539672851,-123.673828125,-73.27409362792969,-59.865264892578125,3.985309600830078,-1.620908498764038,13.333559036254885,-25.331737518310547,38.98448181152344,-114.13935089111328,-0.4611940383911133,11.86467742919922,-9.858789443969728,-86.7612533569336,-60.4204330444336,-115.79098510742188,-2.532281875610352,-10.614168167114258,-1.5515642166137695,179.39952087402344,-86.70967102050781,131.11398315429688,0.934444785118103,-1.370350360870361,0.37457275390625
466.9441719055176,113.41416931152344,-79.52754974365234,16.989709854125977,-0.240047812461853,0.8939127922058105,2.2927026748657227,-143.27049255371094,-70.80449676513672,-45.70976257324219,-2.8104705810546875,2.345794677734375,1.4241952896118164,-17.41954803466797,39.45394515991211,-91.849609375,-25.039283752441406,-3.484116554260254,-16.853553771972656,-98.3117446899414,-61.15655899047852,-108.93977355957033,-3.846499443054199,-14.27732276916504,-1.674701690673828,178.25637817382812,-85.91275787353516,131.5369110107422,2.6282849311828613,1.5249512195587158,1.695448875427246
466.97419714927673,97.7090835571289,-78.06488037109375,29.17759132385254,1.9699044227600095,0.5926657915115356,2.653148651123047,-149.806396484375,-71.75422668457031,-37.80247497558594,-0.2327786982059478,-2.112703323364258,4.065569877624512,-8.647151947021484,29.05258178710937,-69.04138946533203,-14.482227325439451,2.3837203979492188,-13.882347106933594,-122.52266693115234,-61.00493621826172,-101.17974853515624,1.9909534454345703,-5.475110054016113,1.748361587524414,-172.47425842285156,-84.88075256347656,120.13241577148438,5.209761619567871,4.255523681640625,2.3621692657470703
467.004198551178,72.56196594238281,-76.15876770019531,44.24466323852539,1.6214368343353271,6.439764022827148,1.309077262878418,-157.21871948242188,-72.76456451416016,-29.94808578491211,-0.6986004114151001,-1.7856559753417969,0.2359771728515625,-5.552324771881104,11.225457191467283,-51.85853576660156,-3.5567169189453125,-1.252807378768921,-9.486528396606444,-145.38671875,-59.50180816650391,-97.78341674804688,7.497913360595703,-1.0249834060668943,1.7807550430297852,-165.139892578125,-83.1112060546875,108.58091735839844,6.733912467956543,2.947547435760498,-2.236013412475586
467.0338399410248,61.59749603271485,-76.28286743164062,38.06636428833008,-5.247357368469238,28.37559127807617,-0.654606819152832,-165.97198486328125,-72.89933776855469,-21.492656707763672,-1.012903928756714,-2.044963836669922,-0.3684167861938476,-12.22181224822998,-8.467585563659668,-35.967918395996094,8.281457901000977,-1.796931266784668,-9.064666748046877,-154.64634704589844,-59.028804779052734,-98.6171646118164,6.779269218444824,-2.1401658058166504,1.5746831893920898,-158.73667907714844,-80.4254379272461,98.98767852783205,2.5329575538635254,0.2725691199302673,-0.8789501190185547
467.0648293495178,90.49945831298828,-75.06407165527344,-3.726973533630371,4.888446807861328,24.546630859375,7.307487487792969,-172.30010986328125,-72.27191162109375,-15.62576389312744,-0.8458914756774902,-3.158633232116699,-0.4150581359863281,-30.67672538757324,-24.620206832885746,-16.53324317932129,10.592350006103516,-1.1579923629760742,-0.5625810623168945,-148.99432373046875,-60.38715744018555,-101.52233123779295,-0.5202900171279907,3.964990615844727,0.8158884048461914,-152.58258056640625,-78.71267700195312,92.24310302734376,-1.6579077243804932,1.625927209854126,0.5334367752075195
467.1042230129242,119.96026611328124,-64.57904052734375,-36.69289779663086,3.463669776916504,11.565261840820312,5.6478776931762695,-175.83212280273438,-71.08060455322266,-13.403803825378418,-0.3138620853424072,-3.04946231842041,-0.6136226654052734,-55.428653717041016,-31.27947235107422,4.669521331787109,0.9332138299942015,0.8183697462081909,7.03727912902832,-142.79556274414062,-61.60249328613281,-104.23619079589844,-6.3475494384765625,2.440051555633545,2.5393123626708984,-149.83665466308594,-77.84844207763672,89.42768096923828,2.39912223815918,3.681598663330078,0.3577747344970703
467.1251332759857,134.93270874023438,-51.05561065673828,-51.159400939941406,2.058004856109619,1.8289451599121092,-1.647573471069336,-177.1334991455078,-70.00654602050781,-13.280084609985352,0.6219258308410645,-1.7068641185760498,0.2063798904418945,-70.84359741210938,-27.774293899536133,18.643253326416016,-6.853481292724609,3.0088419914245605,7.708375930786133,-141.3260498046875,-62.129764556884766,-103.81573486328124,-3.370349884033203,0.2564073204994201,2.5364789962768555,-148.81446838378906,-77.6064682006836,87.73461151123047,6.4211835861206055,3.6735997200012207,1.7107419967651367
467.15502095222473,145.00289916992188,-38.573486328125,-59.37128448486328,-0.1005589216947555,-4.645098686218262,-8.229717254638672,-176.6927947998047,-69.79510498046875,-12.948915481567385,0.5387771129608154,-1.295684814453125,-0.1601381301879882,-77.92996978759766,-18.65062141418457,22.795654296875,-3.1271543502807617,1.7329530715942385,6.070061683654785,-140.54190063476562,-62.73554229736328,-100.7545394897461,-2.360603809356689,-2.792512893676758,0.519139289855957,-150.5341796875,-78.52313995361328,88.16175079345703,3.347425937652588,1.733515739440918,-1.665186882019043
467.18411564826965,152.9224853515625,-29.708290100097656,-64.29420471191406,1.5833637714385986,-7.183862686157227,-16.63454818725586,-176.81417846679688,-69.79540252685547,-11.38185214996338,0.2791333198547363,-0.5838961601257324,-0.2055931091308593,-82.55805206298828,-10.0509614944458,21.55406188964844,-0.4144677519798279,-1.846451997756958,3.959019660949707,-140.445068359375,-63.94550323486328,-96.04792785644533,-0.9468681812286376,-4.261201858520508,-1.319671630859375,-154.67051696777344,-79.17274475097656,90.74925231933594,0.5611038208007812,0.6535604000091553,-3.918487548828125
467.24399495124817,163.5962371826172,-25.631511688232425,-68.32518768310547,1.984576940536499,-4.255805015563965,-5.384163856506348,-177.7101287841797,-68.8143539428711,-9.424673080444336,-0.1788443922996521,-0.8712559938430786,0.28594970703125,-87.4788589477539,-5.5063676834106445,18.7541561126709,-0.1622190475463867,-3.7557120323181152,2.5536489486694336,-140.66831970214844,-65.66487884521484,-90.3798828125,-0.2489737570285797,-4.4571685791015625,-3.0117435455322266,-153.82110595703125,-78.83397674560547,90.43816375732422,-0.4118762612342834,0.6543617248535156,-2.934230327606201
467.2743158340454,167.0394744873047,-25.753498077392575,-72.18135070800781,-7.674564361572266,-9.680356979370115,6.601205825805664,-178.18075561523438,-67.80047607421875,-7.574014663696289,1.2611799240112305,-1.830949544906616,2.281458854675293,-87.81552124023438,-9.54828643798828,18.572803497314453,0.4728991985321045,-1.6593225002288818,1.9713401794433596,-141.02664184570312,-67.73973846435547,-84.93677520751953,-0.3352372050285339,-5.68995475769043,-3.375955581665039,-149.6721649169922,-77.84563446044922,87.50365447998047,2.1569972038269043,0.9369077682495116,-3.978832244873047
467.304425239563,163.9217529296875,-26.718786239624023,-72.74826049804688,-6.925202369689941,-13.03445053100586,-0.2795658111572265,-177.19357299804688,-66.48242950439453,-7.110175132751465,-0.3368747234344482,-4.623503684997559,-3.940939903259277,-80.48787689208984,-23.291580200195312,22.557138442993164,7.701888084411621,0.5279667377471924,3.622563362121582,-141.7959747314453,-70.01603698730469,-79.94636535644531,-0.6964226961135864,-5.344733238220215,-3.5032505989074707,-145.60128784179688,-76.41278076171875,83.99974822998047,3.892889499664306,1.4558186531066897,-0.6376924514770508
467.3349645137787,169.72804260253906,-28.94663619995117,-70.45658874511719,13.200225830078123,-15.018068313598633,-10.633195877075195,-177.50527954101562,-65.19625854492188,-6.325874328613281,-1.5974078178405762,-3.0417556762695312,-0.504420280456543,-67.01338958740234,-40.1376838684082,26.440711975097656,20.649314880371094,7.027636528015137,20.20154571533203,-142.49615478515625,-72.71319580078125,-74.09403991699219,1.317927598953247,-7.966024398803711,-1.123692512512207,-144.36093139648438,-75.49156188964844,82.38269805908203,0.4420058131217956,1.7876780033111572,1.6381921768188477
467.36527848243713,177.42803955078125,-32.601802825927734,-69.19435119628906,-5.990328788757324,-14.559261322021484,12.385082244873049,-177.72056579589844,-64.56000518798828,-5.029984951019287,1.129768133163452,-2.103233337402344,1.6483745574951172,-58.570838928222656,-41.446533203125,25.272680282592773,29.787220001220703,15.22144889831543,6.605474472045898,-141.22776794433594,-77.97647857666016,-62.45650100708008,4.2642107009887695,-5.481744766235352,4.887358665466309,-144.51956176757812,-75.38133239746094,82.92564392089844,-4.036407470703125,0.6647825241088867,5.843218803405762
467.3942849636078,175.3279571533203,-34.533905029296875,-70.33078002929688,0.7185386419296265,-16.891780853271484,7.022981643676758,-179.3404083251953,-64.96128845214844,-2.3051462173461914,-1.23382306098938,-1.5368494987487793,1.0596685409545898,-70.90774536132812,-31.02499771118164,27.11327743530273,12.315399169921877,-0.8408775329589844,18.85442352294922,171.6105194091797,-81.97796630859375,12.436065673828123,-11.026453018188477,-19.078872680664062,13.40855598449707,-142.53292846679688,-76.87478637695312,82.21336364746094,-0.5079988241195679,2.6263070106506348,6.833948135375977
467.4248423576355,173.60293579101562,-32.89214324951172,-70.53541564941406,-2.0526623725891118,-16.475662231445312,10.934782028198242,178.6992950439453,-66.38084411621094,0.2107635587453842,-2.287764072418213,-2.679043292999268,-0.3633003234863281,-72.84786987304688,-22.76899528503418,26.986909866333008,17.5909423828125,1.8916287422180176,-1.846522331237793,142.14266967773438,-69.98382568359375,55.43266677856445,-3.500533103942871,-30.676654815673828,17.427169799804688,-145.8336639404297,-76.90746307373047,86.19395446777344,7.214611053466797,5.452154159545898,3.325593948364258
467.4544327259064,171.2206268310547,-29.4146785736084,-68.91144561767578,0.1462999582290649,-18.211963653564453,7.635623931884766,176.84860229492188,-68.04254913330078,1.1920242309570312,-1.617318868637085,-2.923611640930176,-0.0133743286132812,-75.44082641601562,-17.715129852294922,22.819204330444336,9.816610336303713,-2.963452816009521,-5.530948638916016,132.93511962890625,-53.92961883544922,61.69839859008789,-0.3029394149780273,-19.444698333740234,11.774606704711914,-152.10325622558594,-77.20215606689453,91.31351470947266,2.9950246810913086,1.5944128036499023,4.393274307250977
467.48478746414185,166.76609802246094,-27.30875396728516,-67.08737182617188,3.434602737426758,-13.474336624145508,-4.867856979370117,174.70059204101562,-69.5894546508789,0.8080832362174988,-0.3354494571685791,-1.9421870708465576,0.8016147613525391,-79.47174835205078,-17.38251495361328,16.030717849731445,2.305605411529541,-5.282057762145996,-4.423316955566406,124.88658142089844,-34.57982635498047,61.79783630371094,1.7956349849700928,-17.64862823486328,12.605581283569336,-159.19546508789062,-77.46168518066406,96.80841827392578,-0.057808943092823,0.6200613975524902,1.526494026184082
467.54501366615295,166.4703369140625,-27.54446220397949,-64.96300506591797,7.901498794555664,0.984596848487854,-3.543572425842285,171.16798400878906,-71.86941528320312,2.0853888988494877,-0.0356097668409347,-0.7048549652099609,1.165543556213379,-81.4010238647461,-22.308443069458008,8.236530303955078,-0.412605881690979,-4.243138313293457,-0.8620223999023438,114.9413604736328,-13.75821590423584,58.97685241699219,4.541435241699219,-1.1905131340026855,8.464717864990234,-165.34791564941406,-78.04230499267578,101.92765808105467,0.7549571990966797,1.0901870727539062,-0.4386863708496094
467.5740025043488,167.8135528564453,-28.61264419555664,-64.44570922851562,-3.9722800254821777,-2.611855983734131,2.134252548217773,166.0514373779297,-74.88082885742188,6.370851516723633,-0.1401390135288238,-0.9586504697799684,0.6632404327392578,-80.85636901855469,-31.239341735839844,-0.107290893793106,-0.5631372928619385,-4.409398078918457,-1.0788507461547852,102.77416229248048,4.455554485321045,54.821434020996094,2.463377952575684,4.961973190307617,1.2146224975585938,-170.76693725585938,-78.12578582763672,106.67789459228516,2.037841320037842,2.610054016113281,-1.305546760559082
467.6044850349426,162.82815551757812,-32.731719970703125,-64.63158416748047,-2.0792298316955566,-4.685674667358398,-7.027240753173828,159.04847717285156,-78.1274185180664,13.414139747619627,-0.0013135715853422,-3.0669403076171875,-0.1548004150390625,-78.93563842773438,-41.80009841918945,-9.024551391601562,-3.4542460441589355,-2.629998683929444,1.1440629959106443,89.20765686035156,17.910320281982422,50.38821792602539,-5.200385093688965,7.1884965896606445,-0.4822597503662109,-175.3246307373047,-78.24877166748047,110.90245056152344,2.131467819213867,1.918285846710205,-2.493285655975342
467.6349940299988,156.07508850097656,-39.26920318603516,-64.47651672363281,-0.8605884313583374,-1.7469594478607178,-5.535821914672852,149.37176513671875,-81.03336334228516,23.38528823852539,0.3829360008239746,-3.091959953308105,-1.138392448425293,-75.42300415039062,-51.793251037597656,-19.097848892211918,-4.780595779418945,-0.9578070640563964,2.045520782470703,73.14238739013672,27.015745162963867,45.6357307434082,-9.51543426513672,9.803304672241213,-4.892786026000977,179.37022399902344,-78.10314178466797,115.81745910644533,0.5901515483856201,0.1210198551416397,-3.797956943511963
467.6641070842743,150.06118774414062,-47.72642135620117,-63.963340759277344,1.4166624546051023,-1.369636058807373,-7.367641448974609,137.08160400390625,-83.20953369140625,36.34069061279297,0.270763635635376,-2.5298213958740234,-1.5300579071044922,-68.05597686767578,-59.89199066162109,-31.92011070251465,-6.069277763366699,-0.1354372501373291,1.542414665222168,58.16603469848633,32.62984085083008,41.74489974975586,-3.447521209716797,-0.2647629380226135,-11.847732543945312,174.6505584716797,-77.70127868652344,120.02140045166016,0.7861368656158447,0.2967206835746765,-3.585916519165039
467.6941614151001,145.72499084472656,-57.77607727050781,-62.53912353515625,1.9725074768066408,-2.628770351409912,-5.411125183105469,128.28785705566406,-84.5229263305664,45.56084442138672,0.8367334604263306,-3.454949378967285,-2.5495734214782715,-59.351810455322266,-65.08934783935547,-47.425567626953125,-6.541409492492676,0.3656270503997803,-1.3493928909301758,53.27364730834961,35.707027435302734,41.6661491394043,0.269330084323883,-6.190695762634277,-12.743606567382812,171.2474365234375,-77.70610046386719,122.7460708618164,2.733561515808105,1.2324833869934082,-3.506106376647949
467.7392475605011,143.02711486816406,-69.2923355102539,-58.52838897705078,1.813535451889038,-1.820357084274292,0.2598657608032226,132.85543823242188,-85.04872131347656,39.92275619506836,0.6116207838058472,-2.754450798034668,-2.25685453414917,-52.64995193481445,-67.4142837524414,-62.54837417602539,-8.612884521484375,2.851461887359619,-2.1913161277771,57.23763656616211,36.55218505859375,46.9359130859375,2.624122142791748,-5.542435646057129,-12.029001235961914,170.04710388183594,-77.94795227050781,123.2375030517578,2.7140493392944336,0.6771912574768066,-3.531642436981201
467.7545385360718,133.21420288085938,-80.11555480957031,-42.62639236450195,0.006643027998507,6.668396949768066,5.282073020935059,149.66748046875,-84.95321655273438,22.4465274810791,1.6117761135101318,-3.009181022644043,0.3403053283691406,-45.19022750854492,-68.34876251220703,-75.2577896118164,-6.2975263595581055,5.239240646362305,-4.283841133117676,64.11114501953125,34.87757873535156,58.663841247558594,0.628695011138916,0.8170516490936279,-10.88620376586914,172.35977172851562,-78.24877166748047,120.9481201171875,2.501577377319336,-0.2553995251655578,-1.2662725448608398
467.7845380306244,77.42064666748047,-84.06878662109375,21.43275451660156,-2.4704909324646,14.208026885986328,4.133866310119629,167.8954315185547,-83.89735412597656,3.419883728027344,0.0011278882157057,-0.955418348312378,-0.0851659774780273,-40.77024841308594,-69.55529022216797,-82.59054565429688,-5.231667518615723,5.649576187133789,-7.908459663391113,65.01737976074219,29.362287521362305,74.58988952636719,-8.885568618774414,10.096454620361328,-12.118946075439451,179.37106323242188,-79.1882095336914,114.90325164794922,1.7936897277832031,0.2212048470973968,-0.778416633605957
467.8140621185303,56.83092498779297,-80.98365783691406,49.1616325378418,-9.105550765991213,21.402324676513672,-6.78240966796875,-178.16168212890625,-82.17095184326172,-11.55105209350586,-0.6118189096450806,-2.538003921508789,-1.1493616104125977,-40.21518325805664,-72.36258697509766,-83.10836791992188,-2.5616660118103027,7.383652687072754,-4.621786117553711,53.68893814086914,21.792943954467773,90.09034729003906,-5.010672569274902,15.064882278442385,-11.079353332519531,-166.2518768310547,-80.05416870117188,102.66574096679688,3.7051286697387695,0.4920103549957275,0.3435468673706054
467.87396144866943,68.8488540649414,-80.96510314941406,37.094486236572266,-1.6161417961120603,16.53893280029297,-4.682796478271484,-167.66769409179688,-80.6214370727539,-22.409543991088867,-0.9045028686523438,-2.624253749847412,1.0866756439208984,-42.35047912597656,-76.10661315917969,-77.83345031738281,-1.3597161769866943,6.565435409545898,-2.0548081398010254,47.66069030761719,17.168691635131836,95.6021499633789,-6.888550758361816,2.087885856628418,-4.755098342895508,-152.5942840576172,-80.08285522460938,91.11669158935548,4.806136131286621,0.9888564348220824,0.0129995346069335
467.9041695594788,96.17250061035156,-82.34490966796875,7.516770839691162,14.11024284362793,-6.496009826660156,2.6486377716064453,-156.5692901611328,-79.90338897705078,-33.09354782104492,-0.8055890798568726,-1.9592087268829343,2.4328737258911133,-46.02956771850586,-79.33805084228516,-68.73704528808594,-0.3957986831665039,4.472318649291992,3.446738243103028,57.70365905761719,19.074201583862305,88.47341918945312,-0.3378250002861023,1.9125878810882568,-9.87434196472168,-146.60223388671875,-80.32585906982422,84.59326171875,2.8719263076782227,3.136368751525879,0.260782241821289
467.9346318244934,119.40008544921876,-81.08648681640625,-15.658087730407717,2.9890694618225098,-9.743755340576172,16.733867645263672,-145.52735900878906,-79.48216247558594,-44.002662658691406,0.7424957752227783,-1.2231292724609375,3.576369285583496,-45.802772521972656,-81.38081359863281,-63.46030044555664,2.0886125564575195,2.9258041381835938,7.511785507202148,64.4907455444336,24.036130905151367,78.64495086669922,-6.818639755249023,2.699369430541992,5.789035797119141,-147.26348876953125,-79.53266143798828,83.71432495117188,1.6768124103546145,-1.9783079624176023,3.213846206665039
467.9646277427673,143.27989196777344,-78.22893524169922,-33.2083854675293,-13.677696228027344,-1.173741102218628,2.539661407470703,-132.34718322753906,-78.81377410888672,-55.90630722045898,2.222438335418701,-3.4059886932373047,3.081795692443848,-43.90815353393555,-81.86148834228516,-63.65637969970703,2.71133804321289,0.1537277698516845,7.378755569458008,62.841068267822266,28.35964012145996,63.22719192504883,3.256654739379883,3.6854891777038574,-3.573682308197021,-149.11146545410156,-79.30598449707031,84.17882537841797,1.6043190956115725,0.7219202518463135,-0.0764102935791015
467.9946291446686,152.6854705810547,-75.97826385498047,-41.49272918701172,-0.5095739364624023,2.54482650756836,-0.3453254699707031,-119.06497955322266,-77.22062683105469,-68.59052276611328,2.3148694038391118,-9.173151016235352,4.418490409851074,-51.338470458984375,-80.24337005615234,-58.488582611083984,0.5839625597000122,-0.7070715427398682,4.706664085388184,63.57117462158203,30.827503204345703,43.98434829711914,-4.662891387939453,10.30624008178711,1.3131046295166016,-155.4224395751953,-79.03389739990234,90.61003875732422,-2.819278717041016,-0.9717942476272584,-1.0289268493652344
468.0247902870178,162.22080993652344,-74.34175872802734,-48.480560302734375,1.6195659637451172,0.2160474061965942,0.8819246292114258,-118.70882415771484,-73.93891143798828,-69.16144561767578,-11.636089324951172,-16.735469818115234,-4.721906661987305,-58.77347183227539,-77.31700897216797,-52.31031799316406,-1.4122378826141355,-2.0776267051696777,2.780233383178711,56.32219314575195,30.64004135131836,22.915943145751957,0.749954104423523,9.69059944152832,-0.7483158111572266,-160.8578338623047,-77.07813262939453,99.2472686767578,-5.111519813537598,-3.5324020385742188,-0.709355354309082
468.05418848991394,169.96775817871094,-72.95973205566406,-52.95079803466797,-0.2809875011444092,-0.009235331788659,1.091329574584961,-141.72911071777344,-67.35511016845703,-50.605899810791016,-25.572925567626957,-14.715147018432615,2.4526071548461914,-62.60129928588867,-74.5250015258789,-47.86722946166992,-1.2781319618225098,-3.790594577789306,-1.162363052368164,43.0496940612793,28.240535736083984,1.5683361291885376,6.164216995239258,-2.8059329986572266,-7.686892509460449,-163.79640197753906,-74.76869201660156,105.45945739746094,-3.094166755676269,-1.1503024101257324,1.209456443786621
468.08433413505554,173.33746337890625,-72.23649597167969,-55.58868789672852,-1.418203353881836,-1.2148559093475342,1.2626543045043943,-163.37696838378906,-57.41782379150391,-36.43457794189453,-6.95897102355957,-4.385512351989746,4.141122817993164,-67.35087585449219,-72.29193115234375,-43.30179214477539,-1.553262710571289,-4.518309593200684,-3.9010181427001953,33.25177001953125,25.234691619873047,-17.436080932617188,4.599955558776856,-22.55537796020508,-7.418628692626953,-163.54739379882812,-73.3552017211914,107.69475555419922,-1.9873762130737305,0.6140130758285522,2.9078054428100586
468.1448929309845,175.44894409179688,-72.0530014038086,-58.43023300170898,-1.0459134578704834,-0.6744228601455688,0.5782594680786133,-167.94313049316406,-50.59913635253906,-27.8056755065918,-2.314202308654785,-2.1743721961975098,-7.544502258300781,-72.806396484375,-71.1805419921875,-39.01560592651367,-2.6784887313842773,-4.006866455078125,-4.451099395751953,36.479042053222656,24.864845275878903,-30.391098022460938,-12.685979843139648,-26.375709533691406,-7.391103744506836,-162.16000366210938,-73.0312728881836,107.82383728027344,-2.97059965133667,1.9927072525024412,1.9429302215576167
468.1742582321167,179.24876403808594,-72.23007202148438,-62.78223037719727,-2.050565242767334,-1.5213429927825928,0.8491239547729492,-168.6068572998047,-45.65963745117188,-21.261573791503903,-2.84041166305542,0.8407667875289917,-10.581241607666016,-78.61615753173828,-71.61442565917969,-34.683982849121094,-3.1389317512512207,-3.1341891288757324,-3.017585277557373,52.33797836303711,25.365602493286133,-34.62034606933594,-3.60915470123291,-0.9139783382415771,-9.28179931640625,-164.27914428710938,-72.64605712890625,110.2841339111328,-1.7553048133850098,2.646868705749512,2.314916610717773
468.20427417755127,-176.6483612060547,-72.52842712402344,-68.2035140991211,-0.8731735944747925,-0.9990054368972778,0.4305019378662109,-169.81350708007812,-42.2407455444336,-14.780362129211426,-2.5706534385681152,0.4780192375183105,-11.064233779907228,-84.56819152832031,-72.69607543945312,-30.935306549072266,-4.102703094482422,-2.5429859161376958,-0.2272653579711914,62.74605941772461,23.716144561767575,-34.69845962524414,4.234827041625977,4.446375846862793,-0.3689966201782226,-167.5150604248047,-73.15798950195312,112.514404296875,-0.5944116115570068,1.4442470073699951,0.0544414520263671
468.23425793647766,-173.36903381347656,-72.57263946533203,-73.3358383178711,0.1704432666301727,-1.5098226070404053,-0.1509618759155273,-174.36605834960938,-39.75041580200195,-7.746575355529785,-1.5511319637298584,0.5782029628753662,-6.786385536193848,-87.18753814697266,-73.02001953125,-30.63147354125977,-2.959463596343994,-1.8781983852386477,2.9343738555908203,69.4178695678711,19.860565185546875,-33.892913818359375,-2.215641975402832,1.6501760482788086,-7.156103134155273,-173.41152954101562,-73.99970245361328,117.04026794433594,-0.9052886962890624,1.5444841384887695,-3.2631216049194336
468.2642924785614,-171.2342071533203,-71.9024887084961,-76.81845092773438,2.2016401290893555,-1.881448745727539,-1.2585973739624023,178.4249725341797,-38.4577751159668,-0.2737501859664917,2.6869630813598637,0.4949369430541992,-0.7182865142822266,-86.96173095703125,-71.3224105834961,-34.828800201416016,-1.6386642456054688,-0.3695699572563171,1.3134584426879885,80.17045593261719,12.191451072692873,-35.12821578979492,2.339646816253662,2.2093324661254883,-6.150452613830566,177.74252319335938,-74.94029998779297,124.2155990600586,-0.7833281755447388,0.8322285413742065,-3.300211906433105
468.29429936409,-171.690673828125,-70.1889877319336,-76.8302001953125,3.976534366607666,-0.9871383905410768,-1.2699041366577148,171.52127075195312,-38.0113525390625,5.922488212585449,10.65489387512207,3.029904365539551,-0.4154071807861328,-85.630126953125,-68.16593933105469,-40.85455322265625,-1.542792558670044,1.888810157775879,-1.1352510452270508,91.5953598022461,0.6298295855522156,-39.510772705078125,7.207836151123047,-2.5550851821899414,-4.454522132873535,167.76544189453125,-76.27953338623047,132.2364501953125,-0.9886382818222046,-0.6661926507949829,-5.689796447753906
468.3240542411804,-174.59060668945312,-67.34033966064453,-73.73499298095703,5.604663848876953,-0.4860525131225586,-1.9019207954406736,169.80856323242188,-39.607051849365234,9.921533584594728,7.780447959899902,10.941455841064451,-0.8910436630249023,-82.47181701660156,-64.7804946899414,-46.68179702758789,-0.7994709014892578,2.615588665008545,-2.885351657867432,100.88768768310548,-15.150519371032717,-45.90580368041992,10.903615951538086,-9.301517486572266,8.962398529052734,157.1615753173828,-77.08753967285156,141.31350708007812,-1.0586626529693604,-1.931926250457764,-6.0730180740356445
468.3540451526642,-176.6400146484375,-63.73746871948242,-69.5922622680664,0.246220201253891,-1.0638368129730225,-0.0281076431274414,175.31556701660156,-39.69166564941406,10.33977508544922,-0.1772703528404235,1.0835888385772705,22.389305114746094,-75.0634536743164,-61.82069778442383,-52.21434020996094,1.175877332687378,3.813585758209229,-2.6311826705932617,96.0908660888672,-31.944286346435547,-51.462669372558594,-0.3741928339004516,-19.865161895751957,23.68415069580078,146.8336181640625,-77.44276428222656,151.37168884277344,-2.133374691009521,-1.0399587154388428,-0.2890300750732422
468.3844127655029,-178.84524536132812,-59.45054626464844,-65.64446258544922,2.01224946975708,0.1690652966499328,-0.8671941757202148,174.18577575683594,-38.46164321899414,10.248266220092772,9.721431732177734,1.007347583770752,0.4686918258666992,-68.58830261230469,-58.78094482421875,-55.35704803466797,0.5005122423171997,2.9103732109069824,-1.4556093215942385,80.65824127197266,-43.01664733886719,-49.28506851196289,4.236575126647949,-31.027664184570312,15.386842727661133,136.06483459472656,-77.66490173339844,161.7654571533203,1.9343032836914065,2.046095371246338,-1.637704849243164
468.45040678977966,-179.45921325683594,-55.41697311401367,-63.23790740966797,-1.015383005142212,-1.7031519412994385,0.6499872207641602,174.3402862548828,-37.82072448730469,9.869996070861816,14.001100540161133,5.552093505859375,6.584545135498047,-65.03416442871094,-55.48134994506836,-55.28116226196289,-1.5039191246032717,1.940395832061768,2.19595718383789,82.33264923095703,-39.088565826416016,-47.055694580078125,1.310594081878662,-15.499217987060549,-0.3620796203613281,129.7870635986328,-77.39875030517578,166.82830810546875,-1.8288874626159668,0.8852715492248535,3.204523086547852
468.47476029396057,-179.43678283691406,-52.60520935058594,-62.82731246948242,-1.5915398597717283,0.2853127121925354,1.4970388412475586,175.0594940185547,-36.46220397949219,8.617847442626953,14.853693008422852,3.176572322845459,9.861505508422852,-67.77753448486328,-49.93574523925781,-51.56880569458008,-4.281675338745117,7.551247596740723,11.901147842407228,89.46987915039062,-25.68113136291504,-46.46243667602539,13.800437927246094,-20.783004760742188,15.097843170166016,127.58541870117188,-76.39994812011719,168.3633575439453,-5.079377174377441,-1.3674602508544922,7.481565475463867
468.5045714378357,-178.87054443359375,-51.39315032958984,-63.70174789428711,-0.1937669515609741,0.4438332319259643,1.9118328094482424,175.98196411132812,-34.51155471801758,7.144059658050537,18.455158233642575,3.8404483795166016,7.284784317016602,-68.82273864746094,-41.89468765258789,-46.86905288696289,-6.483576774597168,12.338220596313477,20.58604431152344,91.52902221679688,-10.495735168457031,-43.083290100097656,21.016681671142575,-16.255313873291016,1.242447853088379,131.26243591308594,-75.5455093383789,164.3155975341797,-0.5715914964675903,1.193993330001831,6.815206527709961
468.5343508720398,-177.97592163085938,-51.79027557373047,-64.42003631591797,0.8139442205429077,0.8747886419296265,1.5555963516235352,175.2139434814453,-35.198524475097656,4.661381244659424,11.853790283203123,-0.6827102899551392,1.7981901168823242,-62.80751037597656,-30.42393684387207,-44.4279899597168,1.3445816040039062,8.346944808959961,20.78039932250977,95.56868743896484,2.4022531509399414,-37.554988861083984,19.380672454833984,-5.956550598144531,-6.461030960083008,137.61329650878906,-74.44702911376953,157.3026580810547,0.2584887146949768,-0.5585429668426514,7.105953216552734
