Timestamp,D4:22:CD:00:05:5D_EulerX,D4:22:CD:00:05:5D_EulerY,D4:22:CD:00:05:5D_EulerZ,D4:22:CD:00:05:5D_FreeAccX,D4:22:CD:00:05:5D_FreeAccY,D4:22:CD:00:05:5D_FreeAccZ,D4:22:CD:00:05:5E_EulerX,D4:22:CD:00:05:5E_EulerY,D4:22:CD:00:05:5E_EulerZ,D4:22:CD:00:05:5E_FreeAccX,D4:22:CD:00:05:5E_FreeAccY,D4:22:CD:00:05:5E_FreeAccZ,D4:22:CD:00:05:6B_EulerX,D4:22:CD:00:05:6B_EulerY,D4:22:CD:00:05:6B_EulerZ,D4:22:CD:00:05:6B_FreeAccX,D4:22:CD:00:05:6B_FreeAccY,D4:22:CD:00:05:6B_FreeAccZ,D4:22:CD:00:05:6E_EulerX,D4:22:CD:00:05:6E_EulerY,D4:22:CD:00:05:6E_EulerZ,D4:22:CD:00:05:6E_FreeAccX,D4:22:CD:00:05:6E_FreeAccY,D4:22:CD:00:05:6E_FreeAccZ,D4:22:CD:00:49:AA_EulerX,D4:22:CD:00:49:AA_EulerY,D4:22:CD:00:49:AA_EulerZ,D4:22:CD:00:49:AA_FreeAccX,D4:22:CD:00:49:AA_FreeAccY,D4:22:CD:00:49:AA_FreeAccZ
1498.0140216350555,177.3821258544922,-53.22865295410156,178.39979553222656,-0.2790617346763611,-3.684307098388672,2.818023681640625,-162.86630249023438,-38.730350494384766,-45.93379211425781,16.554698944091797,-19.981273651123047,8.843717575073242,-75.78192138671875,-56.59931564331055,-77.19800567626953,-11.08553695678711,24.46935272216797,10.408565521240234,42.94416809082031,-26.67269897460937,15.298891067504885,32.805145263671875,-18.25688934326172,-22.14121627807617,128.3577880859375,-68.7052993774414,140.763671875,5.145282745361328,4.278848648071289,3.268217086791992
1498.025535821915,176.68017578125,-50.3337287902832,179.24229431152344,1.8550467491149905,1.2597708702087402,0.7307100296020508,-159.07566833496094,-30.59613037109375,-47.42197036743164,8.38205337524414,-27.71440887451172,9.424356460571287,-73.98932647705078,-47.05122375488281,-80.20623779296875,-3.649808406829834,21.30328750610352,9.84397315979004,58.08406066894531,-23.29823303222656,16.19651985168457,14.111757278442385,12.709630966186523,-5.211262702941895,127.35169219970705,-66.80960083007812,139.86497497558594,-3.555922031402588,-2.699587821960449,10.43494987487793
1498.0376062393188,177.6057586669922,-49.165626525878906,178.42852783203125,1.3714656829833984,1.2324974536895752,2.7752599716186523,-156.78558349609375,-23.44165802001953,-47.08731460571289,5.44512939453125,-18.248130798339844,11.290643692016602,-80.79853820800781,-34.94462203979492,-74.4068603515625,-0.8016881942749023,35.702842712402344,23.72348022460937,58.88295364379883,-18.99610137939453,17.132057189941406,21.506378173828125,10.899137496948242,0.8702325820922852,130.73448181152344,-66.05461120605469,136.63360595703125,-6.900398254394531,-3.9845495223999023,8.84058952331543
1498.077131986618,176.5088653564453,-54.28142166137695,-36.30817031860352,-2.316587448120117,0.5053759813308716,1.565998077392578,159.5127410888672,-68.56653594970703,7.304256439208984,-1.8790533542633057,-0.5844568014144897,6.087357521057129,-46.3137092590332,22.64133644104004,-81.939453125,12.09116554260254,7.751188278198242,15.451749801635742,-151.3702850341797,-76.50879669189453,-71.76190185546875,-2.8745388984680176,-2.147735118865967,15.233482360839844,-164.88766479492188,-71.54167175292969,90.3559341430664,4.595005035400391,0.7152154445648193,7.790870666503906
1498.107213973999,176.34718322753906,-53.052730560302734,-35.643917083740234,-2.823193073272705,-0.8997815847396851,1.837188720703125,159.4291229248047,-64.24769592285156,6.850452423095703,-1.1102187633514404,5.607160568237305,-2.055759906768799,-26.86566162109375,38.92230987548828,-66.46424865722656,10.331775665283203,-9.708772659301758,12.44184684753418,-161.06613159179688,-78.46746063232422,-59.65789031982422,-2.8284153938293457,-4.068887710571289,12.424041748046877,-177.19235229492188,-69.90557861328125,103.89684295654295,-2.357466220855713,1.5169618129730225,7.845203399658203
1498.1368935108185,176.3757781982422,-53.24401473999024,-35.88492202758789,-1.8200788497924805,-0.1193843036890029,2.1226119995117188,168.9223175048828,-68.77616119384766,0.0146810933947563,0.3318495750427246,6.033713340759277,-6.4735918045043945,-5.6443634033203125,40.1861572265625,-46.97394943237305,-0.2674484252929687,-14.341350555419922,8.811115264892578,-172.65272521972656,-84.45419311523438,-39.8878173828125,-10.489568710327148,-6.110295295715332,6.991989135742188,-173.08135986328125,-70.7223892211914,102.10627746582033,-6.360381126403809,3.7647628784179688,10.797910690307615
1498.1968913078308,176.2915802001953,-55.28031921386719,-36.0244255065918,-1.0525963306427002,2.307470798492432,3.452109336853028,-177.13128662109375,-77.69715118408203,-10.59128475189209,1.1574656963348389,8.675174713134766,-9.029476165771484,8.567963600158691,36.22491455078125,-38.63777923583984,-5.30861759185791,-16.835140228271484,6.7056732177734375,160.2794952392578,-86.4417953491211,-1.078464150428772,-11.038179397583008,-15.2540283203125,2.1264543533325195,-158.30076599121094,-74.3062973022461,92.56238555908205,-4.7788801193237305,2.181931495666504,6.244941711425781
1498.2269608974457,175.90045166015625,-59.59148025512695,-34.56404495239258,-1.1154797077178955,0.212051659822464,6.287448883056641,-104.59029388427734,-85.1269760131836,-80.8131332397461,-2.722418785095215,5.856268882751465,-9.51520538330078,20.63549423217773,34.89699172973633,-37.796199798583984,-9.784751892089844,-15.862979888916016,0.1307353973388672,120.00148010253906,-86.72811126708984,56.01515197753906,-6.179365158081055,-16.325759887695312,2.528491973876953,-137.47752380371094,-76.30243682861328,79.34456634521484,-0.3732076287269592,1.4961347579956057,1.7735090255737305
1498.2566154003143,173.67819213867188,-64.70425415039062,-31.051856994628903,7.456136703491211,-6.308506011962891,10.706193923950195,-42.96001434326172,-78.80496978759766,-146.21710205078125,-7.160930633544922,4.236852645874023,-10.065753936767578,28.507421493530277,35.65766143798828,-37.45814514160156,-9.332685470581056,-8.62333869934082,-4.537382125854492,109.39495849609376,-85.78407287597656,87.51532745361328,-7.497768402099609,-13.664188385009766,-5.656929969787598,-122.49161529541016,-76.50341033935547,69.55073547363281,0.3523804545402527,0.4258776307106018,-3.6729774475097656
1498.286652803421,165.12376403808594,-71.23656463623047,-29.083864212036133,-0.2651680707931518,-2.601713180541992,-0.6847372055053711,-34.31051254272461,-71.47212219238281,-161.33706665039062,-11.258415222167969,2.090452194213867,-6.785349845886231,27.24510765075684,36.50475311279297,-35.403690338134766,-8.655033111572266,0.0539119243621826,-5.044261932373047,150.0009307861328,-84.18736267089844,65.95665740966797,-1.020758867263794,-13.763795852661133,-9.647150039672852,-117.44818878173828,-76.02220916748047,68.94419860839844,2.940368175506592,2.1112351417541504,-6.554576873779297
1498.3163964748385,160.43617248535156,-71.9137954711914,-26.784088134765625,0.7515996694564819,11.227388381958008,-7.643579483032227,-33.385440826416016,-65.94136810302734,-168.2929229736328,-10.930927276611328,1.2947473526000977,-4.017157554626465,21.53494453430176,37.97245788574219,-34.24457550048828,-3.1488137245178223,-1.018805980682373,-6.663270950317383,174.6420440673828,-79.6053237915039,45.61244201660156,2.529900074005127,-10.920085906982422,-12.556386947631836,-117.3798370361328,-76.84001159667969,69.3194351196289,5.092755317687988,2.795614719390869,-10.570974349975586
1498.3467502593994,164.02223205566406,-72.12211608886719,-23.674152374267575,9.074151992797852,-0.8107246160507202,-10.982088088989258,-33.54753875732422,-61.49110794067383,-170.93463134765625,-9.05226707458496,5.90868091583252,-8.295461654663086,15.325474739074709,41.10189056396485,-35.097442626953125,-1.7729291915893557,-4.704019546508789,-9.57147216796875,172.59402465820312,-72.8553695678711,38.928524017333984,0.169441819190979,-7.353462219238281,-12.47517204284668,-109.54733276367188,-79.16378784179688,60.82772064208984,1.2071330547332764,1.0867462158203125,-8.97354507446289
1498.3768315315249,168.51821899414062,-75.07845306396484,-22.597431182861328,4.310056686401367,4.035482406616211,-9.705448150634766,-32.2678108215332,-58.86158752441406,-171.75222778320312,-10.522321701049805,-1.227799892425537,-10.809736251831056,11.940091133117676,46.88127899169922,-40.8792724609375,0.2771430015563965,-2.9885730743408203,-12.197309494018556,164.67922973632812,-66.15418243408203,34.288124084472656,1.6312217712402344,-4.119124412536621,-9.290199279785156,-90.40213775634766,-81.2711410522461,41.72357177734375,-3.3987364768981934,0.4336773753166199,-10.564523696899414
1498.4069559574127,172.00711059570312,-76.43865203857422,-24.130146026611328,-15.269109725952148,0.6281555891036987,-1.852155685424805,-37.63374710083008,-59.76054382324219,-168.74525451660156,-17.110801696777344,1.8602409362792969,-14.396867752075195,7.286234378814697,53.90805816650391,-56.62336349487305,5.603714942932129,6.513736724853516,-11.094879150390623,156.63072204589844,-61.56858444213867,31.862642288208008,2.407912254333496,-2.6622538566589355,-7.685286521911621,-76.88087463378906,-82.00792694091797,29.10641860961914,-3.115576267242432,0.2131373584270477,-10.839916229248049
1498.436642885208,168.86236572265625,-73.14868927001953,-21.33314514160156,-4.891144752502441,-9.861616134643556,-1.7635984420776367,-58.187870025634766,-64.50187683105469,-154.97755432128906,-13.184967041015623,1.5599040985107422,-7.745904922485352,-11.815677642822266,56.76762771606445,-87.24404907226562,-0.2398271560668945,-2.194063186645508,-19.202224731445312,152.1422119140625,-59.258426666259766,30.745479583740234,5.103530883789063,-0.4935356974601745,-6.544032096862793,-67.6920394897461,-82.9742660522461,20.72429084777832,0.3030927181243896,-3.581418514251709,-3.834778308868408
1498.4963283538818,165.6686248779297,-69.47737121582031,-15.576539039611816,1.9202685356140137,-6.497184753417969,0.8034448623657227,-87.76526641845703,-68.02092742919922,-128.60472106933594,-26.802398681640625,7.605192184448242,-1.3767051696777344,-29.648441314697266,49.45320129394531,-120.18152618408205,-15.963663101196287,-20.218585968017575,-40.82789611816406,152.1137237548828,-59.52561950683594,31.03317642211914,8.216686248779297,0.487489104270935,-6.169997215270996,-51.79114532470703,-83.61426544189453,4.351388931274414,0.9457764625549316,-1.1945013999938965,-0.7194185256958008
1498.5264356136322,163.51046752929688,-66.08504486083984,-8.335363388061523,1.743039846420288,-0.4594840407371521,0.6732959747314453,-106.7649383544922,-68.603271484375,-107.21411895751952,4.723502159118652,-16.008132934570312,-1.10687255859375,-29.58816719055176,44.8765983581543,-128.04159545898438,6.77745532989502,7.560166358947754,-9.836151123046877,156.68783569335938,-62.06842803955078,31.874980926513672,6.441706657409668,2.012223243713379,-1.7091350555419922,-43.21709060668945,-84.70779418945312,-4.643392086029053,-1.082885503768921,0.39228355884552,-1.555864334106445
1498.5568134784698,160.87063598632812,-64.03224182128906,-3.2656142711639404,-1.735736608505249,5.038026809692383,2.71817398071289,-118.35394287109376,-68.85147857666016,-93.29602813720705,9.20547103881836,-16.451595306396484,24.87045669555664,-42.848514556884766,50.182716369628906,-112.47857666015624,1.249000072479248,8.862768173217773,-10.977333068847656,163.448486328125,-62.7456283569336,32.29865264892578,7.410305976867676,-1.2847492694854736,4.122525215148926,-32.30082702636719,-87.58548736572266,-16.95993995666504,-1.13975191116333,-1.274961233139038,4.907434463500977
1498.586918592453,156.5091094970703,-63.705474853515625,0.8894064426422119,0.7718865871429443,3.5416407585144043,4.5584211349487305,-131.94046020507812,-66.964599609375,-83.44073486328125,-2.9502029418945312,3.343076229095459,1.6364154815673828,-33.22638702392578,58.09502029418945,-91.157958984375,-22.283958435058597,-19.23590850830078,-5.851261138916016,161.6603546142578,-59.551246643066406,34.919464111328125,21.793479919433597,-6.043740272521973,5.242034912109375,14.612176895141602,-88.41242980957031,-65.6438217163086,-0.0082427095621824,-3.3662028312683105,8.576570510864258
1498.6166684627533,150.90255737304688,-63.24267578125,5.998167991638184,6.88310432434082,-2.118861198425293,7.0104827880859375,-136.251708984375,-66.25318908691406,-78.4083480834961,-2.5334720611572266,9.891397476196287,5.615851402282715,-0.8252259492874146,58.855098724365234,-62.81838607788086,5.797294616699219,-3.482921600341797,-13.859638214111328,146.3196258544922,-55.0495719909668,39.64093017578125,15.275283813476562,2.900579929351806,6.903953552246094,51.61587524414063,-88.58722686767578,-103.08902740478516,-1.0300664901733398,-5.542933464050293,8.189800262451172
1498.646282196045,145.43124389648438,-62.69084548950195,10.806148529052734,-0.2649073004722595,-0.1378925144672393,4.562162399291992,-143.34165954589844,-66.64939880371094,-72.86962127685547,-0.0180076546967029,-1.2065308094024658,2.5919132232666016,15.821292877197266,50.58143615722656,-40.62198257446289,-2.7788400650024414,-3.698590278625488,-4.124717712402344,130.72195434570312,-51.56411743164063,43.920997619628906,11.679435729980469,9.862543106079102,4.227664947509766,120.36109161376952,-89.04264068603516,-171.59132385253906,3.143986701965332,0.410835325717926,4.347559928894043
1498.6769275665283,138.50108337402344,-63.046661376953125,14.608755111694336,1.019906759262085,1.5445680618286133,4.687893867492676,-151.0558319091797,-67.24674224853516,-66.5879898071289,-2.307363986968994,-1.6072571277618408,0.0452833175659179,21.70635223388672,38.94731521606445,-30.56946563720703,-5.608519554138184,0.6977465152740479,5.645868301391602,120.95719909667967,-49.31162643432617,49.3140983581543,8.862798690795898,9.491273880004885,-0.8737258911132812,162.36114501953125,-88.83500671386719,143.7822265625,6.433847427368164,7.685471534729004,1.401808738708496
1498.7066514492035,127.87008666992188,-65.56414031982422,19.85999870300293,5.193870544433594,2.544983386993408,4.858487129211426,-157.900634765625,-67.49388122558594,-61.373321533203125,-0.1103391796350479,-3.506654739379883,0.3765497207641601,20.599164962768555,27.12828063964844,-24.77035140991211,-0.2354054450988769,9.38445281982422,5.416287422180176,114.26454162597656,-46.61568069458008,54.48521423339844,0.881667971611023,5.190317153930664,0.0754671096801757,171.19754028320312,-86.96437072753906,130.12277221679688,7.781624794006348,2.3887672424316406,-1.6023616790771484
1498.736520767212,118.52429962158205,-65.91920471191406,18.960485458374023,-8.832498550415039,20.00086212158203,-1.6138410568237305,-161.85202026367188,-69.4462890625,-56.88641357421875,-1.914357662200928,-3.0739731788635254,-0.0759201049804687,7.089160442352295,15.789694786071776,-19.359840393066406,1.3718667030334473,14.218376159667969,9.209514617919922,107.0810546875,-43.57590866088867,56.932861328125,-4.113550186157227,5.576901435852051,-2.282383441925049,-179.77357482910156,-84.58141326904297,117.37835693359376,2.312884330749512,-1.1191117763519287,-0.0312232971191406
1498.7966542243958,124.66349029541016,-61.34233856201172,4.420355319976807,-8.935827255249023,25.61460876464844,5.486573219299316,-165.5159149169922,-71.66959381103516,-52.763702392578125,0.6128735542297363,-4.019570350646973,0.4746341705322265,-6.442953109741211,7.07849645614624,-12.750890731811523,-1.4936504364013672,-10.81243133544922,9.210668563842772,103.80476379394533,-41.4106674194336,56.67701721191406,-6.77794361114502,4.945048332214356,-5.519134521484375,-175.5199737548828,-82.9686279296875,110.93213653564452,0.1437114477157592,-1.1088471412658691,-0.7262954711914062
1498.826565027237,133.55389404296875,-52.56166458129883,-11.17621898651123,-3.336742877960205,11.403465270996094,1.3390436172485352,-166.1585235595703,-74.09402465820312,-48.32112503051758,-0.6651215553283691,-0.5137044191360474,-0.907806396484375,-7.782504558563232,2.6715850830078125,-5.056930065155029,5.879790306091309,0.0658216476440429,12.966178894042969,104.26763153076172,-40.58787155151367,54.84856414794922,-6.355374336242676,3.4032974243164062,-5.232251167297363,-171.1493682861328,-82.66976928710938,107.11035919189452,1.4059081077575684,1.7611677646636963,1.0460119247436523
1498.8580486774445,142.8394012451172,-42.116092681884766,-22.355886459350582,1.8216474056243896,6.384067535400391,-9.186033248901367,-165.82447814941406,-73.68376922607422,-46.438743591308594,0.9097779989242554,-2.45808744430542,-0.3707237243652344,-16.289220809936523,1.516155242919922,2.814858675003052,-0.1586532592773437,14.47495460510254,0.3369569778442383,105.58580780029295,-40.68172836303711,52.74088668823242,-3.8436765670776367,2.4120564460754395,-2.8556370735168457,-167.45138549804688,-82.2416763305664,104.02621459960938,2.470320701599121,3.5590386390686035,-0.3686561584472656
1498.8866539001465,152.6297149658203,-32.88531494140625,-30.49747085571289,0.7645673751831055,-1.006886005401611,-10.868633270263672,-163.50494384765625,-71.0247573852539,-48.11516189575195,-0.547431230545044,-1.7257978916168213,-3.8479232788085938,-23.618595123291016,0.246906891465187,8.165106773376465,-2.89888334274292,1.563807487487793,-0.1515111923217773,105.338134765625,-40.49952697753906,51.997467041015625,0.7881495952606201,1.335991382598877,-1.0328493118286133,-165.70469665527344,-82.06791687011719,102.01155090332033,3.2000937461853027,0.6389176845550537,-4.40924072265625
1498.9166560173037,160.3200225830078,-26.693071365356445,-36.262943267822266,-0.1041196435689926,-0.671839714050293,-10.670625686645508,-161.58445739746094,-66.97698974609375,-51.754150390625,-1.185950517654419,-5.60966682434082,-2.052040100097656,-24.5729923248291,-5.361152172088623,8.522517204284668,-6.059392929077148,8.662656784057617,-14.0894775390625,103.44524383544922,-39.30873107910156,54.70398712158203,5.854536056518555,2.2140698432922363,-1.9589996337890625,-163.1000213623047,-81.26760864257812,100.62005615234376,1.1120774745941162,-1.870316982269287,-6.966549873352051
1498.946689605713,164.4998321533203,-24.73367500305176,-41.4563102722168,-1.5815322399139404,-8.956853866577148,-8.75529670715332,-163.36766052246094,-61.60561752319336,-55.39411163330078,-7.469490051269531,3.09171724319458,-6.846039772033691,-24.62816047668457,-17.956886291503906,5.548018932342529,0.4629340171813965,5.882929801940918,-17.02880096435547,102.5527572631836,-37.32093048095703,61.67378234863281,6.78265380859375,3.727992057800293,-5.681884765625,-161.63490295410156,-80.67081451416016,101.3635482788086,1.293639898300171,0.1948742270469665,-5.850225448608398
1498.9767529964447,161.0243682861328,-27.460996627807617,-45.46852111816406,1.5615346431732178,-16.707645416259766,-11.184741973876951,-165.66148376464844,-56.7435302734375,-57.2513427734375,-2.16422176361084,-11.695865631103516,2.9153308868408203,-17.56520652770996,-37.1357536315918,-1.900875806808472,11.704397201538086,1.76301908493042,-8.485574722290039,102.47614288330078,-34.929447174072266,71.63936614990234,5.393764495849609,4.175069808959961,-3.141786575317383,-159.5943603515625,-80.61112976074219,99.73333740234376,4.871843338012695,3.364731311798096,-5.040108680725098
1499.0070674419403,155.8574676513672,-29.763458251953125,-48.31418228149414,1.995823621749878,-8.465835571289062,23.936309814453125,-167.4559783935547,-51.38834762573242,-58.96163558959961,1.0727221965789795,-1.306243658065796,2.48673152923584,4.986893653869629,-56.24698638916016,-21.9096794128418,25.44226837158203,3.298457145690918,30.35406494140625,103.72669982910156,-31.295076370239254,83.431396484375,6.698056221008301,4.220268249511719,0.5308752059936523,-158.03553771972656,-80.14105224609375,95.41317749023438,7.0344743728637695,1.813255786895752,-0.6155881881713867
1499.0369777679443,159.3363800048828,-29.86933898925781,-48.42919921875,10.489501953125,-18.58775329589844,-1.1796255111694336,-169.8474578857422,-49.04887390136719,-57.92362594604492,0.6384181976318359,-1.3751370906829834,2.433513641357422,22.05960273742676,-58.93834686279297,-44.557655334472656,7.332123756408691,-13.410247802734377,23.565643310546875,105.83965301513672,-25.818511962890625,96.3987045288086,8.327533721923828,2.594285488128662,12.925651550292969,-161.36264038085938,-79.9231185913086,95.95117950439452,-9.713212966918944,-5.729375839233398,0.4584550857543945
1499.0963063240051,165.45037841796875,-25.72537612915039,-46.92327117919922,1.637122392654419,-25.42662811279297,15.327041625976562,-171.69827270507812,-48.85823822021485,-55.76683807373047,-1.6337060928344729,-1.7219274044036863,1.463425636291504,19.72954559326172,-54.90886306762695,-38.386329650878906,33.09259033203125,-0.0202360153198242,5.6848649978637695,108.0740966796875,-19.180646896362305,108.78263854980467,16.981571197509766,5.6798906326293945,11.477144241333008,-166.9333953857422,-77.46723937988281,100.66746520996094,2.16910457611084,-1.9531378746032717,12.369462966918944
1499.1267805099487,163.93324279785156,-17.869478225708008,-45.383819580078125,14.798135757446287,-15.101089477539062,13.86016845703125,-173.40737915039062,-50.52864456176758,-53.69261932373047,-1.770660161972046,-1.32198166847229,2.2884302139282227,0.8358895778656006,-50.32773971557617,-23.657440185546875,29.453556060791016,-4.937309265136719,1.0797033309936523,113.76197814941406,-9.861749649047852,119.53705596923828,23.371990203857425,1.0102338790893557,7.801109313964844,-167.6009063720703,-76.3210220336914,100.46681213378906,5.830039978027344,2.8235979080200195,7.617837905883789
1499.158781528473,159.0204315185547,-10.020471572875977,-46.692012786865234,9.712968826293944,-14.842769622802734,10.950553894042969,-175.82945251464844,-53.93195343017578,-51.24281692504883,-0.1992891728878021,-2.1935343742370605,3.605243682861328,-21.44699478149414,-44.29123306274414,-15.278602600097656,7.96827220916748,-15.023963928222656,9.630210876464844,112.13372039794922,5.230692863464356,127.0625457763672,29.836990356445312,11.21969223022461,9.588542938232422,-172.4031219482422,-76.04238891601562,103.82371520996094,2.011000633239746,3.847029209136963,10.13865852355957
1499.1869206428528,154.48838806152344,-4.089104175567627,-49.13960647583008,2.0339841842651367,-8.948810577392578,1.368732452392578,-179.03976440429688,-59.256290435791016,-47.4716682434082,0.9740099906921388,-4.093750953674316,7.5753173828125,-30.220537185668945,-39.03278350830078,-16.738819122314453,8.07725715637207,-7.894433975219727,7.008293151855469,103.6376953125,21.84270668029785,136.06765747070312,8.716882705688477,20.5283203125,9.55435562133789,-177.92286682128906,-75.87335968017578,107.63326263427734,3.244673728942871,1.183861255645752,8.511123657226562
1499.21652674675,155.15936279296875,-1.7466294765472412,-51.34297561645508,-2.142369270324707,-2.1439085006713867,-6.489222526550293,179.1295623779297,-67.02288818359375,-43.40373992919922,3.845696926116944,-10.703655242919922,7.91499137878418,-37.27391815185547,-38.03239822387695,-22.507980346679688,5.303073883056641,-4.942794799804688,-0.53448486328125,91.52296447753906,33.67207336425781,145.4300994873047,1.099031686782837,8.693319320678711,5.350269317626953,177.36936950683594,-75.14705657958984,110.7957534790039,6.571647644042969,3.4725537300109863,7.843887329101562
1499.2469310760498,157.4180908203125,-4.214505195617676,-53.24484252929688,-5.662126541137695,-0.6580817699432373,-11.296712875366213,-177.4508514404297,-75.13172912597656,-41.328861236572266,4.113863945007324,-1.7925121784210205,-0.9930438995361328,-45.60314178466797,-42.84055709838867,-29.66989517211914,0.2878262996673584,-5.175457954406738,3.253293991088867,84.85226440429688,41.22798538208008,152.05911254882812,-1.596934795379639,0.5770646333694458,6.347614288330078,170.49290466308594,-75.34846496582031,115.69815826416016,1.0939223766326904,2.877908706665039,6.001434326171875
1499.2769303321838,157.6201171875,-11.411030769348145,-54.4030876159668,-4.928094863891602,-2.457610607147217,-14.559478759765623,-170.7339630126953,-78.9740982055664,-44.68766021728516,-15.41537094116211,7.427704811096191,-5.691991806030273,-49.277156829833984,-51.50313949584961,-38.20939254760742,-4.477043151855469,-1.2856385707855225,5.504398345947266,84.47606658935547,46.61544418334961,157.0361785888672,-3.7806315422058105,0.4614940881729126,2.3981246948242188,164.2357635498047,-75.43024444580078,121.13069152832033,-1.120954990386963,0.2185797989368438,-1.674983024597168
1499.30695104599,155.55152893066406,-22.48744010925293,-54.298946380615234,-2.00048303604126,-5.816798210144043,-15.137924194335938,-164.9007568359375,-77.3656997680664,-52.102840423583984,-7.179813385009766,0.9327088594436646,-7.120526313781738,-49.94679641723633,-61.22527694702149,-47.43361282348633,-8.163400650024414,-0.1079885959625244,-0.9665441513061525,87.02162170410156,49.5408935546875,163.09835815429688,-3.1291909217834477,1.1014776229858398,-5.48680591583252,158.46742248535156,-75.1265869140625,126.72764587402344,1.9589698314666748,-0.2512521147727966,-4.886805534362793
1499.3366024494171,152.64645385742188,-36.04117202758789,-53.34000778198242,0.8426053524017334,-7.952548027038574,-12.58107566833496,-169.1282958984375,-73.02252197265625,-55.17861175537109,-1.1866834163665771,-3.398276329040528,-12.013673782348633,-49.21610641479492,-70.44695281982422,-55.159454345703125,-8.44618034362793,5.560687065124512,-4.584932327270508,88.87018585205078,50.76357269287109,169.3127899169922,-4.304950714111328,-2.5218663215637207,-6.538668632507324,150.63238525390625,-75.71853637695312,133.57789611816406,1.8985753059387207,1.081784963607788,-9.442365646362305
1499.3967456817627,150.3974609375,-51.0863037109375,-51.481719970703125,2.932878017425537,-6.068978309631348,-5.827651023864746,-173.720458984375,-71.01387023925781,-58.83671951293945,0.2958803176879883,-1.4624106884002686,-11.257869720458984,-40.40514373779297,-77.30351257324219,-64.84737396240234,-6.028548240661621,6.076418876647949,-8.479312896728516,90.15315246582033,49.66504287719727,173.1913604736328,-2.553682804107666,-2.63930892944336,-8.376585006713867,141.72650146484375,-76.40261840820312,140.12448120117188,0.0248607322573661,1.717929124832153,-10.647884368896484
1499.426688671112,146.73541259765625,-68.04084777832031,-46.5599250793457,3.413246154785156,-4.637357711791992,7.314180374145508,-176.11351013183594,-69.7430191040039,-60.04118728637695,-6.973699569702148,19.07602310180664,-1.2348651885986328,-25.69608497619629,-82.140625,-78.49658203125,-3.247365474700928,4.1477766036987305,-8.783889770507812,90.38384246826172,44.93174362182617,175.19229125976562,-5.670238494873047,-0.4585379958152771,-11.150575637817385,132.59190368652344,-77.6236572265625,146.1475067138672,-0.9923814535140992,-0.2738030552864074,-10.431100845336914
1499.4570541381836,105.06233978271484,-84.71187591552734,-1.8293077945709229,2.9382152557373047,6.318589210510254,19.94076538085937,-176.32276916503906,-66.04357147216797,-60.16525268554688,8.283552169799805,-7.548972129821777,-5.310547828674316,-7.445054054260254,-85.00659942626953,-98.13084411621094,-0.2001183032989502,4.952634811401367,-8.69398307800293,90.82144165039062,36.62575912475586,176.61300659179688,-16.4832763671875,0.5372403860092163,-14.105276107788086,126.76373291015624,-78.70491790771484,150.20716857910156,0.1607045531272888,1.105360746383667,-10.73797607421875
1499.4860417842865,16.464780807495117,-77.41862487792969,96.26355743408205,-3.8857555389404297,20.256614685058597,-1.428730010986328,-176.04177856445312,-61.32682037353516,-62.4917221069336,3.302162170410156,-6.585443496704102,-0.2794208526611328,17.081911087036133,-85.3424301147461,-124.56959533691406,-0.0925815105438232,5.019054412841797,-8.757648468017578,92.3001480102539,28.78240776062012,177.74061584472656,-20.284652709960938,1.1344563961029053,-13.615768432617188,121.4421615600586,-79.29718780517578,153.12139892578125,0.1260407865047454,-1.013516902923584,-9.00338363647461
1499.517391204834,13.117433547973633,-71.66175079345703,101.05691528320312,-21.859294891357425,8.919179916381836,-17.781517028808594,-177.4197540283203,-55.00892639160156,-66.52001190185547,-0.2460600435733795,-12.585823059082031,3.171996116638184,26.81292724609375,-84.05651092529297,-136.51768493652344,1.1274898052215576,4.033395767211914,-7.796354293823242,95.28598022460938,28.70793342590332,178.56776428222656,-5.220690727233887,-4.176478385925293,-4.180069923400879,114.09513092041016,-80.17269134521484,158.10205078125,0.9391423463821412,-5.052122116088867,-5.704679489135742
1499.5464565753937,15.69676685333252,-72.59607696533203,92.69510650634766,3.26133394241333,11.099185943603516,-6.118138313293457,-175.58828735351562,-50.808692932128906,-69.03810119628906,-4.865362167358398,-1.0996923446655271,2.0832910537719727,24.99409484863281,-82.54854583740234,-139.6769256591797,1.9911978244781492,3.747547149658203,-7.071104049682617,100.05754089355467,37.17184829711914,178.01470947265625,2.6638050079345703,-1.7414746284484863,-10.838117599487305,115.38561248779295,-80.95047760009766,154.96800231933594,0.1005765795707702,-2.2494993209838867,0.948833465576172
1499.576591014862,42.07932662963867,-74.80904388427734,72.26896667480469,2.2839818000793457,9.291698455810549,-0.93023681640625,-172.65760803222656,-50.43148422241211,-71.56269073486328,-0.95798921585083,-3.696544647216797,6.091683387756348,24.23891258239746,-81.1810302734375,-145.83946228027344,0.3945486545562744,3.4890761375427246,-1.4350299835205078,111.86427307128906,50.404693603515625,-179.19798278808594,-7.63892650604248,2.499044418334961,-9.742897033691406,122.72991943359376,-81.39549255371094,148.42958068847656,-1.343327522277832,1.15295672416687,1.7373065948486328
1499.6066811084747,80.44163513183594,-74.8584213256836,44.65571594238281,-2.559912204742432,11.29490089416504,0.5672235488891602,-169.92689514160156,-51.0902099609375,-74.75788116455078,2.7443556785583496,-7.14438533782959,8.672342300415039,29.67499351501465,-80.98627471923828,-158.6045684814453,-1.986536979675293,2.485482215881348,3.4832868576049805,125.38326263427734,65.7442626953125,-168.74476623535156,-6.281309127807617,7.171091079711914,-8.234241485595703,130.8695068359375,-81.7830810546875,141.54415893554688,7.230058670043945,3.3344268798828125,9.578866958618164
1499.6368153095243,108.46050262451172,-73.83708953857422,20.14825820922852,8.709007263183594,-10.284465789794922,7.510471343994141,-165.83999633789062,-53.18620681762695,-77.04894256591797,2.505453109741211,-5.824418067932129,5.819292068481445,48.49004364013672,-82.48188018798828,176.34747314453125,-1.556326150894165,6.265423774719238,11.969112396240234,158.67591857910156,78.45726013183594,-134.6619110107422,1.9237067699432373,6.906949996948242,-9.361806869506836,137.21237182617188,-82.4552230834961,135.55184936523438,8.993762969970703,3.3118605613708496,10.78508758544922
1499.6969714164734,114.193603515625,-75.7071533203125,6.46833086013794,20.19652938842773,-1.2190635204315186,2.939830780029297,-159.0623779296875,-55.94817733764648,-80.97894287109375,-2.417348861694336,-11.308565139770508,5.755027770996094,81.93218994140625,-83.15691375732422,143.3181610107422,0.5804038047790527,9.750892639160156,14.713058471679688,-125.46016693115234,77.02284240722656,-61.27103805541992,7.847828865051269,3.5141477584838867,-3.5546951293945312,143.66317749023438,-82.27706909179688,129.40927124023438,1.912024974822998,0.1548839509487152,8.205997467041016
1499.726737499237,125.93326568603516,-77.3801040649414,-5.140502452850342,0.1860767602920532,-12.834699630737305,10.91025161743164,-153.33938598632812,-59.69926834106445,-85.801025390625,-7.189359664916992,-5.907676696777344,-6.774222373962402,119.53038787841795,-83.78463745117188,115.2394027709961,0.4128468036651611,6.076606750488281,13.378498077392578,-89.73902130126953,67.75022888183594,-34.479736328125,10.848726272583008,-6.834393501281738,6.930080413818359,148.2969207763672,-82.01298522949219,127.2673568725586,-1.8177649974823,-2.161552906036377,3.6744518280029297
1499.7567048072815,140.10226440429688,-77.61722564697266,-12.873199462890623,-5.704226493835449,-3.27440881729126,0.7093801498413086,-143.27256774902344,-62.03154754638672,-86.58354187011719,-24.71488571166992,3.875326156616211,-2.31212854385376,-179.9007568359375,-85.74034881591797,68.39984893798828,1.2569165229797363,1.469210863113403,10.344196319580078,-62.485836029052734,60.86290740966797,-21.414005279541016,4.119453430175781,-9.52924919128418,3.866448402404785,152.44244384765625,-80.69033813476562,128.20632934570312,-2.6287856101989746,-4.063260078430176,-0.22552490234375
1499.7868349552157,152.8540802001953,-78.64742279052734,-21.38078498840332,-3.837353229522705,-2.923286437988281,2.4427976608276367,-134.61212158203125,-61.51955032348633,-80.99129486083984,-22.598987579345703,2.9338855743408203,1.3099365234375,-102.6108627319336,-83.63986206054688,4.415176868438721,4.5760698318481445,0.5223283767700195,2.467916488647461,-31.79938125610352,57.531837463378906,-10.157136917114258,3.920531749725342,-8.973155975341797,-0.1813364028930664,155.1062469482422,-79.546142578125,132.1018524169922,-3.9476356506347656,-2.6570067405700684,-3.720125198364258
1499.8161821365356,162.24205017089844,-79.75439453125,-32.70960235595703,3.772646427154541,1.6941401958465576,-0.6960430145263672,-140.8384552001953,-57.2976188659668,-67.595703125,-19.14593505859375,-4.499149322509766,-5.210389137268066,-79.60049438476562,-81.66417694091797,-6.68826150894165,12.57491683959961,-2.576549530029297,-5.399637222290039,-2.544903516769409,54.96735763549805,2.4106576442718506,4.723298072814941,1.5829827785491943,-5.34547233581543,162.20709228515625,-79.15473175048828,131.6375274658203,-1.455430507659912,0.0757280886173248,-4.117911338806152
1499.8467552661896,173.725341796875,-80.16742706298828,-42.277442932128906,0.8726224899291992,0.9313241243362428,0.5666618347167969,-153.2858428955078,-51.2958869934082,-52.53047943115234,-7.396668434143066,-0.3679470419883728,-6.78099536895752,-77.63140869140625,-79.17568969726562,-4.0428853034973145,5.596390724182129,1.6551194190979004,-4.906578063964844,19.97473526000977,51.35906982421875,17.764802932739258,6.387145042419434,1.3055224418640137,-4.057928085327148,169.12991333007812,-78.4168701171875,127.9119873046875,5.027228355407715,7.531359672546387,-1.7310504913330078
1499.8769438266754,-174.99464416503906,-80.49539947509766,-52.61864471435547,-3.6780266761779785,-3.5268049240112305,0.6837148666381836,-159.353271484375,-45.58245086669922,-41.39201736450195,-0.8626741170883179,2.2964234352111816,-7.931036949157715,-82.66175079345703,-77.51632690429688,-2.155187129974365,-3.2266736030578613,-2.548825263977051,-1.8136696815490725,36.78628540039063,44.25038146972656,32.32624053955078,9.108161926269531,2.017120361328125,-3.4179201126098637,169.52919006347656,-76.03401947021484,127.57915496826172,-1.200752019882202,2.417041301727295,-0.1792879104614257
1499.9069366455078,-161.4673309326172,-80.4800033569336,-68.1699447631836,-3.076934337615967,-2.461380958557129,0.5495643615722656,-162.76577758789062,-41.113468170166016,-33.42570495605469,0.4656808972358703,0.5251625776290894,-9.431625366210938,-81.93431854248047,-76.41514587402344,-5.519743919372559,-13.800325393676758,-5.9382829666137695,2.711371421813965,49.13765335083008,33.829010009765625,44.647945404052734,8.348522186279297,3.93733549118042,-3.839921951293945,167.67152404785156,-73.88900756835938,128.5963592529297,-6.95595645904541,0.6602952480316162,1.8876733779907229
1499.936583995819,-150.3734130859375,-79.91291046142578,-83.33480072021484,-2.038252830505371,-1.9580495357513428,-0.4352350234985351,-166.54922485351562,-38.24006271362305,-27.59591484069824,2.2014355659484863,-0.5535742044448853,-8.106954574584961,-68.69720458984375,-75.29656982421875,-14.586444854736328,-5.99245548248291,-5.303830146789551,-1.4026422500610352,56.847286224365234,18.876989364624023,54.62477493286133,10.869695663452148,8.955673217773438,-9.550983428955078,165.96868896484375,-72.61630249023438,129.1863250732422,-3.205989360809326,0.8627101182937622,-0.7932882308959961
1499.9970664978027,-149.9595947265625,-78.72392272949219,-89.96741485595703,2.7169790267944336,-1.95337986946106,-2.122432231903076,-171.86474609375,-36.52749633789063,-24.079015731811523,6.655744552612305,-2.557478427886963,-1.887723922729492,-57.08985137939453,-72.75862121582031,-23.85396385192871,0.8061898946762085,-3.164619445800781,-4.063248634338379,63.645301818847656,0.3347050845623016,62.24504470825195,14.045801162719728,21.99225234985352,-6.49950122833252,164.01815795898438,-71.88865661621094,130.77792358398438,-0.7854171991348267,0.1137669682502746,-3.952124118804932
1500.02676653862,-160.374755859375,-76.26797485351562,-84.39115905761719,9.612010955810549,-1.2170562744140625,-2.285073757171631,-175.26304626464844,-37.12576675415039,-24.92485237121582,9.817346572875977,4.58197021484375,4.228139877319336,-54.402339935302734,-68.45849609375,-31.65174865722656,2.643111228942871,-1.5010051727294922,-5.71845817565918,70.5234603881836,-17.217018127441406,66.68518829345703,12.181535720825195,24.44591522216797,9.24281120300293,160.3853302001953,-71.72115325927734,133.40574645996094,0.3355505466461181,0.5234518051147461,-7.019826889038086
1500.0567138195038,-168.29847717285156,-72.34333038330078,-74.6096420288086,4.9629974365234375,1.1803007125854492,-1.876719951629639,-175.69833374023438,-36.018001556396484,-28.40821075439453,17.145469665527344,-16.33098602294922,-7.378226280212402,-57.18806076049805,-62.12489318847656,-39.28418731689453,1.074410915374756,-1.3119792938232422,-6.316498756408691,74.48736572265625,-22.646238327026367,64.24531555175781,3.398369312286377,1.892916440963745,-6.361686706542969,154.76361083984375,-71.6036605834961,136.70846557617188,1.1163809299468994,1.5150635242462158,-7.572224617004394
1500.0867149829865,-174.21307373046875,-67.75037384033203,-65.04170989990234,-0.6737279891967773,-1.590733289718628,-0.3109655380249023,179.26771545410156,-38.80395126342773,-29.63602066040039,25.52436828613281,-4.426369667053223,5.76490592956543,-61.90636444091797,-53.61890411376953,-46.73765182495117,-0.775478720664978,-0.2597531676292419,-5.261179924011231,74.2469711303711,-23.64628791809082,59.259891510009766,6.993425369262695,8.179510116577148,-5.813397407531738,146.66311645507812,-71.52989196777344,142.88211059570312,-4.151561737060547,0.8599019050598145,-3.1358132362365723
1500.1160147190094,-179.22938537597656,-62.17706298828125,-56.2100715637207,2.052788257598877,-1.0100440979003906,-1.3929452896118164,179.5059814453125,-42.83898162841797,-27.5281925201416,18.6331787109375,-0.6909581422805786,14.151039123535156,-64.07349395751953,-43.312984466552734,-54.48602294921875,-1.7083778381347656,3.126727104187012,1.8006410598754885,77.405029296875,-24.460037231445312,57.65317153930664,6.614503860473633,8.698793411254883,-6.595236778259277,137.88641357421875,-71.70541381835938,151.25205993652344,-5.496599197387695,1.426358938217163,-0.9631919860839844
1500.147530078888,179.4720916748047,-56.2452507019043,-50.98175430297852,-1.2253642082214355,1.053886651992798,1.7724733352661133,177.65109252929688,-41.49654006958008,-28.14871025085449,7.034005165100098,-13.565446853637695,8.106300354003906,-58.19865036010742,-31.88777732849121,-64.53033447265625,0.9210727214813232,5.879275321960449,14.347957611083984,78.86393737792969,-25.77824211120605,56.46227645874024,7.553604125976562,9.39765739440918,-6.390130043029785,132.83517456054688,-71.35021209716797,156.7857208251953,0.5242916345596313,4.795702934265137,2.75913143157959
1500.1768507957458,179.54612731933594,-51.198490142822266,-49.26577758789063,-4.375527381896973,-3.655594348907471,2.634122848510742,179.7507781982422,-39.083457946777344,-30.536243438720703,7.286778450012207,-18.81441116333008,7.943925857543945,-50.25922393798828,-20.63995361328125,-75.77872467041016,9.030233383178713,6.245565414428711,18.114524841308597,81.53672790527344,-26.328676223754883,53.243263244628906,14.846935272216797,14.774574279785156,-1.3378429412841797,131.03817749023438,-70.64522552490234,159.84042358398438,-5.512112617492676,-3.3830103874206543,13.88673210144043
1500.2068588733673,179.4795379638672,-48.07003402709961,-47.23453521728516,-0.389253556728363,1.3462893962860107,2.044736862182617,-172.77772521972656,-36.75461959838867,-32.725494384765625,16.29620361328125,-19.494888305664062,2.349415779113769,-47.47412490844727,-8.06934642791748,-84.45274353027344,17.198322296142578,6.209131240844727,20.5523681640625,87.18415832519531,-27.34869956970215,48.77371597290039,19.545143127441406,17.056190490722656,7.430599212646484,133.42544555664062,-71.38695526123047,160.54901123046875,-8.937461853027344,-0.6272251605987549,13.008644104003906
