Timestamp,D4:22:CD:00:05:5D_EulerX,D4:22:CD:00:05:5D_EulerY,D4:22:CD:00:05:5D_EulerZ,D4:22:CD:00:05:5D_FreeAccX,D4:22:CD:00:05:5D_FreeAccY,D4:22:CD:00:05:5D_FreeAccZ,D4:22:CD:00:05:5E_EulerX,D4:22:CD:00:05:5E_EulerY,D4:22:CD:00:05:5E_EulerZ,D4:22:CD:00:05:5E_FreeAccX,D4:22:CD:00:05:5E_FreeAccY,D4:22:CD:00:05:5E_FreeAccZ,D4:22:CD:00:05:6B_EulerX,D4:22:CD:00:05:6B_EulerY,D4:22:CD:00:05:6B_EulerZ,D4:22:CD:00:05:6B_FreeAccX,D4:22:CD:00:05:6B_FreeAccY,D4:22:CD:00:05:6B_FreeAccZ,D4:22:CD:00:05:6E_EulerX,D4:22:CD:00:05:6E_EulerY,D4:22:CD:00:05:6E_EulerZ,D4:22:CD:00:05:6E_FreeAccX,D4:22:CD:00:05:6E_FreeAccY,D4:22:CD:00:05:6E_FreeAccZ,D4:22:CD:00:49:AA_EulerX,D4:22:CD:00:49:AA_EulerY,D4:22:CD:00:49:AA_EulerZ,D4:22:CD:00:49:AA_FreeAccX,D4:22:CD:00:49:AA_FreeAccY,D4:22:CD:00:49:AA_FreeAccZ
595.4563302993774,-178.631103515625,-51.4757080078125,-136.66102600097656,1.2172529697418213,0.378628671169281,1.625467300415039,-145.9856719970703,-11.050840377807615,-13.576385498046877,8.7330322265625,-3.986996650695801,-0.8364009857177734,-35.71323776245117,-15.303426742553713,-41.8314323425293,-4.948040962219238,-6.432771682739258,12.391519546508787,53.71824264526367,-50.67190170288086,69.10090637207031,-0.2056398689746856,16.147052764892578,6.791971206665039,148.4462432861328,-68.59761047363281,124.46226501464844,-2.864315986633301,-0.0893273949623107,9.049549102783203
595.4623274803162,-176.3132781982422,-53.86153411865234,-139.47662353515625,0.3632740378379822,1.499921798706055,2.4935455322265625,-146.30557250976562,-14.086634635925291,-14.967020988464355,2.9229812622070312,0.7483901977539062,-2.5452656745910645,-21.862140655517575,3.46768569946289,-31.36920547485352,-0.588313102722168,-4.905595779418945,2.7377872467041016,55.82427215576172,-57.76870346069336,76.55999755859375,-7.844914436340332,10.19757843017578,10.200088500976562,149.82192993164062,-70.30089569091797,123.76016235351562,-3.638561248779297,1.4172093868255615,8.069171905517578
595.5295557975769,-166.3429718017578,-75.751220703125,126.77285766601562,-0.7338383197784424,-1.25650954246521,-0.3509635925292969,176.25567626953125,-85.80866241455078,16.853662490844727,-38.35590362548828,3.952324867248535,10.997024536132812,172.37159729003906,-87.68861389160156,-81.92691802978516,4.396774291992188,1.221311330795288,-0.6068277359008789,13.37962245941162,-60.27481460571289,-152.20591735839844,-6.695965766906738,-11.916547775268556,19.78110885620117,-153.3148193359375,-78.67383575439453,70.99789428710938,1.020617961883545,-1.161238431930542,0.7199907302856445
595.5538556575775,-171.1501922607422,-72.38716125488281,132.4590606689453,0.285635232925415,-0.5607732534408569,-0.2658443450927734,-145.84754943847656,-41.48431015014648,-12.41871452331543,8.043006896972656,9.519115447998049,-6.38228702545166,-107.89158630371094,-82.75548553466797,-166.17857360839844,5.928829193115234,-1.91949200630188,-1.507375717163086,-28.68746757507324,-80.03549194335938,-107.1333236694336,3.9600539207458496,-8.465478897094727,25.339317321777344,-164.5552215576172,-78.51353454589844,80.69470977783203,0.8864611387252808,-0.4949090480804443,-2.010595321655273
595.584100484848,-174.85647583007812,-68.98051452636719,136.92884826660156,-1.5467140674591064,-0.5043644905090332,-0.7550010681152344,-130.4397735595703,-41.771522521972656,-21.79641532897949,12.24441909790039,0.4349343180656433,6.874147415161133,-91.46395874023438,-76.03610229492188,175.25050354003906,2.886078357696533,-5.235142707824707,-1.9229140281677248,116.22727966308594,-86.57377624511719,109.1128387451172,3.307028293609619,6.536767959594727,-2.303311347961426,-170.0509490966797,-79.01927185058594,85.26139831542969,1.0528559684753418,-0.3269626498222351,-2.8687310218811035
595.6433799266815,-177.0791778564453,-65.64645385742188,140.00942993164062,1.532453536987305,0.6750187873840332,0.4420318603515625,-124.1445083618164,-49.0244140625,-28.241256713867188,4.091948509216309,-6.037542343139648,11.237646102905272,-81.12059020996094,-68.29329681396484,162.90394592285156,2.359514713287353,-5.462603569030762,-1.4729070663452148,111.84232330322266,-76.08383178710938,118.43479919433594,3.081212520599365,4.066354751586914,5.69611930847168,-173.68345642089844,-80.05078887939453,89.74494171142578,-1.9855942726135252,-0.3251990675926208,2.1726884841918945
595.6737356185913,-179.12893676757812,-62.5206413269043,142.59071350097656,0.5440620183944702,-0.1211335062980651,0.1465950012207031,-126.69644165039062,-53.0844955444336,-28.576326370239254,4.127671241760254,-13.970767974853516,3.6631298065185542,-75.0760498046875,-58.051368713378906,156.56436157226562,9.209686279296877,-10.33176612854004,6.982198715209961,105.22755432128906,-72.58675384521484,127.66059112548828,0.2648898959159851,4.971566200256348,6.430397033691406,-174.3397674560547,-80.49237823486328,91.7805404663086,-2.241204261779785,0.7499265670776367,5.313523292541504
595.703325510025,179.8538818359375,-60.22155380249024,144.21856689453125,2.0286426544189453,0.1109808236360549,0.377903938293457,-133.84535217285156,-57.51389694213867,-22.3095703125,6.9878435134887695,-14.590742111206056,7.768913269042969,-71.21637725830078,-44.45186233520508,154.36502075195312,12.036062240600586,-22.068435668945312,18.495365142822266,99.09436798095705,-72.1236801147461,130.5183563232422,-0.1676628589630127,8.764001846313477,10.305086135864258,-175.55502319335938,-80.57698822021484,94.697021484375,2.8309311866760254,-1.933509826660156,4.453536987304688
595.7333307266235,179.68899536132812,-59.02278518676758,144.786376953125,2.286412239074707,-0.3773265480995178,1.7878713607788086,-140.2931365966797,-62.4497299194336,-13.05877685546875,13.148859024047852,-5.501930236816406,13.820564270019531,-59.60115432739258,-26.25245857238769,153.14886474609375,2.123415946960449,-17.618755340576172,29.464927673339844,100.1287612915039,-73.0536117553711,124.9338607788086,-3.797631740570069,4.565548896789551,10.607698440551758,-175.5602264404297,-80.59747314453125,95.6440887451172,2.848886489868164,-0.6899920701980591,10.652992248535156
595.7637128829956,-179.8832244873047,-59.42876815795898,144.52418518066406,2.574270248413086,0.1950456798076629,2.408940315246582,-142.82882690429688,-67.01676177978516,-7.799674034118652,-2.248386859893799,-8.658449172973633,8.326126098632812,-44.55107116699219,-3.630279779434204,154.87429809570312,-7.217390060424805,-0.7964878082275391,22.414112091064453,107.13397979736328,-76.21981048583984,112.52191925048828,-2.765744209289551,1.0997049808502195,12.556818008422852,-174.333740234375,-80.41957092285156,95.3028564453125,0.8308477401733398,-0.8109872341156006,7.984731674194336
595.7937359809875,-178.7039031982422,-61.397491455078125,143.15911865234375,1.8152287006378172,0.813265323638916,1.1697416305541992,-157.16207885742188,-68.36295318603516,1.5399610996246338,2.165433406829834,0.0157507322728633,6.20359992980957,-26.27434730529785,17.074562072753906,160.46559143066406,-10.236516952514648,7.581053733825684,7.569454193115234,123.06002807617188,-81.59678649902344,98.17412567138672,1.4059944152832031,0.7133173942565918,8.94460678100586,-171.56158447265625,-79.6272201538086,94.502685546875,-1.33410906791687,-2.990070343017578,6.067609786987305
595.8237581253052,-175.6256561279297,-64.3960189819336,139.9142303466797,2.6433024406433105,0.6155470609664917,2.472907066345215,-160.99818420410156,-71.80912017822266,6.018265724182129,-4.14202880859375,9.305078506469728,-1.7674741744995115,-5.075433254241943,32.54130935668945,168.43740844726562,-4.7848005294799805,10.81013298034668,-2.41173791885376,-162.858154296875,-87.68708801269531,38.68564987182617,4.987789154052734,-7.003966331481934,4.155341148376465,-165.15182495117188,-79.11729431152344,91.18852996826172,-2.3363561630249023,-2.221893310546875,4.625813484191895
595.8533685207367,-172.00729370117188,-68.98316192626953,136.83908081054688,2.204143047332764,1.6469712257385254,3.824849128723145,-152.82737731933594,-77.37869262695312,0.9054189324378968,-2.3306474685668945,9.911413192749023,-9.58171844482422,16.846830368041992,42.96126174926758,177.7530059814453,-0.5627601146697998,8.659353256225586,-7.408068656921387,-50.18109130859375,-82.92388153076172,-55.65469741821289,8.097476959228516,-9.278644561767578,-2.969428062438965,-153.32394409179688,-79.04170989990234,83.51280212402344,0.7010774612426758,-0.4820881485939026,1.2221899032592771
595.8839042186737,-169.67974853515625,-75.2446060180664,135.5372772216797,-5.109624862670898,2.361533164978028,8.132192611694336,-119.70801544189452,-82.6265869140625,-31.91209602355957,-0.5758887529373169,7.78292179107666,-13.862552642822266,33.44460678100586,49.37087631225586,-172.21827697753906,1.5535180568695068,5.701273918151856,-8.234540939331055,-25.074256896972656,-75.81021118164062,-64.23998260498047,9.882257461547852,-9.194190979003906,-9.998777389526367,-139.0433807373047,-78.20194244384766,74.711669921875,0.5604023933410645,-0.2843843698501587,-2.559875011444092
595.943678855896,-172.55177307128906,-80.62967681884766,133.43287658691406,-3.288154125213623,-1.4683384895324707,-0.9184770584106444,-54.76412582397461,-81.08672332763672,-99.62322998046876,-2.260458946228028,3.5236611366271973,-11.725580215454102,42.70442199707031,52.65509414672852,-163.45838928222656,5.570326805114746,3.666539669036865,-7.9967041015625,-10.017226219177246,-69.75260925292969,-65.14402770996094,9.863740921020508,-4.47673225402832,-11.923162460327148,-129.7300567626953,-76.49478149414062,70.22591400146484,1.2405226230621338,0.8977493047714233,-6.846344947814941
595.973680973053,175.85438537597656,-81.84324645996094,146.55267333984375,-3.502772808074951,-2.864449977874756,-8.351558685302734,-29.27908515930176,-73.0859375,-128.76486206054688,-5.795836448669434,-2.33670711517334,-7.578571319580078,46.4107551574707,54.598876953125,-159.87693786621094,4.05634880065918,1.415241241455078,-6.836020469665527,0.4570291042327881,-65.3108139038086,-65.33792114257812,9.891191482543944,-0.0990059524774551,-11.413549423217772,-124.1254425048828,-75.80384826660156,67.54953002929688,3.572997093200684,2.8833155632019043,-9.144973754882812
596.0032029151917,167.68927001953125,-82.68067169189453,160.6434326171875,-0.9515588283538818,-0.4684330224990845,-7.76664924621582,-22.27239799499512,-63.98313522338867,-139.708740234375,-10.213354110717772,-9.989192962646484,-3.898991584777832,45.16342544555664,56.79640579223633,-162.068603515625,1.0340077877044678,0.5128134489059448,-7.4320068359375,6.377588272094727,-62.24700546264648,-66.00922393798828,7.620131492614746,1.559546947479248,-9.364917755126951,-115.7566375732422,-76.49012756347656,62.027626037597656,-0.2432450056076049,1.4093332290649414,-8.844226837158203
596.0337882041931,160.93115234375,-83.32086181640625,170.86114501953125,9.24130630493164,-3.7132625579833984,-3.050405979156494,-21.920928955078125,-56.411277770996094,-143.32122802734375,-15.683712005615234,-11.79075050354004,-8.938484191894531,38.84674835205078,60.161415100097656,-172.09327697753906,-0.495073139667511,-2.485628604888916,-6.756845474243164,10.399313926696776,-60.62150955200195,-67.89350128173828,7.400452613830566,1.4330031871795654,-7.331389427185059,-105.7388153076172,-77.67861938476562,55.1651725769043,-1.401287078857422,0.1302394270896911,-6.741546630859375
596.0637974739075,158.843505859375,-83.50529479980469,173.84365844726562,2.40408706665039,-1.6198525428771973,-2.47681188583374,-23.119712829589844,-52.70737075805664,-144.6020050048828,-11.00583267211914,-15.720577239990234,-14.926546096801758,21.64612197875977,62.44546890258789,165.4943084716797,-1.3715391159057615,-7.95620059967041,-7.706871032714844,13.799593925476074,-60.10970306396485,-70.32090759277344,7.148591041564941,2.8075919151306152,-7.050625801086426,-95.32855987548828,-78.64591217041016,47.15216827392578,-0.1095099449157714,-0.3492255806922912,-2.436746597290039
596.0938725471497,155.53262329101562,-83.46940612792969,178.16896057128906,-3.6882591247558594,-4.208184242248535,-1.3749780654907229,-24.840415954589844,-53.57663345336914,-146.84634399414062,-13.92121696472168,-12.055448532104492,-14.77073097229004,-4.774119377136231,57.30231094360352,133.68582153320312,-3.54896879196167,7.067963600158691,-20.33194351196289,15.783291816711426,-60.31068801879883,-72.4626693725586,6.140459060668945,5.126376152038574,-6.331141471862793,-86.81486511230469,-79.21439361572266,39.35951232910156,0.1527668535709381,0.1501732170581817,-1.0980596542358398
596.1238579750061,149.83682250976562,-82.90615844726562,-173.16677856445312,-1.008680820465088,2.27065372467041,2.069516181945801,-26.946441650390625,-58.85309219360352,-146.6839599609375,-14.461994171142578,-7.54317569732666,-3.725571632385254,-23.684450149536133,45.21577453613281,113.06275939941406,-7.226041793823242,20.59021377563477,-27.469295501708984,16.534313201904297,-60.72840118408203,-73.91613006591797,6.34072208404541,5.858190536499023,-6.712446212768555,-84.22566986083984,-79.62130737304688,36.15144729614258,0.89255690574646,-0.4800499081611633,-0.2440166473388672
596.1535239219666,141.06198120117188,-82.00935363769531,-163.62594604492188,-0.6899013519287109,1.4474475383758545,0.3984870910644531,-22.99637794494629,-63.99341583251953,-148.01002502441406,9.12314224243164,-12.03227424621582,6.879489898681641,-32.6939582824707,38.8144645690918,108.53190612792967,6.3068037033081055,-9.49676513671875,-14.05402946472168,16.329559326171875,-62.05503463745117,-74.32850646972656,5.652323722839356,5.0943803787231445,-7.371310234069824,-83.6308364868164,-80.22254180908203,33.67751693725586,-0.8560667037963867,-2.5132174491882324,0.7565937042236328
596.1837332248688,131.96087646484375,-81.0248031616211,-154.3634796142578,-1.3761141300201416,1.0079753398895264,4.163054466247559,-21.779226303100582,-69.00493621826172,-150.06622314453125,-6.593705177307129,-3.136164665222168,9.016830444335938,-41.1552848815918,43.333457946777344,122.30900573730467,2.6342873573303223,0.1268012523651123,-10.806503295898438,13.937426567077637,-65.29721069335938,-72.65889739990234,3.836169719696045,6.9234819412231445,-2.270247459411621,-82.1312484741211,-81.24532318115234,30.277313232421875,-3.206799030303955,-2.521461009979248,0.8098020553588867
596.2433240413666,121.8339614868164,-79.61018371582031,-144.78329467773438,-0.3383731245994568,1.635908126831055,1.7988195419311523,-25.138093948364254,-74.0213623046875,-149.36361694335938,-3.831233024597168,1.4740424156188965,4.763169288635254,-38.96060943603516,52.77763748168945,145.92929077148438,-10.503011703491213,35.92290496826172,-13.518054962158203,7.575064182281494,-68.52267456054688,-66.010498046875,0.8936852216720581,10.338506698608398,9.19146728515625,-83.369384765625,-82.41719055175781,29.07321548461914,0.0340115204453468,-1.4393043518066406,1.0002126693725586
596.273509979248,112.87711334228516,-76.89273071289062,-137.25917053222656,-3.777872085571289,-2.0705575942993164,1.1275138854980469,-23.14708137512207,-78.50654602050781,-151.6075439453125,-1.780156135559082,-4.394591331481934,-1.2168359756469729,-16.74935531616211,56.17800521850586,178.74403381347656,-11.011245727539062,5.818153381347656,-21.292125701904297,-4.329383850097656,-69.4439926147461,-58.34938430786133,8.118927001953125,4.048873901367188,4.551661491394043,-97.2039031982422,-82.98675537109375,40.1270637512207,3.9704418182373047,-0.4469528198242187,-1.5582971572875977
596.3047871589661,107.50789642333984,-73.2365951538086,-134.56385803222656,-2.751007556915283,-8.315874099731445,1.6208734512329102,-20.61454963684082,-82.26919555664062,-152.4724578857422,-5.691567420959473,-3.023726463317871,-0.4194288253784179,-0.5062548518180847,53.2160758972168,-156.06362915039062,-7.08311939239502,8.588104248046875,-1.4141521453857422,-11.702839851379396,-70.89356994628906,-58.47211456298828,6.1081953048706055,-4.966501235961914,0.6754188537597656,-117.83322143554688,-81.42865753173828,58.08853912353516,6.031294822692871,1.7651584148406982,-4.013424873352051
596.3339052200317,112.11202239990234,-69.43726348876953,-146.58709716796875,13.184698104858398,-14.750581741333008,6.070163726806641,-33.67824935913086,-85.77835845947266,-140.28709411621094,-3.9197168350219727,-2.751589775085449,0.1589860916137695,10.352599143981934,48.36927032470703,-141.66189575195312,5.606184959411621,1.4953439235687256,6.558832168579102,-16.154138565063477,-73.15259552001953,-64.09841918945312,7.689663887023926,-7.68250846862793,3.9323806762695312,-128.9320068359375,-79.88578796386719,67.64405822753906,5.672043800354004,2.2486109733581543,-3.289478302001953
596.3642528057098,123.6059112548828,-61.719871520996094,-164.97140502929688,11.402395248413086,-18.38990020751953,6.831027984619141,-74.58137512207031,-87.70398712158203,-99.90279388427734,-3.981254577636719,-2.476487636566162,-0.8942804336547852,10.18576431274414,41.61511993408203,-132.79393005371094,14.922008514404297,-9.096864700317385,11.301555633544922,-14.197983741760254,-74.32940673828125,-77.71812438964844,8.155460357666016,-5.75363826751709,9.165590286254885,-134.03765869140625,-79.15403747558594,72.27339172363281,0.700764536857605,0.3765055537223816,4.795686721801758
596.3934354782104,135.7480010986328,-50.81902694702149,179.709716796875,3.771071434020996,-12.888708114624023,3.3018760681152344,-125.80372619628906,-87.35588073730469,-49.13111877441406,-4.35084342956543,-2.025254726409912,-0.4588069915771484,-12.514286041259766,32.97599029541016,-130.51150512695312,21.442745208740234,-2.151304244995117,-5.835002899169922,3.3036813735961914,-73.26232147216797,-102.45968627929688,7.419411659240723,-9.221597671508787,10.05153465270996,-133.522216796875,-79.02531433105469,71.22325134277344,1.350315809249878,4.023435592651367,4.028785705566406
596.4236884117126,144.9589385986328,-39.09463119506836,167.46136474609375,-1.2785046100616455,-4.480720520019531,-2.4986777305603027,-147.94009399414062,-86.18525695800781,-27.736814498901367,-3.87559986114502,-1.0725696086883545,-0.4830207824707031,-29.63667869567871,22.277868270874023,-131.43350219726562,-20.315479278564453,3.4401254653930664,16.340667724609375,24.858333587646484,-69.13066864013672,-128.27488708496094,6.427887916564941,-6.680676460266113,8.620565414428711,-133.46978759765625,-79.47550201416016,71.13047790527344,7.567252159118652,2.625546932220459,0.6374244689941406
596.4536855220795,152.8323516845703,-27.862606048583984,158.3496856689453,0.6903607845306396,5.259292602539063,-7.984097480773926,-159.0796356201172,-84.80714416503906,-17.610164642333984,-3.326138973236084,-2.1645236015319824,-0.50543212890625,-27.33938217163086,10.838700294494627,-132.00653076171875,5.573217391967773,-3.981976985931397,1.813082695007324,40.31642532348633,-61.67546844482422,-145.89291381835938,5.371788024902344,-5.410358428955078,7.256374359130859,-137.90945434570312,-79.69329071044922,74.5701904296875,5.028816223144531,2.877124309539795,1.811692237854004
596.4835913181305,160.86341857910156,-18.48624420166016,151.56138610839844,0.7232633829116821,4.394061088562012,-8.92136001586914,-162.1674041748047,-83.91321563720703,-15.181294441223145,-3.1353917121887207,-2.7043685913085938,-0.5504188537597656,-36.06265640258789,-2.879716157913208,-129.2892608642578,0.8656353950500488,-6.533044815063477,-6.362915992736816,48.62566757202149,-52.367279052734375,-155.45664978027344,3.523566246032715,-5.950664520263672,4.613207817077637,-141.1276397705078,-79.55298614501953,76.41877746582031,0.6102175712585449,1.4827420711517334,3.054995536804199
596.543130159378,168.3189697265625,-13.408769607543944,145.83387756347656,0.112346664071083,6.243010520935059,-7.039216041564941,-156.83070373535156,-84.08808898925781,-19.594221115112305,-1.881408452987671,-2.2009763717651367,-0.8529109954833984,-48.72351837158203,-18.550390243530277,-124.8028335571289,-11.129133224487305,-3.654092311859131,7.813066482543945,51.79927444458008,-42.78677749633789,-160.582763671875,0.9115629196166992,-3.72150468826294,1.6838626861572266,-144.24752807617188,-79.7163314819336,78.4219741821289,0.9411964416503906,2.090440273284912,-0.2070837020874023
596.5738198757172,169.783203125,-14.058855056762695,140.29591369628906,-0.6535274982452393,13.20174789428711,-13.708559036254885,-148.6748809814453,-83.6169662475586,-26.66999626159668,-3.1928672790527344,-0.7719992399215698,-0.6745510101318359,-45.98142623901367,-36.95888519287109,-124.76559448242188,-8.720327377319336,-11.03447151184082,12.541772842407228,52.64807891845703,-33.594207763671875,-163.37554931640625,0.6483395099639893,-2.4984688758850098,-2.292118549346924,-148.63316345214844,-79.37332916259766,81.80714416503906,3.032924175262451,1.3755412101745603,-1.7391929626464844
596.6033992767334,165.74098205566406,-20.326780319213867,136.45840454101562,-2.4191393852233887,17.18405532836914,-14.486051559448242,-145.62911987304688,-82.72018432617188,-29.85199737548828,-2.7789087295532227,0.4869847893714905,0.0511503219604492,-24.57671546936035,-54.144775390625,-137.09410095214844,-9.10305404663086,-17.068634033203125,21.49469757080078,51.11515426635742,-25.057907104492188,-165.38706970214844,2.6841611862182617,-4.6629638671875,-3.46158218383789,-153.0450897216797,-78.96356201171875,84.637939453125,1.848056077957153,-0.0204300880432128,-1.3933687210083008
596.6339185237885,160.6820831298828,-23.84025382995605,133.92327880859375,3.5355887413024902,-2.26358699798584,44.56474304199219,-148.1820526123047,-82.34127044677734,-27.44379997253418,-2.4725284576416016,-0.2664114236831665,0.5370283126831055,-2.3193295001983643,-61.62222671508789,-153.38673400878906,-1.4126672744750977,-11.204483032226562,12.572582244873049,47.23439407348633,-16.783031463623047,-168.21405029296875,2.017578601837158,-3.265366077423096,-6.194077491760254,-156.12986755371094,-79.57979583740234,85.18877410888672,0.8270149230957031,-1.6362979412078855,-1.5350360870361328
596.6630561351776,162.9147186279297,-25.65278625488281,135.491455078125,-5.111639976501465,14.352666854858398,-2.3311753273010254,-155.84190368652344,-82.48566436767578,-19.692445755004883,-2.8371877670288086,-1.5146982669830322,0.0723342895507812,1.1001598834991455,-61.12104797363281,-154.5353546142578,-3.946725368499756,-8.878618240356445,3.772668838500977,42.39509201049805,-8.78523063659668,-172.49427795410156,5.256311416625977,-2.3655362129211426,-6.912030220031738,-157.73497009277344,-79.4752426147461,84.57776641845703,3.147348403930664,1.6092286109924316,-0.3440961837768554
596.69406914711,168.4683380126953,-27.286869049072266,137.84144592285156,-13.419178009033203,8.018009185791016,3.353580474853516,-166.5312042236328,-82.6767807006836,-9.307397842407228,-3.1474099159240723,-1.715384006500244,-0.4360408782958984,-4.681349754333496,-56.46173477172852,-149.05958557128906,-14.063974380493164,-11.80695343017578,2.278512954711914,35.79130554199219,-1.4570142030715942,-179.76089477539062,10.03559684753418,-3.5562844276428223,-3.472320079803467,-163.0874481201172,-78.04133605957031,88.13833618164062,0.0277433209121227,-0.8152154684066772,3.559469223022461
596.723680973053,169.70681762695312,-27.047775268554688,139.94589233398438,-9.29035758972168,15.22414207458496,10.090702056884766,-177.6687469482422,-82.26181030273438,0.0108950035646557,-3.7411465644836426,-2.363689422607422,-0.3856439590454101,-18.586355209350582,-49.95104598999024,-144.9931182861328,-17.657249450683594,-4.63967227935791,-0.3765830993652344,26.53231811523437,4.555675983428955,169.27276611328125,7.2882795333862305,-4.116305351257324,2.5755691528320312,-163.47296142578125,-77.33721160888672,87.48963165283203,-3.706026077270508,-3.27168083190918,2.6922178268432617
596.7536728382111,164.85098266601562,-24.21487236022949,141.45883178710938,-11.967920303344728,4.680615425109863,6.761838912963867,174.76919555664062,-81.77913665771484,5.190886974334717,-3.8420310020446777,-1.8223063945770264,0.6701936721801758,-31.090085983276367,-43.01875305175781,-145.7378387451172,-12.535503387451172,2.5765175819396973,1.6738395690917969,14.738030433654783,9.370595932006836,156.6558380126953,5.670323371887207,3.1840405464172363,4.995287895202637,-161.3318328857422,-77.61714935302734,86.28752899169922,-0.1849551796913147,1.2411012649536133,4.2012224197387695
596.7837080955505,164.3118438720703,-19.66530036926269,141.48529052734375,-8.16961669921875,7.112465858459473,6.043909072875977,165.28033447265625,-83.06423950195312,13.207972526550291,-4.415640830993652,-1.4558098316192627,1.1859474182128906,-40.03972244262695,-37.62676239013672,-150.70933532714844,-8.31328010559082,5.317198753356934,0.7517719268798828,6.695776462554932,13.82088851928711,146.7744903564453,12.470232009887695,12.442710876464844,6.472970962524414,-159.96849060058594,-78.8592758178711,85.63526153564453,3.536085605621338,3.408419132232666,2.675051689147949
596.8438286781311,162.97406005859375,-16.448158264160156,140.38710021972656,-2.053308486938477,6.762992858886719,1.5228033065795898,137.79920959472656,-85.79765319824219,39.60699081420898,-4.920153617858887,-1.6919872760772705,1.882272720336914,-44.32898712158203,-36.51572799682617,-158.8909912109375,-4.081155776977539,5.745705604553223,-2.84906005859375,6.358524799346924,18.9183292388916,142.93653869628906,9.252164840698242,3.129308223724365,2.5063276290893555,-162.9021759033203,-79.34747314453125,88.32063293457031,4.223493576049805,4.513374328613281,4.418985366821289
596.8738043308258,161.47076416015625,-16.23692512512207,139.51719665527344,-0.0932395458221435,4.33842658996582,-6.286017417907715,64.95356750488281,-85.76224517822266,111.36980438232422,-3.1079111099243164,-0.0405893325805664,3.2996273040771484,-45.9532470703125,-39.78760528564453,-169.08177185058594,-2.3807544708251958,5.685380935668945,-1.893728256225586,6.534247875213623,24.5791130065918,143.4785919189453,4.36689567565918,-2.084537982940674,-2.889455318450928,-168.51036071777344,-79.51448059082031,92.60099792480467,4.024048805236816,2.3369717597961426,6.872003555297852
596.9030208587646,160.1946563720703,-20.13839340209961,139.21669006347656,0.544901967048645,4.029290199279785,-11.348615646362305,38.47454452514648,-82.15332794189453,138.00570678710938,0.9088623523712158,0.868411660194397,4.859227180480957,-46.74319076538086,-46.0626335144043,179.0800018310547,-1.3508069515228271,5.57451057434082,0.8738088607788086,4.233380317687988,30.23318099975586,146.90760803222656,3.0980892181396484,-2.5401415824890137,-5.77448844909668,-172.3642578125,-80.13204193115234,94.95819854736328,2.027127265930176,1.303988695144653,1.3744583129882812
596.934023141861,158.2467498779297,-28.406116485595703,139.6039276123047,0.3014100193977356,7.517309188842773,-15.181669235229492,30.17851829528809,-79.80949401855469,146.8462677001953,-0.4619359970092773,1.8867008686065676,-3.4819459915161133,-45.82435607910156,-53.61396026611328,165.597900390625,0.6229985952377319,3.76685094833374,0.8400506973266602,0.5831916332244873,35.90207290649414,152.522216796875,2.729839324951172,-0.5327088832855225,-5.702473640441895,-175.076416015625,-80.39324188232422,95.91899871826172,1.7939417362213137,0.4018645286560058,-4.355103492736816
596.963748216629,154.8656005859375,-40.73767852783203,140.47219848632812,-1.2761261463165283,8.740161895751953,-12.328523635864258,19.7490234375,-79.7493667602539,154.7444305419922,-1.69850754737854,-1.137537717819214,-5.788264274597168,-42.1231803894043,-60.891021728515625,150.18405151367188,0.5328820943832397,2.917319774627685,-1.952641010284424,-1.5978190898895264,42.08031845092773,161.18592834472656,2.341838836669922,2.4959921836853027,-5.117160797119141,-178.09024047851562,-80.5355224609375,97.1968994140625,1.879370212554932,-0.3624783754348755,-5.684713363647461
596.9938595294952,149.5744171142578,-56.44941711425781,143.135986328125,-3.036619186401367,6.419669151306152,-3.50452184677124,4.09450101852417,-81.24678039550781,165.2834930419922,-2.2476730346679688,-3.837392807006836,-7.144210815429688,-38.49187469482422,-67.26151275634766,133.97689819335938,2.625516891479492,2.952709197998047,-2.9361319541931152,3.5302281379699707,48.54297637939453,175.37887573242188,1.324669361114502,1.0989763736724854,-9.450763702392578,-179.51914978027344,-80.82844543457031,97.81583404541016,0.4992688298225403,-0.6628408432006836,-4.965960502624512
597.0237271785736,139.6247100830078,-74.5672607421875,152.64195251464844,-5.158064842224121,-0.0190370455384254,10.246761322021484,-14.347557067871094,-82.96086883544922,179.4883575439453,-4.246861457824707,-6.377353668212891,-7.964879035949707,-32.74271011352539,-72.96708679199219,116.4140167236328,5.0381927490234375,0.0686433315277099,-3.0443758964538574,16.928287506103516,52.443241119384766,-162.34300231933594,-2.2162365913391118,-7.777700424194336,-18.939159393310547,179.67025756835938,-81.49702453613281,98.3410415649414,0.9604202508926392,0.8470371961593628,-7.965386390686035
597.0537247657776,26.21930313110352,-84.12100982666016,-88.67924499511719,-1.336773157119751,-14.00255012512207,18.67337417602539,-40.34346389770508,-84.61555480957031,-156.6639404296875,-2.8360085487365723,-9.844385147094728,-6.652958869934082,-17.016538619995117,-77.79499816894531,92.81330108642578,5.154546737670898,-3.1088290214538574,-3.7270774841308594,29.36113548278809,51.52096939086914,-138.7165985107422,-14.778520584106444,-15.82977294921875,-21.474483489990234,179.1214599609375,-81.9344711303711,98.38230895996094,1.0886142253875732,0.2347171306610107,-7.165642738342285
597.0837249755859,5.369350433349609,-73.65532684326172,-55.25212860107422,25.977352142333984,-11.786554336547852,-5.617517471313477,-79.82477569580078,-84.60069274902344,-118.664306640625,-2.307981491088867,-0.2392148375511169,1.6852922439575195,17.222383499145508,-80.22332000732422,55.79017639160156,4.443718910217285,-4.339559555053711,-3.8456368446350098,37.70054244995117,51.347129821777344,-136.83395385742188,-7.812687873840332,6.199878692626953,-0.5154504776000977,-177.92578125,-82.87129211425781,95.60481262207033,-0.3129317164421081,-1.3981974124908447,-5.652484893798828
597.1439237594604,13.83553981781006,-72.94354248046875,-62.192665100097656,14.465667724609377,-14.968246459960938,-15.052268981933594,-96.67052459716795,-82.61961364746094,-102.03643035888672,-1.9286301136016848,-1.3073158264160156,6.219572067260742,51.655540466308594,-78.17530059814453,22.06756019592285,3.857723236083984,-4.282933235168457,-5.230926513671875,39.431915283203125,52.86538314819336,-150.16928100585938,5.983037948608398,-16.993595123291016,0.156402587890625,-172.91326904296875,-82.30262756347656,90.30943298339844,5.438055038452148,-2.198060989379883,-7.351963996887207
597.1738965511322,46.29756164550781,-77.6854476928711,-91.83050537109376,10.973688125610352,-19.313060760498047,-6.638785362243652,-99.0949249267578,-80.44549560546875,-99.03050231933594,-4.390116691589356,0.1395663022994995,4.668729782104492,66.54911041259766,-75.23436737060547,8.395567893981934,5.2178144454956055,-3.0116138458251958,-1.4029569625854492,28.137510299682617,52.96681213378906,-168.88589477539062,3.147146224975586,-10.26960563659668,-8.368289947509766,-169.23452758789062,-81.12208557128906,85.88426208496094,7.337714195251465,1.626620531082153,1.680246353149414
597.2036375999451,94.6368179321289,-77.38935852050781,-135.31015014648438,-9.904022216796877,3.397591590881348,8.161140441894531,-85.41815185546875,-78.55289459228516,-110.31646728515624,-2.486956596374512,-3.242952823638916,5.927685737609863,70.48808288574219,-74.31754302978516,4.504336357116699,6.16024112701416,-2.8897547721862797,3.592857360839844,8.366157531738281,47.79536056518555,168.5329132080078,-5.486468315124512,-2.579296588897705,-11.999908447265623,-168.29872131347656,-81.34860229492188,84.72882843017578,1.588571310043335,-0.5363367795944214,8.012472152709961
597.2336378097534,110.1950454711914,-76.96392059326172,-154.03199768066406,-17.141830444335938,-10.903396606445312,-3.881988525390625,-66.300537109375,-75.56443786621094,-123.94696807861328,-4.097117424011231,-6.4423933029174805,-0.1808090209960937,70.99188232421875,-76.22898864746094,5.162428855895996,7.355323791503906,-2.7569565773010254,9.194416046142578,-3.908711433410645,38.099002838134766,152.29095458984375,-0.7884489297866821,-1.1258172988891602,-9.69215965270996,-165.0103302001953,-80.79719543457031,82.50524139404297,0.996106505393982,-0.1939305663108825,10.391803741455078
597.2638037204742,123.87889862060548,-77.09735870361328,-169.1654052734375,3.503116607666016,15.220376968383787,17.32821273803711,-55.91116714477539,-72.57015228271484,-126.46404266357422,-4.468509674072266,-6.598650932312012,0.1387434005737304,69.36638641357422,-80.76307678222656,10.774564743041992,3.162694931030273,-3.599752902984619,9.281227111816406,-7.282315254211426,26.540149688720703,142.23863220214844,2.962613105773926,4.630008697509766,-6.74107837677002,-166.69805908203125,-81.03008270263672,86.55712890625,2.520297050476074,-1.174710988998413,-0.1100225448608398
597.2939639091492,138.3489990234375,-75.85848236083984,-178.80111694335938,3.233811378479004,1.330808162689209,0.7349576950073242,-47.03076553344727,-71.12882232666016,-122.3124771118164,-26.81378555297852,-13.379119873046877,-10.403146743774414,43.43558883666992,-86.48849487304688,44.261322021484375,2.0122523307800293,-4.3953704833984375,6.004037857055664,1.7083675861358645,15.931112289428713,134.3399658203125,8.372386932373047,8.431856155395508,-5.018977165222168,-172.94253540039062,-79.85939025878906,94.67658233642578,0.812139630317688,1.3195040225982666,-0.2403516769409179
597.3237669467926,148.6053924560547,-75.525634765625,172.30894470214844,1.5852155685424805,-1.5675380229949951,0.6500015258789062,-65.74388885498047,-73.14013671875,-96.24677276611328,-20.15767288208008,-15.342395782470703,-2.684149742126465,-46.62895202636719,-83.95350646972656,146.39486694335938,0.026819959282875,-0.3599544763565063,2.252142906188965,24.143360137939453,7.71757173538208,127.6549835205078,12.829938888549805,4.3115644454956055,-11.244388580322266,-178.9080047607422,-78.51466369628906,102.26554107666016,-5.826088905334473,1.3321294784545898,-1.2166376113891602
597.3533353805542,157.93063354492188,-75.33689880371094,162.42152404785156,0.6982392072677612,1.3050930500030518,0.5671825408935547,-101.7941665649414,-72.0200424194336,-56.54867172241211,-7.87619686126709,-10.908267974853516,-1.7017440795898438,-53.30366134643555,-76.39796447753906,164.084716796875,-9.490535736083984,1.7882916927337646,-3.762818813323975,54.57029724121094,2.087458610534668,124.53076934814452,13.117837905883787,8.43679428100586,-10.408405303955078,176.34243774414062,-76.79084777832031,109.26283264160156,-3.697035789489746,1.465740442276001,-3.7347159385681152
597.383828163147,165.75888061523438,-74.75203704833984,154.02154541015625,0.1469159424304962,-0.8484447002410889,0.1367979049682617,-129.1486053466797,-65.97521209716797,-27.10427474975586,-0.6367050409317017,-6.768775939941406,-3.7604455947875977,-53.83717727661133,-69.94945526123047,167.56231689453125,-9.18606948852539,2.010681629180908,-5.729582786560059,83.72383880615234,-2.954864501953125,127.88938903808594,-3.115057468414306,-4.268474578857422,2.728811264038086,174.1353759765625,-75.06951141357422,112.2306900024414,1.4649379253387451,0.6931148767471313,-0.6607046127319336
597.4439554214478,170.58807373046875,-73.94647979736328,148.6507568359375,-1.3486981391906738,-3.0667686462402344,-0.0120716094970703,-145.99400329589844,-58.70880126953125,-9.572986602783203,1.2040953636169434,-3.314949512481689,-6.714909553527832,-54.39778900146485,-65.35065460205078,166.1095428466797,-5.374195098876953,7.375802993774414,-1.4461374282836914,93.06947326660156,-8.524433135986328,131.5312957763672,2.882040500640869,-14.354375839233398,29.891498565673828,171.80746459960938,-73.73121643066406,113.86769104003906,-1.0437469482421875,-0.056009218096733,1.534149169921875
597.473471403122,174.4669952392578,-73.26649475097656,145.60470581054688,0.6454620361328125,-0.1737913787364959,0.6890420913696289,-158.66372680664062,-52.722686767578125,2.516763687133789,1.6017029285430908,-0.7427449226379395,-8.82139778137207,-53.803016662597656,-62.37270736694336,163.90029907226562,-6.015738487243652,7.8344526290893555,-1.0289955139160156,88.23307037353516,-12.322039604187012,132.51295471191406,10.846717834472656,0.5136867761611938,1.132014274597168,168.6393585205078,-72.31981658935547,117.5097427368164,-6.886103630065918,0.7664397954940796,2.7147693634033203
597.5032587051392,178.008056640625,-72.97816467285156,142.549560546875,1.616358518600464,0.7811650037765503,0.8363466262817383,-170.61561584472656,-49.2517204284668,12.649585723876951,3.19714879989624,0.3011184930801391,-7.968740463256836,-54.63407897949219,-60.62445068359375,162.46714782714844,-7.025979042053223,7.465045928955078,-0.3023824691772461,96.219970703125,-16.20958137512207,133.1614227294922,5.060412406921387,-4.310696601867676,-5.103419303894043,166.1968231201172,-71.5823974609375,121.95875549316406,-6.318617820739746,0.0023585087619721,2.1241350173950195
597.5335512161255,-178.0611572265625,-73.11766815185547,138.4772186279297,0.8648096323013306,0.2117775082588195,0.7846832275390625,177.45570373535156,-48.74323654174805,22.962337493896484,1.9874234199523928,1.8537371158599851,-2.539705753326416,-56.93937301635742,-59.89765167236328,162.48190307617188,-3.5164270401000977,7.447660446166992,0.4083318710327148,108.35480499267578,-22.741893768310547,131.62982177734375,3.9475812911987305,-5.098756790161133,4.541677474975586,162.36453247070312,-71.205078125,127.210693359375,-1.2921273708343506,0.7577171325683594,1.2708263397216797
597.5637652873993,-174.08642578125,-73.45413970947266,134.5467529296875,-0.101327359676361,-0.3795863389968872,0.2313756942749023,167.6897735595703,-51.33712005615234,34.13546371459961,9.78217315673828,7.115071296691895,-2.337980270385742,-60.13875198364258,-59.72187805175781,164.06430053710938,-0.176969289779663,4.700142860412598,0.7460260391235352,112.74610900878906,-32.312049865722656,127.38658142089844,4.57939338684082,2.2060604095458984,3.941592216491699,156.82388305664062,-70.45252990722656,132.61483764648438,0.9951075315475464,0.998046875,-0.4492816925048828
597.5939228534698,-170.73773193359375,-73.61210632324219,131.38059997558594,-0.4559177160263061,0.38386070728302,-0.2776718139648437,161.90342712402344,-56.43461608886719,45.8886604309082,-14.412923812866213,12.062461853027344,14.202375411987305,-63.10247802734375,-59.22824478149414,166.21746826171875,2.357748508453369,2.014121532440185,-0.5099611282348633,109.88320922851562,-45.11507415771485,122.0445785522461,-0.2294000685214996,6.60560417175293,4.293887138366699,152.04893493652344,-69.68840789794922,136.94715881347656,-0.4208067059516907,0.999419927597046,-2.050110340118408
597.623527765274,-169.17385864257812,-73.09578704833984,129.58607482910156,-0.8819633722305298,1.5073213577270508,-0.6887331008911133,161.62876892089844,-58.36880874633789,51.04238510131836,4.693713188171387,7.611316680908203,1.9632349014282229,-65.99991607666016,-57.99620056152344,168.71226501464844,3.7348132133483887,-0.8961849212646484,-2.05411958694458,103.51481628417967,-59.540077209472656,117.19261932373048,-0.0920301079750061,9.756649017333984,8.267772674560547,148.93028259277344,-69.16112518310547,140.1611785888672,-1.6025357246398926,0.5058400630950928,-3.8843626976013184
597.6538598537445,-171.39036560058594,-71.53858184814453,130.86546325683594,-2.873403549194336,2.031609058380127,-1.3821592330932615,153.0631561279297,-58.87251663208008,54.33600997924805,5.841858863830566,6.350775718688965,-0.2496747970581054,-62.72380065917969,-55.268402099609375,168.23849487304688,9.074600219726562,-12.304998397827148,5.849566459655762,98.33551788330078,-72.04314422607422,114.12842559814452,1.267378568649292,11.980585098266602,9.217676162719728,147.20849609375,-68.82383728027344,142.52676391601562,0.3559111356735229,-0.6396859884262085,-6.805466651916504
597.6838462352753,-175.50936889648438,-69.16248321533203,136.01278686523438,-0.3345980048179626,0.9966845512390136,-0.0098896026611328,145.32485961914062,-60.66521453857422,55.919769287109375,2.20401382446289,8.844139099121094,6.192760467529297,-53.50011444091797,-49.58668899536133,162.547607421875,-3.808504104614258,-8.413009643554688,-0.3687734603881836,106.05873107910156,-77.49946594238281,109.24938201904295,2.627084255218506,8.869890213012695,-0.7029886245727539,146.25991821289062,-68.26957702636719,144.12049865722656,0.2631476521492004,-1.3011798858642578,-6.682024002075195
597.743358373642,179.9098358154297,-65.96165466308594,144.4749298095703,-1.046776294708252,0.6158169507980347,-1.2623558044433594,143.69888305664062,-60.14833450317383,52.51746368408203,5.592161178588867,-0.2336449027061462,7.850181579589844,-50.574520111083984,-40.4483757019043,158.4496612548828,2.5362234115600586,-1.200582504272461,-1.5044279098510742,116.78885650634766,-76.66017150878906,105.2977066040039,-1.4040968418121338,4.004942893981934,-0.0658416748046875,144.3968048095703,-67.75758361816406,146.7484130859375,-0.3638069033622741,0.6902458667755127,-1.7897415161132812
597.7733581066132,177.96694946289062,-62.45754623413086,151.349609375,0.0554202571511268,-3.5576839447021484,0.0562038421630859,147.0243377685547,-58.27592468261719,46.41456985473633,9.145139694213867,-2.5247936248779297,8.69007682800293,-53.30531311035156,-29.70359230041504,158.1899871826172,4.5774641036987305,1.2353556156158447,-1.557417869567871,120.51486206054688,-76.28862762451172,105.7144012451172,-8.555192947387695,5.689526557922363,3.4260692596435547,142.76309204101562,-66.90972137451172,148.68310546875,-0.7975612878799438,2.7608642578125,3.3795289993286133
597.8031706809998,177.6515655517578,-59.45194625854492,152.6471710205078,-1.5653197765350342,-1.6984546184539795,2.1026926040649414,156.55226135253906,-55.90442657470703,42.82558822631836,8.124902725219727,1.0958244800567627,16.225955963134766,-54.59403610229492,-18.2005672454834,160.14218139648438,8.116765975952148,-2.1923370361328125,5.886412620544434,127.76876068115234,-79.98517608642578,104.6509017944336,-13.39654541015625,4.510648727416992,11.701000213623049,145.40512084960938,-65.3651123046875,146.4331817626953,-0.2534542679786682,-2.04398775100708,7.355781555175781
597.8338661193848,177.29641723632812,-57.67308044433594,152.94903564453125,1.2774136066436768,-0.5417413711547852,2.483853340148926,171.12306213378906,-53.11616134643555,38.43767166137695,12.954219818115234,6.637934684753418,9.457387924194336,-52.01505279541016,-6.489475250244141,163.1104736328125,3.7131810188293457,-8.782093048095703,16.7318115234375,166.4696044921875,-85.56570434570312,78.3359375,-2.586441993713379,-4.868995666503906,17.40679168701172,148.74891662597656,-64.60273742675781,142.73495483398438,-4.381349563598633,2.0278549194335938,9.8155517578125
597.8638536930084,176.8977813720703,-57.63423156738281,153.38555908203125,0.5316214561462402,-0.7012146711349487,1.1932487487792969,177.37937927246094,-47.58411407470703,32.455318450927734,9.374860763549805,-3.197354316711426,5.852582931518555,-43.31092834472656,6.578409194946289,166.97988891601562,-3.5447793006896973,-5.567121505737305,20.32408905029297,-99.0182647705078,-83.30406188964844,-4.233036994934082,10.82378387451172,-8.022451400756836,13.528339385986328,147.7350311279297,-65.05160522460938,141.88461303710938,-3.712954521179199,0.5102909803390503,6.815290451049805
597.8940231800079,176.70321655273438,-58.13648223876953,154.90567016601562,-0.5563887357711792,-1.800959825515747,0.400613784790039,178.66114807128906,-43.95157623291016,30.750885009765625,1.059657335281372,9.3619384765625,7.19598388671875,-27.64899635314941,20.27701187133789,173.6320343017578,-8.123903274536133,-0.6004171371459961,13.989812850952148,-79.30290222167969,-76.40428161621094,-18.56235122680664,8.275775909423828,-5.744775772094727,7.769912719726562,146.19686889648438,-66.03651428222656,142.61573791503906,-3.399423122406006,-0.5689493417739868,2.944178581237793
