Timestamp,D4:22:CD:00:05:5D_EulerX,D4:22:CD:00:05:5D_EulerY,D4:22:CD:00:05:5D_EulerZ,D4:22:CD:00:05:5D_FreeAccX,D4:22:CD:00:05:5D_FreeAccY,D4:22:CD:00:05:5D_FreeAccZ,D4:22:CD:00:05:5E_EulerX,D4:22:CD:00:05:5E_EulerY,D4:22:CD:00:05:5E_EulerZ,D4:22:CD:00:05:5E_FreeAccX,D4:22:CD:00:05:5E_FreeAccY,D4:22:CD:00:05:5E_FreeAccZ,D4:22:CD:00:05:6B_EulerX,D4:22:CD:00:05:6B_EulerY,D4:22:CD:00:05:6B_EulerZ,D4:22:CD:00:05:6B_FreeAccX,D4:22:CD:00:05:6B_FreeAccY,D4:22:CD:00:05:6B_FreeAccZ,D4:22:CD:00:05:6E_EulerX,D4:22:CD:00:05:6E_EulerY,D4:22:CD:00:05:6E_EulerZ,D4:22:CD:00:05:6E_FreeAccX,D4:22:CD:00:05:6E_FreeAccY,D4:22:CD:00:05:6E_FreeAccZ,D4:22:CD:00:49:AA_EulerX,D4:22:CD:00:49:AA_EulerY,D4:22:CD:00:49:AA_EulerZ,D4:22:CD:00:49:AA_FreeAccX,D4:22:CD:00:49:AA_FreeAccY,D4:22:CD:00:49:AA_FreeAccZ
1539.7403831481934,-178.85903930664062,-54.70091247558594,-130.71934509277344,0.1586722731590271,1.9702157974243164,2.8021373748779297,-136.19996643066406,0.7641927599906921,-95.65384674072266,7.581401824951172,1.8311607837677,-9.06137466430664,-44.599853515625,10.09256649017334,-34.33386993408203,3.519881248474121,11.7647705078125,5.002693176269531,41.66844940185547,-24.25655746459961,0.3315227031707763,16.858478546142578,21.31844711303711,6.355207443237305,133.905517578125,-74.5382308959961,162.2528839111328,-5.041669845581055,-0.1879225373268127,6.325380325317383
1539.751708030701,-176.4739227294922,-58.75814437866211,-132.00909423828125,2.1746950149536133,2.1846747398376465,3.727954864501953,-139.23756408691406,-6.797119617462158,-103.22018432617188,4.917181968688965,1.8816773891448972,-8.460386276245117,-33.215858459472656,14.006641387939451,-29.423696517944336,-3.530561923980713,4.137213706970215,5.49471378326416,46.60196304321289,-31.035341262817383,0.4204365909099579,6.046680450439453,9.130075454711914,2.842625617980957,133.93646240234375,-77.31195831298828,167.02462768554688,-0.9191429615020752,1.4285683631896973,2.4360246658325195
1539.7658438682556,-174.32925415039062,-65.14602661132812,-132.6071319580078,-1.9692277908325195,2.1721105575561523,6.934169769287109,-140.09396362304688,-15.16940975189209,-110.52100372314452,-1.509338140487671,4.573061943054199,-7.982052803039551,-26.157894134521484,13.047361373901367,-25.604406356811523,-3.732172966003418,0.2082113027572631,0.4549837112426758,57.54747772216797,-34.858192443847656,-3.1755411624908447,0.1006899029016494,7.422187805175781,1.546137809753418,144.69471740722656,-79.25804901123047,161.56393432617188,-3.37221622467041,0.2701600790023803,-2.0418190956115723
1539.836040973663,172.2382354736328,-59.709903717041016,33.1942024230957,-2.5083436965942383,2.671041488647461,4.442784309387207,-172.3762664794922,-76.77113342285156,-16.751195907592773,-2.1369786262512207,-2.4914708137512207,10.319868087768556,-74.49070739746094,-29.907079696655277,-114.22846221923828,6.103046417236328,9.27394676208496,20.109420776367188,57.858280181884766,-64.74531555175781,60.238746643066406,4.273110389709473,4.212850570678711,9.680370330810549,164.41688537597656,-77.06625366210938,99.57354736328124,-1.3835790157318115,-2.6782288551330566,14.744516372680664
1539.896918296814,175.01206970214844,-55.94502639770508,30.522605895996094,-0.7510766983032227,-5.078895568847656,2.3005590438842773,178.48960876464844,-74.9825668334961,-12.06923770904541,2.483104705810547,-0.5629613399505615,5.9411821365356445,-74.6025619506836,-11.519064903259276,-110.3994140625,5.562252044677734,1.3038995265960691,35.86174774169922,60.05385208129883,-66.32203674316406,51.63743591308594,0.4217944145202636,9.259191513061523,19.522396087646484,154.00550842285156,-74.29887390136719,110.0002670288086,-3.23915433883667,-2.391469955444336,10.824975967407228
1539.9260685443878,176.76783752441406,-54.30877685546875,28.527856826782227,-2.89009952545166,-0.6641361713409424,0.1438684463500976,178.3708038330078,-75.92227935791016,-14.056260108947754,-2.362083911895752,5.743293762207031,-1.5085058212280271,-64.88424682617188,7.881636142730713,-102.51675415039062,0.0585799217224121,-8.44578742980957,26.795242309570312,82.5004653930664,-70.3050537109375,28.91240692138672,6.981972694396973,6.907814979553223,10.480379104614258,158.62374877929688,-72.83084869384766,105.64065551757812,0.8339670896530151,-2.467367172241211,6.322177886962891
1539.9570717811584,178.8918914794922,-54.57060623168945,25.531614303588867,-0.8387589454650879,-2.0456795692443848,2.557435989379883,-169.87026977539062,-80.1290283203125,-25.3940372467041,-1.2830793857574463,6.1548919677734375,-8.070837020874023,-48.33978271484375,26.022947311401367,-93.02560424804688,1.7071170806884766,-25.13898468017578,13.1553955078125,93.83122253417967,-77.503173828125,24.781213760375977,-2.210847854614258,4.177898406982422,4.717184066772461,164.2408905029297,-69.99053955078125,100.79540252685548,0.4701554775238037,0.4884151220321655,8.958883285522461
1539.985810995102,-178.73175048828125,-56.30975341796875,22.22723388671875,1.4399621486663818,-3.8280434608459473,4.788866996765137,-115.72590637207033,-85.93013000488281,-77.216552734375,0.4970707297325134,6.03032112121582,-10.899784088134766,-26.84824752807617,39.27845764160156,-83.63916015625,4.862072944641113,-17.442100524902344,-6.438152313232422,77.94549560546875,-85.29534912109375,48.650691986083984,-9.458520889282228,-0.826494574546814,1.1046619415283203,167.9852294921875,-69.22296905517578,99.01104736328124,-5.529666900634766,1.1740236282348633,7.116392135620117
1540.016671180725,-176.6142578125,-59.72830581665039,18.943113327026367,1.0165436267852783,-2.4901657104492188,6.054203033447266,-30.3620662689209,-80.3093490600586,-161.2859649658203,-1.142967700958252,4.440319061279297,-10.976367950439451,-10.701895713806152,47.18517303466797,-72.8200912475586,-0.0932331085205078,-12.398202896118164,-2.8104844093322754,-29.2012996673584,-83.3313217163086,161.7433624267578,-7.072150230407715,-4.4707136154174805,-1.8838214874267576,172.34530639648438,-69.74679565429688,97.41403198242188,-4.012414932250977,4.74749755859375,2.081266403198242
1540.0467629432678,-175.7266387939453,-64.87945556640625,16.418638229370117,5.590924263000488,-0.8778258562088013,5.970769882202148,-18.03044891357422,-70.58695983886719,-175.91558837890625,-3.642362594604492,2.181437492370605,-10.072101593017578,4.647189617156982,50.7296142578125,-62.56770324707031,-14.302661895751951,-11.496456146240234,-2.840086936950684,-37.66242599487305,-72.91328430175781,-177.16159057617188,-8.828657150268555,-5.283078193664551,-2.422950267791748,177.5262908935547,-69.3203125,95.6322250366211,0.4836974143981933,2.422924518585205,-1.1635513305664062
1540.076987504959,-179.04246520996094,-71.66993713378906,15.494302749633787,5.7630157470703125,-0.0094707105308771,-1.1434812545776367,-16.6955509185791,-61.42241668701172,177.155517578125,-9.382762908935549,2.2730398178100586,-7.81694221496582,24.145694732666016,51.53063583374024,-53.65772247314453,-14.882911682128906,-4.816812515258789,-7.355511665344238,-29.9022159576416,-61.76628875732422,-166.9464569091797,-11.785934448242188,-9.161706924438477,-5.876248359680176,-178.27682495117188,-68.94335174560547,94.68476104736328,1.1963224411010742,0.1815513968467712,-4.052576065063477
1540.1065082550049,173.12710571289062,-75.71197509765625,26.873607635498047,-11.20659637451172,6.95985221862793,-6.999175071716309,-20.70925712585449,-53.64616012573242,173.57110595703125,-13.648929595947266,3.559988498687744,-8.120235443115234,41.3112678527832,51.14360046386719,-44.821414947509766,-8.807266235351562,-2.7698211669921875,-10.113576889038086,-23.551122665405277,-52.46773910522461,-158.2542266845703,-7.6296586990356445,-10.021718978881836,-9.57436180114746,-173.88543701171875,-69.64547729492188,92.2267608642578,1.467146396636963,1.4976959228515625,-9.291929244995115
1540.1365115642548,157.0205535888672,-77.1438980102539,47.11159896850586,0.2809419631958008,-4.511252403259277,-3.4563279151916504,-29.494369506835938,-49.15779113769531,174.40818786621094,-14.621980667114258,7.811649322509766,-12.671268463134766,53.92970657348633,50.45348739624024,-37.29233932495117,-3.028714656829834,3.423172950744629,-8.672758102416992,-19.187538146972656,-46.66641998291016,-150.38720703125,-3.323087692260742,-6.942531585693359,-11.192438125610352,-170.3568878173828,-71.22444152832031,90.4512710571289,1.0731306076049805,1.343592643737793,-10.367605209350586
1540.1962077617643,141.78826904296875,-76.91191864013672,65.87666320800781,-4.347082138061523,18.190814971923828,-14.551671981811523,-38.60478210449219,-48.625709533691406,177.9187469482422,-17.220016479492188,1.9469654560089111,-20.616329193115234,59.26122283935547,49.79561614990234,-33.874046325683594,-1.2916417121887207,3.781301498413086,-7.541399955749512,-15.763004302978516,-43.88398742675781,-144.0387420654297,-1.5844266414642334,-8.748790740966797,-10.581184387207031,-168.1838836669922,-73.61479949951172,90.69923400878906,-0.9882910251617432,0.6504700183868408,-7.881276130676269
1540.2266821861267,156.06361389160156,-76.4350814819336,69.60888671875,-8.159317016601562,-17.6871337890625,-3.344295024871826,-49.84201431274414,-52.97629928588867,-175.561767578125,-16.882610321044922,4.380478858947754,-14.084421157836914,56.3303108215332,51.58200454711914,-37.059326171875,4.935601234436035,2.557495594024658,-5.550641059875488,-17.579809188842773,-42.50200653076172,-139.87269592285156,1.465728998184204,-9.073123931884766,-11.342628479003906,-165.62440490722656,-75.9510269165039,89.35003662109375,-1.2430813312530518,-0.9331557750701904,-8.97901725769043
1540.256047487259,154.38943481445312,-73.46678924560547,69.40579223632812,5.491385459899902,-5.103620529174805,-4.62127685546875,-68.77290344238281,-58.83090591430664,-160.5482940673828,-17.03209686279297,-13.61655616760254,2.81313419342041,44.91024398803711,57.26296615600586,-50.713844299316406,8.71065902709961,2.161363124847412,-7.28242301940918,-22.113740921020508,-42.10795211791992,-138.47613525390625,1.4558932781219482,-6.425958633422852,-11.070138931274414,-162.50421142578125,-77.84900665283203,87.12015533447266,0.4796575903892517,-2.8443479537963867,-6.644698143005371
1540.2866592407229,152.2821502685547,-70.66171264648438,67.78038024902344,0.5207492113113403,14.147279739379885,-0.7060413360595703,-75.19580841064453,-63.21841430664063,-150.18911743164062,-2.539588451385498,-18.12160873413086,0.7297277450561523,16.192325592041016,61.4471549987793,-83.00617980957031,3.89597749710083,-3.004546642303467,-19.45078659057617,-24.64675521850586,-42.45709991455078,-139.31378173828125,-0.0337931364774704,-4.8717851638793945,-8.808160781860352,-160.93251037597656,-79.37610626220703,85.8370361328125,-0.2152000665664672,0.261845052242279,-2.835537433624268
1540.315930366516,154.1679229736328,-66.79363250732422,72.62934875488281,1.6665425300598145,-1.761549472808838,4.10728931427002,-73.99714660644531,-65.97087097167969,-146.08021545410156,-3.669910430908203,-2.781102180480957,19.68829727172852,-15.426440238952637,54.90501403808594,-120.62261962890624,-15.907133102416992,-13.341503143310549,-41.62654113769531,-24.44734001159668,-43.00896453857422,-140.85891723632812,-2.3257083892822266,-6.022351264953613,-7.013228416442871,-162.65745544433594,-80.2228012084961,86.4918212890625,-0.3206351399421692,0.4745684862136841,3.03616714477539
1540.3463606834412,152.20004272460938,-64.45325469970703,76.00968933105469,-3.966226100921631,1.6732313632965088,4.525487899780273,-92.6319580078125,-65.75818634033203,-132.6827392578125,-2.2995800971984863,5.435328483581543,3.293468475341797,-13.501537322998049,51.04074478149414,-142.2538604736328,7.93171215057373,13.024585723876951,-11.247442245483398,-23.162857055664062,-43.45647811889648,-141.5681610107422,-6.16042423248291,-7.279545783996582,-5.481581687927246,-166.92202758789062,-80.80461120605469,88.49713897705078,-5.884647369384766,-0.1510500609874725,8.043060302734375
1540.3765761852264,147.22096252441406,-63.99772644042969,79.5292739868164,0.5424994230270386,-1.1272356510162354,6.337593078613281,-100.39645385742188,-66.76546478271484,-125.39185333251952,-7.784246444702148,2.211970329284668,-6.449636459350586,-14.100907325744627,53.737335205078125,-132.0882568359375,2.465005874633789,-1.266477108001709,-0.3225870132446289,-20.744176864624023,-45.80530548095703,-141.0785675048828,-6.963764190673828,-9.693641662597656,-2.035924434661865,-170.78738403320312,-81.51589965820312,90.6794204711914,-5.166034698486328,-0.268735408782959,3.831822395324707
1540.40625333786,140.9211883544922,-63.2789306640625,83.81324005126953,1.1103837490081787,5.079610824584961,4.536109924316406,-104.42681884765624,-68.32817077636719,-120.12068176269533,-4.783703804016113,-0.7379816770553589,-1.1799259185791016,0.1116422712802887,57.09025192260742,-105.14185333251952,-15.654718399047852,-5.563977241516113,-21.52735137939453,-19.699352264404297,-50.094764709472656,-140.45184326171875,-1.5650432109832764,-11.377742767333984,5.158062934875488,-175.7505340576172,-81.4056167602539,92.92884063720705,2.851959705352783,-3.667459487915039,0.9176645278930664
1540.4367549419403,133.75282287597656,-62.300758361816406,86.50653076171875,-1.9525806903839111,7.70850944519043,2.7146453857421875,-110.52383422851562,-68.434326171875,-115.1469497680664,-7.624194145202637,-0.106514424085617,-1.5679140090942385,22.190401077270508,52.68333435058594,-79.82786560058594,-5.455131530761719,-4.168859481811523,-12.56069564819336,-22.007118225097656,-54.898094177246094,-140.4846649169922,-1.983097791671753,-7.191739082336426,4.28453254699707,-179.43504333496094,-79.52676391601562,92.63998413085938,6.706222534179688,-3.552221775054932,1.4644641876220703
1540.496295213699,128.05361938476562,-60.81757736206055,83.91656494140625,-9.637371063232422,4.702486991882324,4.259531021118164,-115.48584747314452,-68.0845718383789,-112.0279769897461,-3.6789937019348153,0.6491687297821045,0.770263671875,30.638036727905277,42.71541595458984,-65.15298461914062,-5.658358573913574,-1.6477646827697754,-1.4130277633666992,-32.10269546508789,-58.638648986816406,-138.39588928222656,-4.022255897521973,-0.5916370153427124,-0.1805524826049804,176.55479431152344,-79.62066650390625,93.54014587402344,6.526227951049805,1.8463425636291504,-0.0857601165771484
1540.5268495082855,127.27204132080078,-56.9911994934082,73.51313781738281,-17.228824615478516,2.7848715782165527,7.174247741699219,-117.29039001464844,-68.45790100097656,-110.6262664794922,-4.095552444458008,0.5028005838394165,0.4860420227050781,28.54710960388184,32.007118225097656,-54.49854278564453,-2.8331918716430664,3.02479887008667,8.201150894165039,-43.05061340332031,-61.61358642578125,-135.66893005371094,-5.149832725524902,2.520403385162353,0.0465707778930664,177.09454345703125,-79.44046783447266,91.49876403808594,-1.9672436714172363,0.5242083072662354,-0.5399885177612305
1540.5568516254425,133.264404296875,-49.5919189453125,59.91371154785156,-15.82644271850586,4.463202476501465,5.898263931274414,-117.55828094482422,-69.5633316040039,-110.50177001953124,-4.660112380981445,-0.3454964756965637,0.0910043716430664,18.870698928833008,20.272645950317383,-46.92116165161133,-0.4330015182495117,12.652376174926758,-2.1482434272766118,-45.157352447509766,-64.02607727050781,-135.0706024169922,-6.304798126220703,2.2924113273620605,2.359674453735352,-177.49093627929688,-79.59921264648438,86.86235046386719,0.0653198659420013,3.2734179496765137,1.8890867233276367
1540.5865604877472,140.23509216308594,-40.03986358642578,47.20701217651367,-8.21906852722168,6.043269157409668,2.1881494522094727,-109.85845184326172,-72.37783813476562,-116.34521484375,-4.240228652954102,-0.8836349248886108,-0.6751337051391602,9.422565460205078,5.84760856628418,-41.615699768066406,18.89837646484375,19.239429473876957,-1.1620941162109375,-40.67511367797852,-66.26780700683594,-137.43161010742188,-8.788881301879883,-1.5278258323669434,1.7447776794433594,-175.1697998046875,-79.76399230957031,85.46403503417969,8.40102767944336,1.849661350250244,1.6347599029541016
1540.6165549755096,146.1505584716797,-30.043724060058597,36.5643196105957,-1.6676297187805176,3.610143184661865,-5.358830451965332,-98.85213470458984,-74.5006332397461,-124.37989044189452,-5.250102043151856,-0.064212366938591,-2.487411499023437,-17.62592124938965,-7.171525478363037,-39.09574508666992,7.839729309082031,3.990402221679688,-15.141427993774414,-33.727691650390625,-68.62217712402344,-141.90496826171875,-6.683333396911621,-1.6884381771087646,2.084364891052246,-175.20774841308594,-79.53104400634766,85.62720489501953,7.592422485351562,-0.3687692880630493,4.0288190841674805
1540.6463453769684,152.1690216064453,-21.028844833374023,28.5380973815918,0.1245278418064117,-2.2280378341674805,-11.100215911865234,-95.54570770263672,-75.22445678710938,-126.64557647705078,-4.766139984130859,-0.9605133533477784,-2.3523383140563965,-32.71807098388672,-17.91360855102539,-39.49232482910156,-15.180892944335938,-10.804367065429688,9.530033111572266,-23.902692794799805,-70.09312438964844,-147.640380859375,-3.611879825592041,-4.126266479492188,1.9098138809204104,-176.60342407226562,-79.92830657958984,86.66297149658203,0.9498797655105592,0.9989801645278932,2.8232316970825195
1540.6767280101776,159.12155151367188,-14.47325611114502,22.119348526000977,-1.3078327178955078,-3.038031578063965,-11.473617553710938,-97.58123779296876,-75.17493438720703,-124.30646514892578,-3.4587106704711914,-1.696847438812256,-2.117383480072021,-29.946916580200195,-28.109272003173828,-40.75827407836914,-3.4599995613098145,4.42050838470459,-2.5853052139282227,-12.656904220581056,-70.1787338256836,-153.8388214111328,-3.416584014892578,-5.634040832519531,-0.738286018371582,-175.18930053710938,-80.57907104492188,85.31183624267578,0.417540967464447,1.4698874950408936,-1.7740192413330078
1540.7070410251615,165.44387817382812,-12.147998809814451,15.629313468933104,4.306689262390137,-5.116617202758789,-7.861437797546387,-106.14969635009766,-74.06780242919922,-116.27891540527344,-4.2062177658081055,-2.049199104309082,-3.7930946350097656,-32.447410583496094,-39.101810455322266,-40.00667953491211,0.5538196563720703,0.7635380029678345,0.1153564453125,-3.459940195083618,-69.54081726074219,-158.7491455078125,-2.742074489593506,-5.288784980773926,-3.929513931274414,-171.8912811279297,-81.0239028930664,82.58707427978516,2.4249911308288574,0.5532804727554321,-3.955302238464356
1540.7370417118073,165.3728485107422,-14.653762817382812,8.873254776000977,8.499835968017578,-5.289143562316895,-7.707487106323242,-118.72492980957033,-71.17738342285156,-105.60013580322266,-5.605162620544434,-1.368849515914917,-2.047452449798584,-40.41989517211914,-50.84469223022461,-37.8720932006836,2.6298365592956543,-3.054032802581787,0.8438291549682617,3.216948747634888,-68.84380340576172,-162.75132751464844,-0.5216313600540161,-4.511384010314941,-4.853368759155273,-169.06483459472656,-80.74870300292969,79.8580322265625,2.671943664550781,-0.5794578790664673,-6.235709190368652
1540.796574831009,161.77349853515625,-21.18952369689941,3.8751449584960938,15.911043167114258,-5.55620002746582,-13.632200241088867,-128.4807586669922,-67.44347381591797,-98.59095764160156,-3.43692684173584,0.1743633449077606,1.0090866088867188,-45.24075698852539,-64.16968536376953,-39.77727508544922,-0.9244136810302734,-6.6692304611206055,15.561805725097656,8.603569030761719,-67.70960998535156,-167.0888671875,1.885978937149048,-5.769199371337891,-3.776236534118652,-165.56739807128906,-79.6673583984375,75.53003692626953,2.87680721282959,-2.6893601417541504,-8.296831130981445
1540.826575756073,159.78564453125,-27.79360008239746,2.033637285232544,-4.149041175842285,-6.824003219604492,31.41045379638672,-133.82041931152344,-65.60636138916016,-94.48097229003906,-3.3957648277282715,-0.5838363170623779,1.0454730987548828,-13.483223915100098,-74.7060317993164,-69.80813598632812,9.514602661132812,-0.0136709213256835,28.617855072021484,15.49606704711914,-65.45694732666016,-173.91836547851562,1.2076435089111328,-6.917781829833984,-2.0699567794799805,-162.02444458007812,-78.3001937866211,70.13795471191406,1.1420209407806396,-2.0667738914489746,-3.41503381729126
1540.8565945625303,161.66558837890625,-27.423694610595703,2.872317314147949,18.46351623535156,1.587716817855835,-14.607070922851562,-137.39822387695312,-65.47877502441406,-90.65496826171876,-5.647144317626953,-0.2198178172111511,-0.3612041473388672,-14.905795097351074,-75.84330749511719,-83.09748077392578,13.906286239624023,-4.133439064025879,2.932411193847656,31.70785522460937,-60.207149505615234,173.70797729492188,1.4642150402069092,-3.754775047302246,-1.0224809646606443,-156.8627166748047,-76.53848266601562,63.89950942993164,-5.012073516845703,2.7306628227233887,0.8963451385498047
1540.8861675262451,166.09934997558594,-25.435028076171875,4.970727443695068,16.856487274169922,1.635472536087036,4.249953269958496,-138.85415649414062,-66.18000030517578,-89.24972534179688,-7.253361701965332,0.0442624911665916,-0.3129386901855469,-65.85672760009766,-66.02457427978516,-56.216835021972656,-10.488231658935549,14.300113677978516,20.53057861328125,63.92942428588867,-50.81608581542969,158.7132568359375,2.096752166748047,-18.530975341796875,6.540693283081055,-150.8706512451172,-75.30891418457031,57.65065002441406,-1.6536297798156738,0.9681802988052368,7.438383102416992
1540.9162759780884,168.22727966308594,-20.142333984375,7.47004222869873,24.342071533203125,-5.565128326416016,13.982036590576172,-136.95021057128906,-67.55709838867188,-92.16058349609376,-7.041799545288086,0.1660191714763641,0.1846399307250976,-60.79169464111328,-54.635780334472656,-56.96308517456055,18.61459350585937,-11.765758514404297,18.36471939086914,78.91297149658203,-39.47190856933594,142.8141632080078,0.5892940759658813,-42.56404876708984,30.57262420654297,-146.9400634765625,-75.15559387207031,53.95742416381836,2.6989245414733887,-1.0346853733062744,5.473543167114258
1540.946415901184,166.2274169921875,-12.185391426086426,10.55351734161377,17.243671417236328,11.03066062927246,14.019502639770508,-131.84262084960938,-70.10043334960938,-99.49649810791016,-6.760774612426758,1.230109930038452,1.8648920059204104,-58.03764724731445,-42.82062530517578,-58.995391845703125,11.53591537475586,-17.02783966064453,6.099862098693848,79.49517822265625,-25.28264808654785,123.5008316040039,-16.849609375,-18.106773376464844,33.35535430908203,-143.4610595703125,-76.30638885498047,50.92581558227539,4.371747970581055,2.3141098022460938,9.891355514526367
1540.9765076637268,164.82505798339844,-4.264201641082764,11.581317901611328,16.087913513183594,1.8687939643859863,8.677970886230469,-118.69375610351562,-74.1594009399414,-115.3598175048828,-5.533344268798828,0.7987997531890869,5.725876808166504,-55.47434997558594,-33.05635452270508,-61.63087463378906,2.940870761871338,-13.712408065795898,5.988598823547363,71.26708984375,-10.823888778686523,104.1870574951172,-20.683528900146484,8.371234893798828,19.67797470092773,-144.09669494628906,-77.28102111816406,50.94233703613281,4.315985679626465,2.2258524894714355,6.847112655639648
1541.0063767433169,163.8989715576172,0.91391259431839,12.12607765197754,7.1806840896606445,-3.8163986206054688,-0.6133260726928711,-93.2616729736328,-77.27970123291016,-141.94248962402344,-5.606205940246582,-8.46290397644043,9.936418533325195,-49.92780303955078,-27.901477813720703,-64.76399230957031,-0.7261343002319336,-10.737020492553713,-1.703385353088379,59.25408554077149,-0.0181307382881641,88.12971496582031,-11.335735321044922,10.450353622436523,9.205686569213867,-150.95761108398438,-77.48157501220703,56.5125846862793,6.851052284240723,0.5184317827224731,8.22154426574707
1541.036679506302,165.160888671875,1.583739161491394,12.92337417602539,-1.239379644393921,-4.975746154785156,-7.595095634460449,-47.00277328491211,-75.80962371826172,178.59310913085938,0.9028987884521484,5.3764190673828125,-6.651124954223633,-47.05114364624024,-27.478708267211918,-68.11324310302734,-5.352635383605957,-5.031059265136719,-5.592959403991699,45.02389907836914,7.666624546051025,78.06169891357422,-13.916093826293944,7.462749481201172,-2.644798755645752,-160.5926055908203,-77.70624542236328,63.72588348388672,4.817943572998047,1.0988359451293943,6.039689064025879
1541.0967302322388,165.82827758789062,-2.6595258712768555,13.336730003356934,-2.6578497886657715,-6.663604736328125,-12.972118377685549,-34.850341796875,-73.86727142333984,172.25640869140625,-12.720060348510742,15.28641128540039,-12.625188827514648,-46.76131820678711,-31.01215362548828,-72.15223693847656,-6.022516250610352,-1.215695858001709,-6.34635066986084,29.562183380126957,14.019347190856934,73.037353515625,-12.76753044128418,4.583218574523926,-16.355663299560547,-170.94920349121094,-77.10973358154297,71.43061065673828,-0.8881696462631226,1.6236169338226318,-2.160538673400879
1541.1268286705017,163.8815460205078,-11.122716903686523,13.478645324707031,-0.2532879710197449,-5.698290824890137,-19.126026153564453,-43.96979904174805,-74.32624053955078,-175.00927734375,-3.4549784660339355,-1.1902244091033936,-8.722930908203125,-48.26107406616211,-36.87073516845703,-76.08604431152344,-5.375334739685059,0.8952181339263916,-7.511899948120117,15.56496810913086,19.96819496154785,70.85965728759766,0.8053741455078125,-1.1381747722625732,-17.20248794555664,-178.72698974609375,-74.3853759765625,77.61660766601562,-2.3644819259643555,0.182543009519577,-4.443907737731934
1541.1561901569366,160.0906982421875,-22.751861572265625,13.62785816192627,3.108247756958008,-3.3357338905334477,-17.79322052001953,-62.06742477416992,-75.33548736572266,-159.07386779785156,-0.4459545016288757,-4.265000343322754,-11.952919006347656,-48.47807312011719,-43.81257629394531,-79.9970703125,-4.12641716003418,1.876117706298828,-7.60103702545166,6.866790771484375,26.67652130126953,69.50311279296875,2.44494104385376,0.2860328555107116,-12.303956985473633,179.68577575683594,-71.49919891357422,79.49846649169922,-3.149237632751465,0.1720852851867675,-3.715038776397705
1541.1858353614807,156.52694702148438,-36.735107421875,13.969893455505373,4.705806732177734,-0.3025850653648376,-13.563072204589844,-75.93596649169922,-74.61038208007812,-150.31637573242188,-0.5380235910415649,4.124959945678711,-9.284809112548828,-47.375274658203125,-51.22080993652344,-83.825439453125,-2.2075467109680176,1.003063440322876,-8.543960571289062,5.323966026306152,33.60272979736328,69.9173812866211,5.577251434326172,-1.717982530593872,-12.560606002807615,-179.32760620117188,-71.01302337646484,79.91836547851562,1.0164530277252195,3.041919708251953,-10.343477249145508
1541.2166731357574,154.22418212890625,-52.63084030151367,14.837541580200195,4.1478376388549805,0.0121195428073406,-3.4657044410705566,-85.26927185058594,-73.53074645996094,-141.8238525390625,-5.900774002075195,-8.543123245239258,-5.991702079772949,-47.53765869140625,-58.80540084838867,-87.28553009033203,-1.0824263095855713,1.3001139163970947,-7.737812995910644,11.152530670166016,40.51771545410156,74.76302337646484,5.766698837280273,-0.6780756711959839,-12.084428787231444,179.22735595703125,-72.73129272460938,81.52835083007812,2.881254196166992,0.5077641010284424,-11.61378288269043
1541.2476732730863,151.3206024169922,-69.70126342773438,19.02656555175781,0.3772099018096924,3.9408068656921382,9.256092071533203,-98.44559478759766,-71.23680877685547,-131.23934936523438,-3.597307682037353,-6.682575225830078,2.5409069061279297,-47.17001724243164,-66.75277709960938,-92.06150817871094,0.2894299030303955,1.7124507427215576,-7.015844345092773,24.5108585357666,48.537017822265625,88.15125274658203,-0.0793240666389465,5.556107521057129,-19.482833862304688,176.1361541748047,-74.1246109008789,83.95484161376953,2.036345958709717,-0.8591957092285156,-8.650484085083008
1541.2761154174805,121.10220336914062,-83.65229797363281,57.30039596557617,-18.25537872314453,6.431285858154297,18.56829071044922,-107.4927215576172,-68.04769134521484,-124.6216812133789,-5.238987922668457,-1.941256046295166,4.9391374588012695,-44.326961517333984,-74.99151611328125,-100.4861297607422,0.8635364770889282,2.949042797088623,-4.731452941894531,39.79448699951172,53.54948043823242,108.2114028930664,-22.236724853515625,-1.2770061492919922,-26.793685913085938,172.94134521484375,-75.35015106201172,87.24278259277344,1.1340370178222656,-2.1767163276672363,-5.54990291595459
1541.306137084961,71.97642517089844,-82.03338623046875,114.0396728515625,-27.91934585571289,-7.189297676086426,-12.712125778198242,-106.35975646972656,-66.02420043945312,-125.19978332519533,-7.215822219848633,-3.9940457344055176,8.258378982543945,-19.72772979736328,-82.83880615234375,-130.41465759277344,0.9710243940353394,3.574920654296875,-0.274169921875,41.21450424194336,53.5836296081543,113.1426773071289,18.155929565429688,13.126937866210938,-7.47712516784668,169.71978759765625,-76.87105560302734,90.93338012695312,1.1933844089508057,-3.3388586044311523,-5.366160392761231
1541.3363733291626,108.8084945678711,-79.35542297363281,81.56371307373047,-27.09182357788086,14.417190551757812,0.3241033554077148,-91.32575988769533,-66.1453857421875,-134.51565551757812,-3.0299110412597656,-7.412335395812988,9.837451934814451,58.46225357055664,-82.96017456054688,145.30967712402344,-1.9833064079284668,3.3750877380371094,4.382307052612305,48.48264694213867,57.26735305786133,100.94155883789062,-18.579124450683597,-1.754213809967041,3.74941635131836,172.22227478027344,-75.78753662109375,89.18099975585938,4.705562591552734,-2.039330005645752,3.3323707580566406
1541.3969156742096,138.84451293945312,-74.65010833740234,54.78326034545898,15.500740051269531,5.874485015869141,2.5489368438720703,-80.10652160644531,-64.512939453125,-137.74266052246094,-8.413106918334961,-9.176525115966797,3.671011924743652,80.25479125976562,-79.52925872802734,113.80621337890624,-1.455888271331787,11.404890060424805,12.729244232177734,48.18468475341797,57.67924880981445,80.94175720214844,6.499011993408203,-4.886435508728027,-7.195278167724609,174.04763793945312,-74.71987915039062,88.83496856689453,4.179821014404297,-1.5214121341705322,11.19589614868164
1541.4269177913666,151.22824096679688,-71.61077117919922,42.504539489746094,2.8515658378601074,9.32777214050293,6.966131210327148,-83.4422378540039,-64.19670104980469,-127.5749282836914,-35.423545837402344,5.158051490783691,-4.756120681762695,83.60739135742188,-81.58667755126953,102.35777282714844,4.479466438293457,5.562515258789063,12.853050231933594,39.74467849731445,53.01723861694336,55.51508331298828,-9.788822174072266,10.359249114990234,-12.57659149169922,173.78585815429688,-74.32192993164062,89.74714660644531,0.0962162911891937,-0.3076132535934448,7.941370010375977
1541.457353591919,157.12460327148438,-69.87731170654297,38.70634078979492,5.956814765930176,-12.04852294921875,7.466510772705078,-104.66691589355467,-63.05728912353516,-103.40850830078124,-23.23693084716797,0.3407759070396423,1.0099754333496094,108.79285430908205,-84.95845794677734,81.6313247680664,2.119689464569092,10.330251693725586,11.320960998535156,30.97028160095215,41.265846252441406,39.88853073120117,-7.677193641662598,-2.090506076812744,-11.954593658447266,177.75059509277344,-73.39908599853516,89.15576171875,-4.259498596191406,-2.7223753929138184,5.976118087768555
1541.486474275589,165.34730529785156,-69.61528778076172,34.51065826416016,-0.4776179194450378,-5.081787109375,1.4175891876220703,-122.3755874633789,-59.19871139526367,-80.711181640625,-7.961295127868652,-2.257859706878662,-7.756894111633301,148.8820037841797,-86.83838653564453,50.38278579711914,7.726720809936523,-14.532243728637695,4.756957054138184,27.60812187194824,26.24009704589844,31.3518123626709,-3.906200885772705,-3.541203022003174,-15.866016387939451,-176.58946228027344,-72.27024841308594,89.57872772216797,-5.210257530212402,0.9601802825927734,-1.7721948623657229
1541.5164222717283,172.05514526367188,-70.32002258300781,27.51969718933105,-0.1938942670822143,1.855025291442871,0.7278785705566406,-133.33633422851562,-53.44937896728516,-65.35863494873047,2.0883822441101074,1.209587335586548,-16.92141342163086,-178.0118865966797,-87.4378433227539,22.083740234375,0.9936349391937256,3.4303927421569824,-4.073576927185059,26.186378479003903,10.196242332458496,25.9894962310791,5.376200675964356,-10.037836074829102,-3.422313690185547,-173.7534637451172,-70.88126373291016,90.5278778076172,0.7742266654968262,4.120006561279297,-5.933099746704102
1541.5468380451202,178.4853973388672,-70.94293975830078,20.39659881591797,0.5684331655502319,0.6217381954193115,0.4801292419433594,-140.52664184570312,-48.03794860839844,-56.91699981689453,4.544200897216797,7.431747436523437,-22.330944061279297,-141.24374389648438,-87.13556671142578,-7.315922260284424,-3.146017074584961,-2.50825834274292,-2.709646224975586,31.165807723999023,-3.6951823234558105,23.654464721679688,18.073955535888672,-26.60281753540039,-1.8540682792663572,-175.56988525390625,-70.4384765625,91.77960205078124,5.654214859008789,-1.7642991542816162,4.164460182189941
1541.57679605484,-175.67669677734375,-71.39073944091797,14.149752616882324,0.5857194662094116,1.5267179012298584,-0.2681446075439453,-147.4793701171875,-44.53874206542969,-51.614356994628906,0.6285061836242676,5.611104965209961,-17.95504379272461,-110.94259643554688,-86.61343383789062,-34.45273971557617,-4.66239070892334,-4.879696846008301,-0.8690881729125977,49.52703475952149,-14.841630935668944,26.46586036682129,11.414007186889648,-11.413545608520508,-7.131511688232422,-178.55526733398438,-70.9194564819336,93.75831604003906,-2.2998642921447754,1.95291805267334,2.546701431274414
1541.6065084934237,-172.2253875732422,-71.50172424316406,9.925992965698242,1.077167510986328,1.809684991836548,0.0599355697631835,-154.2033233642578,-43.90649032592773,-47.93687057495117,0.4677124619483948,4.22092342376709,-10.306039810180664,-94.36264038085938,-86.37448120117188,-51.68821716308594,-7.70750617980957,-2.3675436973571777,-1.5624656677246094,63.02337265014648,-26.126426696777344,30.745990753173828,-12.91263198852539,10.56839370727539,7.056629180908203,-179.9635467529297,-71.8071060180664,94.36615753173828,-6.793609619140625,2.7667903900146484,-0.1949605941772461
1541.636904001236,-171.04876708984375,-71.06221771240234,7.510883331298828,1.5968093872070312,0.2751685976982116,-0.5049448013305664,-160.03990173339844,-46.46648788452149,-45.609474182128906,-0.5510951280593872,1.2512457370758057,-4.299919128417969,-82.58197784423828,-85.58129119873047,-63.94740676879883,-6.149984359741211,-0.3153400421142578,-2.3798656463623047,64.44364929199219,-36.77949523925781,32.753318786621094,-9.120149612426758,1.1176002025604248,-1.352797508239746,-179.40478515625,-72.96730041503906,93.44093322753906,-2.3006653785705566,3.152313232421875,-4.386237144470215
1541.696548461914,-170.88119506835938,-69.95658874511719,6.481788158416748,0.944549560546875,0.8118196725845337,-1.537557601928711,-163.65342712402344,-51.38301467895508,-44.4484977722168,4.634568214416504,0.9298428297042848,0.7698211669921875,-75.37564849853516,-82.63912963867188,-71.76832580566406,-4.46302604675293,-1.5049853324890137,-2.4255943298339844,64.47998809814453,-47.91606140136719,35.46548080444336,-2.622572898864746,-0.2054799199104309,-1.641362190246582,178.75698852539062,-74.00116729736328,95.14736938476562,1.1205658912658691,3.389139175415039,-4.495059013366699
1541.726615190506,-172.1428985595703,-68.10453796386719,7.731433391571045,1.6168456077575684,0.3314056992530823,-0.5496549606323242,-155.8868865966797,-59.036651611328125,-45.45815658569336,-13.474138259887695,10.614551544189451,23.110694885253903,-73.92478942871094,-77.38380432128906,-75.55211639404297,-4.174126625061035,-0.3978286981582641,-2.9216537475585938,60.16542434692383,-59.42190933227539,43.4355583190918,-2.353421211242676,0.3092659115791321,2.171015739440918,170.92132568359375,-74.8908462524414,100.78824615478516,0.940792679786682,0.7757837772369385,-4.512611389160156
1541.7566137313845,-175.5706024169922,-65.01335906982422,11.34017562866211,1.253983974456787,4.193984031677246,-2.27985954284668,-152.04811096191406,-59.98426055908203,-46.38664245605469,11.80788230895996,-7.943284034729004,2.255307197570801,-73.59358215332031,-70.31744384765625,-79.34761047363281,-3.545335292816162,0.3522506952285766,-4.759822845458984,38.210899353027344,-69.62370300292969,68.92831420898438,-1.1144475936889648,2.942596435546875,9.360822677612305,159.82054138183594,-75.25865936279297,108.0388641357422,-0.2233520150184631,-0.5591046810150146,-5.45570182800293
1541.786285161972,-177.87710571289062,-60.90354919433594,14.999841690063477,1.5793113708496094,2.5036463737487797,-0.6897192001342773,-153.1102752685547,-59.99041366577149,-48.41740036010742,7.454312324523926,-10.841226577758787,12.11044692993164,-73.39259338378906,-62.25206756591797,-83.84247589111328,-1.6233985424041748,0.3501181006431579,-5.841428756713867,-4.340864181518555,-70.7725830078125,118.7912826538086,-3.1029577255249023,9.67816162109375,16.326610565185547,147.82054138183594,-75.5063247680664,116.44010925292967,-1.2786333560943604,-0.1421882212162017,-3.013713359832764
1541.8165183067322,179.5176544189453,-55.99256134033203,18.826631546020508,0.403342068195343,2.7999496459960938,-1.6374530792236328,-155.67364501953125,-57.62668991088867,-50.92518997192383,1.8836557865142824,-8.030750274658203,11.74477195739746,-68.18051147460938,-55.9540901184082,-92.62364196777344,3.091557025909424,-3.110750675201416,-10.241212844848633,-19.03670692443848,-70.66744995117188,149.17385864257812,-17.57634735107422,-11.741872787475586,6.984380722045898,136.07681274414062,-75.7693099975586,125.9704818725586,-1.0417909622192385,-0.5424315929412842,-5.014618873596191
1541.8469285964966,178.3943328857422,-51.39218521118164,21.877389907836918,-0.0727450102567672,-0.5216357707977295,1.625168800354004,-155.22113037109375,-55.32725524902344,-49.769569396972656,-1.5327229499816897,-13.882568359375,12.25762939453125,-66.83496856689453,-50.51065826416016,-104.00121307373048,-0.2316837906837463,2.448925018310547,-2.198596477508545,-32.63292694091797,-76.83731079101562,156.88748168945312,-0.1067615151405334,-2.3722691535949707,-0.6627912521362305,122.3478546142578,-75.73341369628906,138.26795959472656,-1.60479474067688,2.319620132446289,2.5651960372924805
1541.8761551380155,177.78648376464844,-47.728275299072266,24.50801658630371,-0.3204818367958069,-1.7159245014190674,1.8593997955322263,-152.1007537841797,-53.046905517578125,-46.92912292480469,3.893540859222412,-16.166927337646484,14.690618515014648,-70.20406341552734,-44.81399917602539,-114.19920349121094,3.7428135871887207,7.467683792114258,11.219005584716797,-46.10067367553711,-80.08293914794922,164.64959716796875,18.30487823486328,6.165922164916992,8.52418327331543,117.7303466796875,-74.70954132080078,142.34994506835938,-5.777934074401856,-0.7132164239883423,7.326679229736328
1541.9063594341278,177.4393310546875,-45.39834213256836,25.985668182373047,0.2787472009658813,-3.124338150024414,2.0195541381835938,-154.3297882080078,-50.1900520324707,-43.21858596801758,6.998703956604004,-10.009635925292969,6.517860412597656,-66.9583969116211,-37.98971939086914,-119.3443374633789,9.953346252441406,17.296283721923828,29.88620376586914,-61.23591995239258,-80.79670715332031,177.31451416015625,2.8050074577331543,0.4865684509277344,12.444595336914062,117.72664642333984,-74.43462371826172,142.1376953125,-1.6877233982086182,1.0458285808563232,9.616962432861328
1541.9369180202484,177.89210510253906,-44.66877365112305,25.928979873657227,0.160499095916748,-3.098715305328369,3.283831596374512,-155.2530975341797,-50.51393127441406,-39.31747055053711,-1.574772596359253,1.2918486595153809,12.154867172241213,-65.02239227294922,-27.82218742370605,-115.2634048461914,7.19492244720459,17.94281005859375,30.612285614013672,-86.3875961303711,-82.51040649414062,-162.56439208984375,3.097492218017578,-7.91657829284668,21.07217025756836,120.74315643310548,-74.82522583007812,139.23348999023438,-2.818987369537353,-1.1712431907653809,12.744609832763672
1541.9967319965365,178.3580780029297,-45.67621612548828,24.916259765625,-0.1906149685382843,-2.310790061950684,2.865001678466797,-156.48770141601562,-53.205848693847656,-36.34486770629883,4.860658645629883,9.951374053955078,0.0604925155639648,-58.781497955322266,-12.397754669189451,-106.24761199951172,-0.6181774139404297,4.628342628479004,27.27054214477539,-113.76521301269533,-83.6579818725586,-133.7841033935547,3.553622245788574,-4.246732711791992,16.40869140625,127.77136993408205,-75.27391815185547,133.1375274658203,-5.309186935424805,0.2092309296131134,8.565723419189453
1542.0260589122772,178.92869567871094,-48.30644226074219,23.46185874938965,0.372369110584259,-0.717868447303772,2.2657718658447266,-152.95791625976562,-58.96491622924805,-35.91455078125,2.442291259765625,11.054670333862305,-3.7945308685302734,-50.74431228637695,4.370596885681152,-95.18242645263672,-1.7531428337097168,-2.7549285888671875,10.665197372436523,-120.22433471679688,-83.22370147705078,-119.2257080078125,-2.088538646697998,-2.014080047607422,11.509471893310549,135.6716766357422,-75.97894287109375,127.21571350097656,-2.241950511932373,2.011313438415528,7.660743713378906
1542.0566174983978,-179.9005889892578,-52.44508361816406,22.13587188720703,-0.5932910442352295,0.3379797339439392,2.903866767883301,-143.00213623046875,-66.4552993774414,-42.4311637878418,2.8755359649658203,9.32187843322754,-7.861352920532227,-42.74412536621094,19.27985191345215,-82.15194702148438,-6.7446699142456055,-7.96337890625,10.101936340332031,-106.52610778808594,-83.08605194091797,-126.8441925048828,-6.730439186096191,-8.217676162719727,7.515357971191406,145.45408630371094,-76.52893829345703,120.075439453125,-1.4947564601898191,4.028051376342773,2.792546272277832
1542.0866959095,-178.9381561279297,-58.062625885009766,21.40372657775879,3.6971898078918457,-2.5618815422058105,6.027756690979004,-122.51326751708984,-73.03614807128906,-62.63638687133789,0.7199279069900513,4.051733016967773,-8.879560470581055,-30.741947174072266,30.10224914550781,-70.96039581298828,-5.22599983215332,-9.948553085327148,-3.316126823425293,-70.10169982910156,-81.91019439697266,-156.7135467529297,-3.581657886505127,-8.299455642700195,2.754881858825684,155.37673950195312,-75.93946075439453,113.2771987915039,-2.494339942932129,3.333367824554444,0.2680187225341797
1542.1166927814484,-178.87147521972656,-65.94202423095703,18.015581130981445,12.76180648803711,3.574845314025879,3.856011390686035,-87.60662841796875,-75.06197357177734,-101.06339263916016,-1.3622748851776123,0.6375347375869751,-6.783674240112305,-19.544607162475582,37.325828552246094,-61.30637741088867,-6.414125442504883,-7.840075492858887,-2.479637622833252,-36.008827209472656,-77.85728454589844,-179.62757873535156,-6.065385818481445,-6.899126052856445,-5.493001937866211,160.43218994140625,-75.31010437011719,111.0667495727539,-1.3548681735992432,-0.3560942411422729,-3.039368152618408
1542.146689414978,175.85462951660156,-69.31746673583984,19.857988357543945,-0.87471604347229,3.929990768432617,-5.29560661315918,-59.87067794799805,-70.82044982910156,-134.90289306640625,-7.248639106750488,-2.9748263359069824,-6.767281532287598,-5.837603092193604,42.36806869506836,-53.02498245239258,-6.828717231750488,-4.379684448242188,-6.697484970092773,-13.217754364013672,-73.77063751220703,168.18368530273438,-4.118511199951172,-8.629598617553711,-10.389532089233398,162.5580596923828,-75.70094299316406,110.50939178466795,0.8801999092102051,-1.3954734802246094,-7.712397575378418
1542.176923274994,171.85992431640625,-69.16264343261719,26.906414031982425,-10.99893569946289,1.2089285850524902,-4.227206230163574,-50.40468597412109,-64.01453399658203,-153.70108032226562,-15.071939468383787,-3.364306926727295,-5.44333553314209,6.277782917022705,46.902976989746094,-47.7170524597168,-2.4262852668762207,-0.8113536834716797,-7.934001922607422,4.967210292816162,-70.54145812988281,156.35763549804688,-1.564662218093872,-7.676888465881348,-13.047966003417969,165.10353088378906,-76.47547149658203,109.77835083007812,-0.9379733800888062,0.5083204507827759,-11.25502586364746
1542.206494808197,171.1644744873047,-67.57138061523438,34.23613357543945,3.846157550811768,11.103578567504885,-12.903913497924805,-55.25716400146485,-58.25492858886719,-161.0851287841797,-21.98782730102539,-4.149370193481445,-11.625322341918944,14.703691482543944,52.75893783569336,-47.78623580932617,-1.8431122303009035,0.0485718250274658,-11.196039199829102,19.681575775146484,-67.54425048828125,144.4137725830078,0.31959068775177,-4.998022079467773,-13.101207733154297,167.4983367919922,-77.39395141601562,110.9230499267578,-1.193514108657837,0.9030576944351196,-9.783109664916992
1542.2366321086884,172.52955627441406,-69.05883026123047,38.969146728515625,-11.349515914916992,-8.599918365478516,-6.184049606323242,-65.1626205444336,-56.104637145996094,-161.93211364746094,-20.039512634277344,3.802649974822998,-15.72647476196289,16.31218719482422,59.83544158935547,-56.11168670654297,-1.0689661502838137,1.8829946517944336,-14.170806884765623,31.412992477416992,-64.45819854736328,133.18185424804688,0.582335352897644,-3.7348861694335938,-12.191381454467772,167.86111450195312,-78.7962646484375,113.98529052734376,-0.6867514848709106,0.8431612253189087,-7.893369674682617
