Timestamp,D4:22:CD:00:05:5D_EulerX,D4:22:CD:00:05:5D_EulerY,D4:22:CD:00:05:5D_EulerZ,D4:22:CD:00:05:5D_FreeAccX,D4:22:CD:00:05:5D_FreeAccY,D4:22:CD:00:05:5D_FreeAccZ,D4:22:CD:00:05:5E_EulerX,D4:22:CD:00:05:5E_EulerY,D4:22:CD:00:05:5E_EulerZ,D4:22:CD:00:05:5E_FreeAccX,D4:22:CD:00:05:5E_FreeAccY,D4:22:CD:00:05:5E_FreeAccZ,D4:22:CD:00:05:6B_EulerX,D4:22:CD:00:05:6B_EulerY,D4:22:CD:00:05:6B_EulerZ,D4:22:CD:00:05:6B_FreeAccX,D4:22:CD:00:05:6B_FreeAccY,D4:22:CD:00:05:6B_FreeAccZ,D4:22:CD:00:05:6E_EulerX,D4:22:CD:00:05:6E_EulerY,D4:22:CD:00:05:6E_EulerZ,D4:22:CD:00:05:6E_FreeAccX,D4:22:CD:00:05:6E_FreeAccY,D4:22:CD:00:05:6E_FreeAccZ,D4:22:CD:00:49:AA_EulerX,D4:22:CD:00:49:AA_EulerY,D4:22:CD:00:49:AA_EulerZ,D4:22:CD:00:49:AA_FreeAccX,D4:22:CD:00:49:AA_FreeAccY,D4:22:CD:00:49:AA_FreeAccZ
2459.8500673770905,173.83262634277344,-52.26678466796875,-88.63876342773438,2.776223659515381,6.831398963928223,-2.876112461090088,-157.9002227783203,-47.39224624633789,-25.997467041015625,9.881217956542969,-2.043732166290283,6.883699417114258,-54.83443069458008,-33.38893127441406,-39.52946472167969,-5.646479606628418,10.870943069458008,18.412643432617188,102.64498901367188,-60.60729598999024,24.858850479125977,-0.7622995376586914,9.398509979248049,13.503564834594728,138.4059295654297,-71.31891632080078,139.5538330078125,4.288562774658203,1.5395865440368652,2.070505142211914
2459.854066133499,173.7890625,-50.01534652709961,-88.41552734375,0.8425756692886353,1.064608812332153,2.665333747863769,-154.65139770507812,-46.15595245361328,-28.39527702331543,2.570542812347412,3.103938579559326,-1.366438865661621,-53.43867874145508,-19.72883033752441,-36.09868240356445,0.968698501586914,13.61966323852539,27.87557983398437,101.85547637939452,-62.49660110473633,34.643638610839844,1.836543083190918,3.9624428749084473,8.797126770019531,136.12928771972656,-71.3973159790039,140.2693634033203,2.061246871948242,-0.7855633497238159,7.184499740600586
2459.85706615448,174.07562255859375,-49.504173278808594,-88.50566101074219,-3.208703994750977,-0.9254031181335448,3.8966121673583984,-152.06326293945312,-49.376590728759766,-33.78568649291992,0.213209331035614,5.524886131286621,-5.324954986572266,-42.62670516967773,-3.83340048789978,-31.317989349365234,12.379613876342772,9.07489013671875,28.150997161865234,104.00941467285156,-65.71269226074219,44.35463333129883,-3.99039077758789,-2.443108558654785,3.711686134338379,139.49072265625,-69.78096771240234,135.66900634765625,-6.193037986755371,-5.571650505065918,11.424999237060549
2459.9344415664677,-121.16243743896484,-73.0642318725586,-160.40911865234375,1.680577039718628,-3.79666805267334,-0.4912118911743164,-107.42952728271484,-74.53650665283203,-75.57749938964844,-2.522228240966797,-3.1663780212402344,9.57110595703125,-78.49665069580078,-35.0798225402832,-89.3915023803711,2.383374691009521,3.123530387878418,-1.1453227996826172,-96.23023223876952,28.225919723510746,-174.512939453125,-17.847843170166016,0.2100109755992889,-16.23337173461914,161.02272033691406,-81.34222412109375,124.88386535644533,-0.3840702176094055,-0.8217751979827881,-5.551665306091309
2459.964965581894,-112.65511322021484,-71.90262603759766,-165.45208740234375,-0.1623705327510833,1.7826979160308838,-1.3099517822265625,-157.62620544433594,-73.86713409423828,-25.31910514831543,-0.2181508541107177,-8.011629104614258,10.11737823486328,-70.90750122070312,-25.09072494506836,-97.81291198730467,1.616640567779541,2.366837978363037,-0.1848096847534179,-103.74884033203124,21.135669708251957,-176.1814422607422,-37.4117431640625,-4.927799224853516,-23.356956481933597,166.2486572265625,-80.80392456054688,120.7228012084961,-3.246649742126465,-3.0131421089172363,-2.858168601989746
2459.994965314865,-120.63455963134766,-72.4619369506836,-153.5429229736328,-2.907262325286865,3.9454598426818848,-1.5048542022705078,173.13092041015625,-67.82230377197266,9.59615421295166,-2.598010540008545,-3.574021339416504,13.672271728515623,-67.19331359863281,-15.290200233459473,-100.27986907958984,3.640720844268799,0.3365201950073242,5.490522384643555,-104.47795104980467,-28.116641998291016,179.98532104492188,-29.136455535888672,6.688392639160156,-4.578590393066406,-173.2537384033203,-79.44892883300781,102.75850677490234,2.936653614044189,0.721773624420166,-0.5399961471557617
2460.0546765327454,-138.81129455566406,-73.91905975341797,-129.9233856201172,7.399462699890137,5.778237342834473,-4.591405868530273,169.15115356445312,-59.29758071899414,17.958446502685547,3.606481552124024,4.614989280700684,13.924833297729492,-58.947052001953125,-6.10386323928833,-100.87408447265624,1.1609442234039309,-8.242927551269531,6.081142425537109,-114.61668395996094,-72.10161590576172,-169.7866668701172,3.687644481658936,-11.5972900390625,11.567422866821287,-178.41751098632812,-78.87489318847656,109.80318450927734,8.29774284362793,4.19582462310791,-3.053719997406006
2460.0848524570465,-150.9727325439453,-71.4072036743164,-114.9815902709961,-3.725162029266357,1.662745714187622,0.4358434677124023,174.10342407226562,-54.84460067749024,15.688311576843262,1.322356939315796,9.86968231201172,9.042335510253906,-55.83659744262695,2.0330753326416016,-99.21263122558594,-2.802544116973877,-8.192161560058594,6.578369140625,34.198486328125,-84.10681915283203,60.89625930786133,-7.053864479064941,10.04362678527832,10.125022888183594,168.22055053710938,-77.40898895263672,123.56047058105467,-2.047820568084717,-1.153468132019043,6.530447006225586
2460.1148521900177,-160.62298583984375,-68.61311340332031,-103.99996948242188,-5.0832929611206055,2.357285022735596,-0.0222015380859375,-179.20230102539062,-52.36749267578125,7.169888496398926,-1.4879770278930664,11.405254364013672,2.3572511672973637,-57.40531539916992,10.152926445007324,-94.50112915039062,-1.0405738353729248,-9.249025344848633,16.070232391357422,70.2292251586914,-74.45132446289062,31.89640235900879,-0.4815251231193542,5.091548919677734,5.840529441833496,167.7241973876953,-76.04534912109375,124.87834167480467,-0.6057093143463135,-1.0274007320404053,6.433172225952148
2460.1448681354523,-166.35975646972656,-66.0869369506836,-97.95417785644533,-3.0566844940185547,2.2470779418945312,0.4982147216796875,-168.92359924316406,-51.34994888305664,-4.811320781707764,-1.7247717380523682,7.419546127319336,-3.4812464714050293,-52.654422760009766,20.113649368286133,-88.79833984375,2.8718271255493164,-16.624160766601562,20.53874969482422,76.01397705078125,-71.10227966308594,33.79293441772461,1.2482259273529053,2.206336498260498,4.220460891723633,170.0894775390625,-75.17720031738281,123.5421142578125,2.973894596099853,1.4925906658172607,4.455894470214844
2460.174395084381,-168.74081420898438,-64.2263412475586,-95.20128631591795,-2.1642541885375977,2.656813621520996,0.8995542526245117,-155.85147094726562,-51.844383239746094,-19.304533004760746,1.6476261615753174,2.28981876373291,-11.439373016357422,-39.208744049072266,32.94571685791016,-82.50597381591797,1.771245002746582,-18.67465591430664,13.109458923339844,76.37764739990234,-72.05406951904297,45.729095458984375,-3.377246856689453,0.8930495977401733,3.810705184936523,169.84658813476562,-74.79713439941406,124.34812927246094,0.1832050681114196,2.2480454444885254,5.54344367980957
2460.205395460129,-170.27099609375,-63.44417190551758,-93.4352569580078,-0.761430025100708,2.979722023010254,1.3098134994506836,-142.1396484375,-53.72328567504883,-35.103885650634766,5.3938188552856445,-0.8869849443435669,-14.055501937866213,-18.32862091064453,47.63333511352539,-73.4992446899414,-2.3753976821899414,-19.21088409423828,2.618971824645996,64.48383331298828,-75.08219909667969,67.45816802978516,-11.351835250854492,-3.6685538291931152,4.640106201171875,171.08685302734375,-75.07839965820312,124.2342300415039,-2.804718017578125,0.2884056568145752,4.537749290466309
2460.235409975052,-171.97203063964844,-63.89170837402344,-91.2356185913086,-0.1999338865280151,2.6191577911376958,0.964773178100586,-125.25293731689452,-57.756591796875,-54.44454574584961,4.506072998046875,-4.287140846252441,-12.943628311157228,8.430514335632324,59.231571197509766,-56.64171600341797,-2.964226722717285,-9.957527160644531,-5.115720748901367,39.91744995117188,-76.94163513183594,99.1076431274414,-9.400962829589844,-7.307090759277344,0.7079372406005859,175.07489013671875,-75.99507904052734,122.41409301757812,-2.0324063301086426,1.7957794666290283,4.2033796310424805
2460.2649459838867,-173.26405334472656,-65.30039978027344,-88.87910461425781,-2.257989883422852,1.8899681568145752,0.5659265518188477,-101.97508239746094,-62.28395462036133,-80.47401428222656,0.6380914449691772,-6.863376617431641,-9.98617935180664,35.32405471801758,62.86534881591797,-33.05519485473633,-7.485796928405762,-4.359217643737793,-2.925539970397949,16.83661460876465,-75.73609161376953,130.96900939941406,-8.269189834594727,-7.999868392944336,-3.22904109954834,-178.9192352294922,-77.13424682617188,118.92878723144533,-1.369286298751831,2.2457776069641118,3.0748414993286133
2460.294939756393,-173.9046173095703,-67.37261962890625,-87.40815734863281,-2.830838680267334,1.8416049480438232,0.5639572143554688,-70.80155181884766,-63.41838073730469,-114.89419555664062,-5.7862958908081055,-8.64724349975586,-5.599813461303711,50.38380432128906,59.74018096923828,-16.012380599975586,-9.237245559692385,-0.7866151332855225,-1.5049076080322266,6.266124248504639,-73.2973861694336,150.59698486328125,-6.304017066955566,-8.809318542480469,-4.300559043884277,-171.30673217773438,-78.09806060791016,113.5687026977539,-0.1181918531656265,1.8201699256896973,0.0084638595581054
2460.3544883728027,-173.7291259765625,-70.10821533203125,-87.49616241455078,-2.15383529663086,1.838765382766724,0.3630409240722656,-46.83586883544922,-59.33155059814453,-146.1393585205078,-18.32494354248047,-11.66277313232422,-4.529195785522461,51.4360466003418,56.03554153442383,-8.433252334594727,-7.693780899047852,0.0067071914672851,-5.685916900634766,5.963812828063965,-70.98123168945312,159.95274353027344,-3.902046203613281,-7.825765609741211,-4.680828094482422,-161.6313934326172,-78.63228607177734,105.35330200195312,1.8709399700164795,2.2691659927368164,-2.708003044128418
2460.389488220215,-172.55709838867188,-73.40805053710938,-89.51812744140625,-1.2411561012268066,1.2119925022125244,0.3081312179565429,-37.11478042602539,-53.9249382019043,-166.7772979736328,-26.101490020751957,-3.7729086875915527,1.5126457214355469,50.989532470703125,54.36577987670898,-5.987555503845215,-4.853835105895996,1.92611026763916,-7.896394729614258,11.044100761413574,-68.71647644042969,164.10968017578125,-1.3876423835754397,-7.137056350708008,-5.895346641540527,-152.56832885742188,-78.63195037841797,97.559814453125,2.315553665161133,2.0904369354248047,-5.129853248596191
2460.415482759476,-169.91004943847656,-77.1913070678711,-93.19940948486328,0.1395242810249328,1.2347877025604248,-0.0010433197021484,-24.740711212158203,-49.97127151489258,-179.36634826660156,-24.78563690185547,8.791269302368164,-23.103763580322266,51.73614501953125,54.08822250366211,-6.9191765785217285,-4.89919376373291,4.506539344787598,-7.053157806396484,15.741355895996094,-66.31918334960938,166.17416381835938,-0.4211328029632568,-9.582963943481444,-6.173002243041992,-148.72703552246094,-78.90298461914062,94.2348175048828,0.9451096057891846,1.191624641418457,-6.692282676696777
2460.445667028427,-163.60726928710938,-81.12429809570312,-100.70494842529295,-2.309190273284912,0.9511550664901732,-0.6935653686523438,-17.68120765686035,-54.34113693237305,177.85633850097656,-29.351341247558597,4.245962142944336,-26.39529037475586,53.36762237548828,56.61168670654297,-13.335022926330566,2.9552040100097656,1.27683687210083,-4.309534072875977,15.56009006500244,-63.44796371459961,168.9792022705078,1.398390769958496,-7.704623222351074,-6.228805541992188,-147.20277404785156,-79.57672119140625,91.94365692138672,-1.68495512008667,-0.6318792104721069,-6.455330848693848
2460.4752004146576,-150.26675415039062,-84.6026840209961,-115.35881042480467,1.1229188442230225,-0.1417685747146606,-1.9063692092895508,-23.612043380737305,-63.19624328613281,-178.32591247558594,8.737337112426758,-4.338294982910156,8.990005493164062,47.11999130249024,64.02508544921875,-30.678953170776367,14.763242721557615,9.554777145385742,1.6260709762573242,14.793136596679688,-60.29530715942383,171.71536254882812,2.3914685249328613,-5.351239204406738,-5.853245735168457,-144.30166625976562,-80.05824279785156,88.09635162353516,-2.879796504974365,-2.6414709091186523,-5.5361738204956055
2460.5052042007446,-139.97366333007812,-86.56920623779297,-125.61650848388672,1.7379801273345947,-5.364500999450684,-2.97744083404541,-29.48539161682129,-69.59169006347656,-175.29995727539062,-1.4413182735443115,-6.421847343444824,0.3826971054077148,6.885143756866455,69.1423568725586,-74.74479675292969,7.723979949951172,0.2824842929840088,-14.841838836669922,14.877448081970217,-57.7486572265625,175.60714721679688,-0.2017628252506256,-7.982577323913574,-4.306933403015137,-142.78976440429688,-79.90364837646484,86.43228912353516,-2.610368251800537,-3.2441139221191406,-1.3098697662353516
2460.535218477249,-163.6044921875,-87.15573120117188,-100.99769592285156,0.2671424746513366,-0.7043273448944092,0.3595304489135742,-49.955684661865234,-76.16956329345703,-164.67808532714844,-7.596030235290527,-3.195549488067627,6.696575164794922,-33.50273895263672,58.93553924560547,-126.69635009765624,-18.320953369140625,-13.336837768554688,-38.932647705078125,13.716883659362791,-57.438133239746094,-179.65943908691406,0.5482029914855957,-11.044843673706056,-4.650361061096191,-149.6103973388672,-80.50777435302734,90.4401397705078,-1.568572759628296,0.3877520561218261,5.467656135559082
2460.5647463798523,161.56155395507812,-86.35653686523438,-66.55361938476562,-1.9424574375152588,1.5583949089050293,0.5861749649047852,-67.9864273071289,-79.9237060546875,-148.63198852539062,-3.220770835876465,6.91195011138916,-1.5761165618896484,-34.50008010864258,47.67679214477539,-150.53402709960938,-5.316340446472168,1.0804595947265625,-24.031883239746094,11.201619148254396,-60.145484924316406,-176.5775604248047,2.6406874656677246,-8.73460578918457,-4.125096321105957,-157.2916717529297,-81.94051361083984,92.35355377197266,-0.8511221408843994,0.0866430103778839,2.1800012588500977
2460.594746828079,135.08773803710938,-84.275634765625,-40.047176361083984,0.2421879172325134,-0.4637397527694702,-0.0388250350952148,-86.44209289550781,-82.40524291992188,-132.03826904296875,-4.3260698318481445,1.6171674728393557,2.849407196044922,-46.05688095092773,50.1933708190918,-142.46014404296875,-1.7090461254119873,-0.6229685544967651,7.3569488525390625,7.331588268280029,-65.18297576904297,-176.36001586914062,0.9105596542358398,-7.338623046875,-1.4247570037841797,-153.87127685546875,-83.84069061279297,85.91858673095703,-0.6686022281646729,-0.3782724142074585,-4.469484329223633
2460.655067920685,122.51119232177734,-81.74412536621094,-27.56929588317871,-0.3723913431167602,1.983079195022583,0.7741327285766602,-93.99024200439452,-85.36739349365234,-124.48089599609376,-4.278409004211426,0.7496808767318726,0.5027570724487305,-40.85068893432617,54.775909423828125,-124.42041778564452,-8.291746139526367,-2.1005401611328125,-4.558773994445801,2.335492849349976,-71.3788070678711,-178.2669219970703,-3.3409581184387207,-6.816658020019531,1.962240219116211,-164.2038116455078,-83.36123657226562,94.66544342041016,2.300401210784912,-1.002310276031494,-1.777118682861328
2460.6850678920746,112.7740707397461,-79.36477661132812,-19.1396427154541,-0.7119642496109009,1.2660682201385498,2.242359161376953,-97.14071655273438,-87.86788177490234,-121.80768585205078,-4.939422607421875,-0.9775435924530028,-0.4524307250976562,-18.914535522460938,52.796234130859375,-101.43450927734376,-9.201494216918944,0.9053239822387696,-3.836105346679688,-2.3146660327911377,-77.26318359375,178.6050567626953,-4.550140380859375,-4.757789611816406,4.825918197631836,-167.5568084716797,-81.39134216308594,93.09886932373048,5.352807998657227,-2.216740608215332,3.685439109802246
2460.7150678634644,107.60663604736328,-76.90672302246094,-16.952199935913086,4.103178024291992,-0.9157685041427612,6.126071929931641,-34.51520919799805,-89.5869369506836,174.5107421875,-3.4695639610290527,-0.2491639554500579,-0.1517410278320312,-7.432748317718506,42.578895568847656,-86.72818756103516,-2.3414506912231445,5.304040908813477,-0.4664077758789062,-2.0450568199157715,-81.78764343261719,173.51171875,-4.254953384399414,-1.8104498386383057,2.057117462158203,-170.91065979003906,-79.41604614257812,90.95278930664062,7.650310516357422,0.8754793405532837,1.6404809951782229
2460.7450881004333,103.38232421875,-75.75389099121094,-17.54230308532715,4.059139251708984,1.2961022853851318,5.0914411544799805,54.88460540771485,-88.06285858154297,83.89215087890625,-1.384307622909546,0.2589902877807617,-0.1233863830566406,-1.708868384361267,28.12384986877441,-79.09602355957031,-2.9893689155578613,3.551670551300049,-1.7620906829833984,6.6497578620910645,-85.36092376708984,161.8592987060547,-4.16005802154541,-4.860753059387207,0.4756917953491211,-177.6981201171875,-77.98251342773438,93.14838409423828,2.2753210067749023,1.866302728652954,4.621445655822754
2460.774622440338,109.9568862915039,-74.40978240966797,-31.704833984375,7.646034240722656,21.78668975830078,5.485002517700195,65.02920532226562,-86.27112579345703,73.58164978027344,-1.4002673625946045,-1.352673053741455,-1.0579614639282229,0.7214963436126709,11.26245403289795,-73.6503677368164,1.69049334526062,1.746455192565918,-7.078808784484863,0.7097602486610413,-87.29369354248047,157.3070068359375,0.004536397755146,1.901158332824707,2.0434675216674805,-177.88111877441406,-78.03089904785156,91.0940170288086,-4.746258735656738,1.5976507663726809,5.150325775146484
2460.8046226501465,133.2475128173828,-67.5136947631836,-56.9644889831543,10.93852424621582,17.450626373291016,5.752372741699219,78.07939147949219,-85.22103118896484,60.91631317138672,-1.7084062099456787,-3.1742658615112305,-2.159534454345703,-2.733814477920532,-7.171848773956299,-66.96263122558594,3.5711417198181152,-3.601754665374756,-14.645637512207031,5.086911678314209,-87.7705078125,147.72650146484375,-2.093791007995605,4.5678815841674805,-0.0708169937133789,-176.27305603027344,-79.26642608642578,89.66583251953125,1.963021993637085,3.4873924255371094,-1.3742609024047852
2460.83563375473,148.65406799316406,-57.95082092285156,-75.34505462646484,5.6830644607543945,5.781173706054688,2.40087890625,105.43603515625,-84.8965835571289,34.078895568847656,-1.4647488594055176,-3.978335380554199,-2.094411849975586,-6.90179443359375,-24.83934211730957,-57.55021667480469,3.124157428741455,-9.949703216552734,-6.6127119064331055,33.1756477355957,-87.17146301269531,121.722412109375,-3.589747905731201,0.7204676866531372,-1.2195520401000977,-176.4923553466797,-79.47806549072266,89.7525863647461,7.126190185546875,1.5629420280456543,-3.0377840995788574
2460.865163564682,154.2403106689453,-47.56562423706055,-87.65900421142578,2.9201107025146484,-2.042745590209961,-3.4420080184936523,142.0989227294922,-83.3817138671875,-2.00561261177063,-1.6475317478179932,-2.479307174682617,-1.1799182891845703,-7.596325397491455,-37.23663330078125,-45.35798645019531,2.3602123260498047,-5.16987419128418,4.443148612976074,58.35107803344727,-85.20936584472656,100.13175964355467,-5.567136764526367,-2.840517520904541,-3.3663501739501958,179.6802520751953,-79.43089294433594,92.2971649169922,2.9713916778564453,-0.1469269692897796,-2.413648128509521
2460.8951556682587,157.2646026611328,-37.624656677246094,-96.12537384033205,-1.0916552543640137,-2.204641342163086,-8.177894592285156,164.78765869140625,-79.85057067871094,-24.19373321533203,-2.4523401260375977,1.113217830657959,-0.7582283020019531,-5.29738712310791,-40.19034194946289,-33.83683776855469,8.329620361328125,9.206453323364258,1.591901779174805,70.68179321289062,-82.34117126464844,87.71598052978516,-4.808392524719238,-2.566986083984375,-3.589128017425537,175.03097534179688,-80.05326080322266,95.91282653808594,-2.81513786315918,0.1975510120391845,-1.3481149673461914
2460.954829454422,159.125732421875,-29.18643951416016,-102.6174545288086,-0.881062388420105,-3.0511913299560547,-12.28289794921875,175.3727264404297,-75.9831314086914,-35.463417053222656,-1.734426498413086,0.7295705080032349,-0.0774793624877929,-14.526426315307615,-37.96413803100586,-27.35937118530273,6.012076377868652,10.761882781982422,-11.31753921508789,70.1504135131836,-79.3528823852539,86.09978485107422,4.269662857055664,2.064404964447021,-2.816108226776123,175.40585327148438,-81.08696746826172,95.13430786132812,-1.5651676654815674,0.6447666883468628,-3.769107818603516
2460.984830379486,161.40293884277344,-23.47302627563477,-107.55590057373048,-3.125075340270996,-2.996342182159424,-9.87358856201172,179.4263458251953,-72.35016632080078,-40.59702301025391,-1.7735064029693604,1.1101043224334717,1.3692607879638672,-31.451982498168945,-35.48356246948242,-26.83868789672852,-1.6650424003601074,-1.2760963439941406,-11.809484481811523,68.71403503417969,-75.7279281616211,91.2964096069336,-0.6830401420593262,-2.3189077377319336,-2.4338159561157227,177.0001220703125,-81.82451629638672,94.2959442138672,3.185326099395752,-0.0129122864454984,-4.035974502563477
2461.014829397201,162.78466796875,-22.09822654724121,-111.56243896484376,-4.653463363647461,-4.33189868927002,-14.105825424194336,179.801513671875,-69.69805145263672,-40.518341064453125,-2.081921100616455,0.7285586595535278,1.1745986938476562,-48.65277099609375,-34.68866729736328,-30.788345336914062,-5.543708801269531,-5.544151306152344,-8.497026443481445,69.05975341796875,-71.89166259765625,94.68043518066406,-1.7502946853637695,-4.108212471008301,-1.5471439361572266,173.48190307617188,-82.38294982910156,98.35159301757812,3.47416353225708,2.085461139678955,-3.3490209579467773
2461.044847726822,163.0448455810547,-25.06737899780273,-115.23810577392578,-6.217954635620117,-6.3420257568359375,-11.496322631835938,178.8992462158203,-68.15213012695312,-39.26100158691406,-3.839269161224365,-0.1261444389820099,0.7761545181274414,-64.71707153320312,-39.42269134521485,-38.22042846679688,-6.063594818115234,-11.07625961303711,6.393693923950195,69.82737731933594,-68.04206848144531,95.52912902832033,-2.2942147254943848,-9.770570755004885,3.742812156677246,167.61085510253906,-82.58695983886719,103.26642608642578,2.5854296684265137,1.39660382270813,-2.8878564834594727
2461.0743746757507,161.93251037597656,-32.051422119140625,-118.23091888427734,-9.436389923095703,-9.419818878173828,-7.286812782287598,177.54989624023438,-67.73384857177734,-38.10404968261719,-2.4068078994750977,0.4403088688850403,1.0986013412475586,-64.61815643310547,-53.4778938293457,-51.39927291870117,-1.7680001258850098,-7.531797409057617,33.649803161621094,68.14604187011719,-62.90607070922852,95.04572296142578,-3.498898506164551,-8.708662033081055,6.254463195800781,169.9181365966797,-82.8632583618164,99.9902572631836,0.1928809583187103,0.6358574628829956,-0.8683652877807617
2461.104374885559,163.3763885498047,-33.55787658691406,-120.52545166015624,-9.867183685302734,-5.700693130493164,28.23343276977539,175.5515594482422,-68.21612548828125,-36.44412612915039,-2.6146464347839355,0.0004646833986043,1.117300033569336,-35.41044616699219,-67.43709564208984,-81.35717010498047,16.20486068725586,-21.174396514892575,35.45927429199219,67.96983337402344,-54.92330551147461,93.05570220947266,-2.3065128326416016,-13.811897277832031,13.592679977416992,177.69290161132812,-83.0074234008789,91.86714935302734,-0.4429641962051391,-2.794330596923828,7.123149871826172
2461.134375333786,164.5862274169922,-33.72296142578125,-119.1015625,-16.902141571044922,-11.562686920166016,7.353389739990234,173.21017456054688,-69.46049499511719,-34.64030838012695,-2.836422920227051,0.0590125620365142,1.1284656524658203,-45.42707061767578,-68.96514129638672,-79.84053802490234,23.59200668334961,3.082818031311035,4.403768539428711,68.57750701904297,-43.65837478637695,90.894287109375,7.059201240539551,-11.949274063110352,11.74818992614746,176.66946411132812,-83.02715301513672,92.0830078125,-1.5251195430755615,1.060877799987793,6.33635139465332
2461.164942741394,163.62750244140625,-31.025697708129883,-116.44468688964844,-18.377315521240234,-10.99952507019043,12.611679077148438,170.04283142089844,-71.52094268798828,-32.19322967529297,-1.7787628173828125,0.8232614994049072,2.0302276611328125,-59.313663482666016,-61.81875228881836,-64.64389038085938,-6.334933280944824,1.2322704792022705,15.777460098266602,66.86241912841797,-28.76695442199707,93.08113861083984,14.75762939453125,-13.56267547607422,17.277599334716797,-179.32981872558594,-83.36003112792969,88.35687255859375,-1.1717970371246338,4.305343627929688,5.693751335144043
2461.194943666458,160.51199340820312,-25.571407318115234,-113.6190948486328,-5.690820693969727,-10.749713897705078,11.539480209350586,164.9496612548828,-74.39720916748047,-26.91061210632324,-1.3164715766906738,-0.7464349269866943,2.9122209548950195,-51.12144470214844,-53.11056518554688,-57.80039596557617,-0.9342079162597656,-14.834587097167969,14.03741455078125,58.429141998291016,-10.529130935668944,97.18900299072266,7.071355819702148,-2.087092876434326,13.370447158813477,179.55874633789062,-82.70303344726562,89.56108093261719,2.3722238540649414,-0.98836350440979,4.3624677658081055
2461.254481077194,161.4117889404297,-19.618179321289062,-112.0054931640625,-6.122116088867188,-7.277351379394531,9.12900733947754,157.4595947265625,-77.52435302734375,-17.867767333984375,-1.157382249832153,-0.6181825399398804,1.6746349334716797,-37.12032699584961,-47.60089874267578,-57.929786682128906,8.833301544189453,-6.470157623291016,-3.08636474609375,53.859981536865234,9.07939624786377,99.9550552368164,1.241353988647461,3.260500431060791,8.988546371459961,172.000732421875,-82.36198425292969,96.9500503540039,3.707144737243652,0.3524532914161682,2.338181495666504
2461.284480571747,159.746826171875,-15.147117614746094,-111.21573638916016,-5.1219682693481445,-2.62143611907959,0.8695192337036133,147.18714904785156,-80.55768585205078,-5.334432601928711,-1.3950464725494385,0.6676199436187744,-0.5619792938232422,-30.34589195251465,-44.52429962158203,-62.88941192626953,3.6740145683288574,-3.485013484954834,-6.165387153625488,56.57524871826172,27.676231384277344,98.89205932617188,-6.429775238037109,2.7146520614624023,2.907839775085449,165.19515991210938,-81.66746520996094,103.37372589111328,3.320963859558105,1.1888115406036377,2.2379350662231445
2461.3144810199738,158.18406677246094,-13.17417049407959,-110.1629638671875,-2.5900144577026367,-0.0231337025761604,-6.5742034912109375,132.3105010986328,-83.09110260009766,11.047494888305664,-2.111396312713623,-0.7118653059005737,-2.19722843170166,-31.860544204711918,-43.39118576049805,-69.1414794921875,-0.0336689949035644,-2.8874239921569824,-7.968463897705078,64.98761749267578,42.33357620239258,94.07972717285156,-8.916482925415039,-3.307647228240967,-0.4835538864135742,158.18348693847656,-80.56072998046875,109.93853759765624,3.4967408180236816,1.192007303237915,1.718505859375
2461.344672679901,157.2689666748047,-14.21992015838623,-108.84252166748048,-2.6237926483154297,1.9896955490112305,-11.463417053222656,111.40672302246094,-84.7519302368164,32.75663375854492,-2.744544506072998,-0.136867493391037,-3.857481002807617,-36.69760894775391,-44.552127838134766,-76.41720581054688,-3.819264888763428,-2.2449092864990234,-5.146812438964844,72.0307388305664,51.65449142456055,89.50961303710938,-7.619205474853516,1.3463523387908936,-3.387500762939453,153.7643280029297,-79.91624450683594,114.18694305419922,0.786234974861145,1.5400571823120115,-1.1863365173339844
2461.37521147728,155.3948974609375,-18.397937774658203,-107.62042236328124,-2.967034339904785,1.803861618041992,-13.125385284423828,88.82807922363281,-85.4800033569336,56.3203353881836,-3.039106845855713,-1.5186753273010254,-4.643752098083496,-37.78064727783203,-47.061180114746094,-85.31307220458984,-3.87548303604126,-0.6540148258209229,-2.052191257476806,68.94756317138672,54.16249847412109,91.33355712890624,-2.292399883270264,1.0742371082305908,-8.18505859375,151.71890258789062,-79.18133544921875,116.4634017944336,0.36326664686203,2.0252795219421387,-2.686922073364258
2461.404503107071,152.16159057617188,-25.72303581237793,-106.05300903320312,-3.8207812309265137,-0.3374224901199341,-12.737491607666016,78.32816314697266,-86.05364990234375,66.92658233642578,-2.6454763412475586,-1.754004716873169,-3.944110870361328,-34.52116775512695,-50.13963317871094,-95.3131332397461,-3.772949695587158,-0.5798876285552979,-3.759901523590088,57.63228988647461,51.30760955810547,100.55538940429688,-7.054637908935547,-2.8784799575805664,-9.394468307495115,149.83255004882812,-78.4369888305664,118.52308654785156,0.8802051544189453,0.8900743722915649,-2.72371244430542
2461.4345042705536,148.61224365234375,-35.30630111694336,-103.2463607788086,-1.510944128036499,-3.213730812072754,-11.163238525390623,86.2991943359375,-87.31700897216797,58.06169891357422,-2.191359519958496,-2.520962715148926,-2.9784135818481445,-31.00058937072754,-53.41575622558594,-105.05406188964844,-2.279648780822754,-1.0784077644348145,-5.648807525634766,49.8099365234375,44.45968246459961,111.6420669555664,-1.5801596641540527,-2.1397690773010254,-14.84263038635254,148.05441284179688,-77.97550964355469,120.00777435302734,1.3171253204345703,-0.0077092964202165,-4.043112754821777
2461.465064525604,145.09120178222656,-46.487060546875,-98.59883880615234,-0.7202240228652954,-3.216165065765381,-6.915914535522461,136.75877380371094,-88.23863983154297,5.943437576293945,-1.868624687194824,-0.1694791316986084,-0.332127571105957,-30.28905868530273,-56.91328430175781,-113.20167541503906,-1.6586344242095947,1.612424373626709,-4.884547233581543,47.48283767700195,34.86513137817383,123.0369644165039,-15.44125747680664,5.296652793884277,-14.363853454589844,145.54766845703125,-78.1710205078125,122.12353515625,1.2254772186279297,-0.8363043069839478,-6.026716232299805
2461.4950647354126,138.3544464111328,-58.57970428466797,-90.74742126464844,1.8186132907867432,-2.629290580749512,-1.935142517089844,-168.5122528076172,-87.5976791381836,-50.08791732788086,-1.0780582427978516,0.2521261572837829,3.9874792098999023,-28.77416229248047,-60.820594787597656,-120.22605895996094,-0.5535197257995605,4.606345176696777,-3.7367238998413086,32.1256103515625,31.52297019958496,133.18246459960938,-21.01681137084961,5.202737808227539,-13.471857070922852,143.40066528320312,-78.52729797363281,124.1963348388672,1.2755005359649658,-0.8936316967010498,-6.229373931884766
2461.554615497589,123.6023178100586,-71.21553802490234,-73.21238708496094,5.247518539428711,-6.311773300170898,6.638889312744141,-139.24703979492188,-86.26969909667969,-80.29338073730469,-0.5511296987533569,-0.5566433668136597,5.312578201293945,-20.889795303344727,-64.8923568725586,-128.72628784179688,0.6039073467254639,6.212697982788086,-2.7698469161987305,22.045337677001957,33.90804672241211,136.9965362548828,8.426790237426758,2.920841693878174,-18.90609359741211,142.5762481689453,-78.90786743164062,125.39801025390624,0.8698835372924805,-0.8066980838775635,-3.1055312156677246
2461.5846149921417,79.34548950195312,-78.85184478759766,-21.680070877075195,13.184024810791016,8.094686508178711,14.232730865478516,-120.27814483642578,-84.51419830322266,-98.96373748779295,-0.8797265291213989,-1.9491326808929443,4.795105934143066,-5.340686321258545,-68.40357208251953,-141.71360778808594,2.98298454284668,0.7153607606887817,-4.238189697265625,23.333763122558597,38.17441940307617,129.99252319335938,-2.7810988426208496,6.323829650878906,-9.962608337402344,143.42776489257812,-79.43461608886719,125.24031829833984,1.7113754749298096,-1.7632434368133545,-1.7044382095336914
2461.6148409843445,49.46965026855469,-77.28547668457031,16.28494644165039,8.534685134887695,18.65425491333008,-4.100997924804688,-108.04386901855467,-81.93778228759766,-108.07088470458984,1.4284355640411377,-5.3331146240234375,4.356870651245117,11.122801780700684,-71.6187973022461,-158.37611389160156,-0.8799734115600586,0.1403859555721283,0.2201261520385742,30.411109924316406,45.05431365966797,112.32990264892578,1.8138294219970703,4.069041252136231,-16.51556396484375,150.30020141601562,-80.01203918457031,119.9529037475586,6.377638816833496,-2.645575523376465,-0.8083009719848633
2461.6448454856877,50.78313446044922,-77.82025909423828,15.37416648864746,13.318464279174805,27.28619384765625,-10.231727600097656,-97.30477142333984,-79.37803649902344,-113.26214599609376,-2.93982458114624,-10.747100830078123,5.357301712036133,28.372270584106445,-74.3865966796875,-177.82545471191406,-1.992379665374756,4.027462959289551,9.36610984802246,36.03661346435547,49.91490936279297,88.48225402832031,-8.922840118408203,-0.6313703060150146,-8.35655403137207,157.9788055419922,-79.3538589477539,113.08733367919922,5.859740257263184,-0.2118996679782867,6.751300811767578
2461.674396276474,82.76795959472656,-80.75414276123047,-19.07745361328125,13.645742416381836,-13.313362121582031,4.649136543273926,-110.54669952392578,-76.77098846435547,-95.54937744140624,-32.000038146972656,-1.1491291522979736,0.1810855865478515,45.80596923828125,-75.4498062133789,166.68125915527344,-3.4910311698913574,5.9420270919799805,11.22722625732422,35.37180709838867,48.115116119384766,67.19046020507812,-10.85877799987793,-3.251612663269043,-4.890868186950684,161.6728515625,-78.33387756347656,108.50212097167967,-0.597638726234436,-2.220068454742432,3.895449638366699
2461.7053968906403,113.0075225830078,-81.30098724365234,-49.72918701171875,-3.5453877449035645,-15.432210922241213,6.143099784851074,-137.40760803222656,-70.41722106933594,-67.18141174316406,-19.7244873046875,2.637136459350586,4.702139854431152,53.85372924804688,-77.35599517822266,165.42123413085938,-3.6950979232788086,-0.122509479522705,6.165331840515137,34.12379837036133,40.29804611206055,52.61435317993164,-0.7973989248275757,-13.159051895141602,0.0326547622680664,167.13230895996094,-77.25393676757812,105.70301055908205,-4.124919891357422,-4.024605751037598,0.8951396942138672
2461.7343966960907,137.44395446777344,-78.6755599975586,-67.36329650878906,-5.225160598754883,5.903103828430176,-0.1253890991210937,-150.15872192382812,-62.3265495300293,-49.65132522583008,-9.197467803955078,-3.660191059112549,-3.436962127685547,39.60072708129883,-81.79718780517578,-173.41610717773438,-0.0985170602798461,-2.5426993370056152,1.7836523056030271,43.13803863525391,29.11618423461914,45.15994644165039,5.551562309265137,-22.74059295654297,-9.14272117614746,171.7718963623047,-75.88440704345703,106.1130828857422,-4.294095993041992,-2.53139877319336,-3.725015640258789
2461.764939785004,149.5953369140625,-77.0399169921875,-77.12430572509766,-6.648421287536621,5.50450611114502,0.0346565246582031,-156.2704315185547,-54.67652130126953,-37.95941925048828,-3.7526135444641113,-1.500183343887329,-10.073610305786133,-22.49594497680664,-83.10733032226562,-107.27603912353516,2.3184118270874023,-3.788672924041748,-3.954619884490967,60.483585357666016,17.537429809570312,40.780311584472656,4.009697914123535,-0.6209882497787476,-6.934122085571289,174.4585418701172,-74.1294174194336,109.28873443603516,-4.981795310974121,3.294044017791748,-7.486157417297363
2461.8249402046204,157.2595672607422,-74.95005798339844,-84.27867889404297,1.39506196975708,-2.687514305114746,0.9834356307983398,-160.73037719726562,-47.43331909179688,-29.25672912597656,-2.0905680656433105,0.3815786838531494,-13.203794479370115,-60.99412155151367,-77.3431396484375,-69.38452911376953,1.041809320449829,-3.1935338973999023,-6.674825668334961,76.11284637451172,7.665579319000244,38.0111198425293,4.880717277526856,-2.9779067039489746,-4.538848876953125,174.31961059570312,-72.0462417602539,112.0460205078125,3.5316805839538574,3.1306777000427246,-3.303414821624756
2461.854170799256,163.1444549560547,-72.06897735595703,-89.01805114746094,2.934986114501953,-0.0785662531852722,-1.3505373001098633,-166.18275451660156,-41.07404327392578,-22.33006477355957,-0.962005376815796,0.7655818462371826,-12.420560836791992,-71.94857788085938,-71.1259536743164,-62.53068161010742,-2.4625496864318848,-2.062640190124512,-5.5103044509887695,91.85603332519533,-0.7037457227706909,35.22780227661133,-4.931010246276856,4.76416015625,1.696279525756836,172.73233032226562,-70.6968765258789,113.80425262451172,2.765657901763916,1.589367151260376,2.620682716369629
2461.8851714134216,167.0497589111328,-69.46055603027344,-91.41378021240234,-0.4091236591339111,0.7053464651107788,1.0390567779541016,-173.43519592285156,-36.6197395324707,-16.48569107055664,-0.5247724056243896,1.1433334350585938,-10.071609497070312,-74.9075698852539,-66.86946868896484,-65.3236312866211,-5.746742248535156,-3.067824363708496,-1.0681238174438477,104.52308654785156,-5.935995578765869,29.064979553222656,-7.884834289550781,0.4187309741973877,12.88443374633789,170.5501251220703,-69.44071960449219,116.86444091796876,-6.940799713134766,2.8003077507019043,7.520648956298828
2461.914311170578,169.5419921875,-67.27864074707031,-93.08287048339844,0.0200962722301483,0.6088840961456299,0.8839435577392578,177.0835418701172,-34.85271453857422,-10.950031280517578,-0.5036723613739014,1.4786181449890137,-5.698590278625488,-73.61871337890625,-64.4604263305664,-70.25704193115234,-9.358062744140623,-2.5553016662597656,5.957221031188965,113.70633697509766,-8.388766288757324,21.59673500061035,-2.128085136413574,-4.082670211791992,0.2674360275268554,168.97787475585938,-69.69921112060547,118.6553726196289,-5.595491409301758,1.531660795211792,7.074037551879883
2461.9453163146973,171.95895385742188,-65.96107482910156,-94.65109252929688,-0.4204687476158142,1.7930848598480225,1.6127042770385742,169.15081787109375,-37.102989196777344,-4.188884258270264,8.24978256225586,2.0685997009277344,-4.056862831115723,-71.56560516357422,-62.56056594848633,-73.42267608642578,-4.374667167663574,-2.4542722702026367,6.899934768676758,125.39128112792967,-10.763784408569336,15.640532493591309,-1.2366485595703125,-2.8806324005126958,2.932672500610352,168.5701446533203,-70.50672149658203,120.27953338623048,-1.2670364379882812,3.089693546295166,3.63703727722168
2461.974851131439,173.83522033691406,-65.85585021972656,-96.41575622558594,-1.410888433456421,1.4661524295806885,1.645705223083496,169.24478149414062,-45.91383743286133,5.110896587371826,19.25188446044922,7.921233177185059,-6.559050559997559,-71.733642578125,-59.89030838012695,-74.9048080444336,-2.5919203758239746,-2.3940629959106445,4.599093437194824,133.3455810546875,-15.660922050476074,10.697245597839355,1.0427396297454834,-4.400500297546387,4.978191375732422,165.4948272705078,-71.05661010742188,123.4576644897461,-0.1996735036373138,3.3939380645751958,3.706138610839844
2462.0048530101776,175.51878356933594,-66.64132690429688,-98.50751495361328,-0.5185471773147583,0.6647999286651611,0.7123031616210938,178.18800354003906,-52.59801864624024,10.420011520385742,-1.258401870727539,5.342151641845703,22.551990509033203,-69.93243408203125,-57.33356475830078,-76.57737731933594,-2.3588242530822754,3.783052444458008,5.77696418762207,136.36953735351562,-24.796140670776367,6.980323791503906,5.034302711486816,-1.790900468826294,0.4837303161621094,160.74281311035156,-71.91680908203125,126.53140258789062,-1.4084758758544922,1.668550729751587,0.683319091796875
2462.0348508358,177.67572021484375,-67.72210693359375,-101.01746368408205,-0.6902142763137817,0.3908517360687256,0.3762378692626953,169.88330078125,-53.984710693359375,10.56350803375244,8.12347412109375,-12.019046783447266,-3.6031126976013184,-58.75740051269531,-55.13661575317383,-81.59864807128906,2.961867332458496,-3.32334041595459,-4.181923866271973,139.01864624023438,-37.94102096557617,3.268787384033203,6.260553359985352,-2.4370126724243164,8.470844268798828,155.58810424804688,-72.8639907836914,129.63858032226562,-1.3726158142089844,0.761161208152771,-2.2970681190490723
2462.0643932819366,179.81588745117188,-68.76727294921875,-103.85802459716795,0.5565062761306763,-0.5243741273880005,-0.1797637939453125,155.11668395996094,-55.97311019897461,9.327895164489746,12.981393814086914,7.83854866027832,9.54749870300293,-57.469669342041016,-51.72796630859375,-85.33222198486328,-0.3069384694099426,-1.0168836116790771,-6.228065490722656,137.14028930664062,-52.31166076660156,-2.378812551498413,11.124359130859377,-8.064079284667969,16.895092010498047,149.34132385253906,-73.86858367919922,133.7364501953125,-0.2924878001213074,0.8585211038589478,-3.8976597785949703
2462.1243937015533,-178.77236938476562,-69.47854614257812,-106.38606262207033,0.7458901405334473,-0.8779363632202148,-0.4958343505859375,149.06964111328125,-58.57164764404297,10.452230453491213,6.891143798828125,-1.0565359592437744,1.221114158630371,-55.89245223999024,-48.52324676513672,-89.21361541748047,0.8993839025497437,2.3077826499938965,-3.840054512023926,137.85647583007812,-60.82895660400391,-5.221991062164307,19.29463195800781,-7.590003967285156,4.996150970458984,140.99832153320312,-74.52698516845703,140.22750854492188,-0.006996402516961,-0.5987201929092407,-5.358824729919434
2462.1549441814423,-178.4534912109375,-69.5074234008789,-107.58544921875,-0.7771145105361938,-0.9025030136108398,-0.2443208694458007,150.5401611328125,-57.757266998291016,9.328920364379885,10.1837158203125,-2.219066619873047,2.3692541122436523,-52.74652862548828,-44.85963821411133,-93.71472930908205,0.6935073137283325,0.7848840951919556,-3.963666439056397,146.19561767578125,-58.9359130859375,-4.583495616912842,-2.967154026031494,-13.093555450439451,-2.4205760955810547,132.00498962402344,-74.63008880615234,148.12692260742188,-2.346720695495605,-1.2541260719299316,-5.9553937911987305
2462.1850254535675,179.9654541015625,-68.40875244140625,-106.42498779296876,1.3046646118164062,-3.7244467735290527,-1.465595245361328,160.52947998046875,-54.47921371459961,1.46327543258667,6.520074844360352,-6.560748100280762,10.197769165039062,-50.19709777832031,-40.49135208129883,-98.12335968017578,-4.491134643554688,1.9680440425872805,1.93306827545166,145.3626708984375,-54.60811614990234,-0.936169445514679,6.611044883728027,-4.85118579864502,1.1901044845581057,127.2406234741211,-73.92095947265625,151.26580810546875,-1.3161485195159912,1.3454115390777588,-1.0315494537353516
2462.21435713768,178.7928009033203,-66.51099395751953,-102.32966613769533,3.308530330657959,0.0554474741220474,-1.399822235107422,175.6075897216797,-48.744930267333984,-5.5716094970703125,3.7564640045166016,-15.342756271362305,19.21097183227539,-44.51745223999024,-35.9219856262207,-103.35590362548828,0.2519570589065552,-1.256911039352417,1.3149518966674805,143.67930603027344,-49.667945861816406,7.293032646179199,7.482485771179199,2.8482260704040527,4.904199600219727,124.71233367919922,-72.6026611328125,153.12586975097656,3.3176140785217285,1.2276430130004885,-1.2611026763916016
2462.244371652603,178.0960235595703,-64.24443054199219,-98.60299682617188,2.1365609169006348,-0.9996000528335572,0.0131645202636718,-175.78306579589844,-40.606689453125,-9.641904830932615,13.117568969726562,-2.777531147003174,12.181575775146484,-41.38166046142578,-29.921422958374023,-107.69905090332033,4.505119323730469,-0.5117721557617188,7.845598220825195,141.29232788085938,-41.979793548583984,16.46516227722168,10.108434677124023,1.679678440093994,12.907297134399414,124.4318389892578,-70.94984436035156,154.08802795410156,-3.1195077896118164,-0.9578408002853394,1.2081871032714844
2462.2749075889587,177.0814971923828,-61.93598556518555,-97.39203643798828,-1.8543565273284912,-0.0218640379607677,0.7050819396972656,-173.0352325439453,-34.125980377197266,-11.6201753616333,7.878145217895508,3.1470694541931152,-1.0350608825683594,-52.70237731933594,-21.31270217895508,-108.27897644042967,1.6608572006225586,10.116989135742188,18.829010009765625,136.1298370361328,-33.84061050415039,24.468441009521484,10.231199264526367,9.907289505004885,9.716348648071287,132.08663940429688,-70.34742736816406,148.4462127685547,-8.088813781738281,-5.0644731521606445,6.505220413208008
2462.3049080371857,177.71719360351562,-60.56002426147461,-97.43202209472656,0.8947162628173828,1.5386478900909424,1.7763986587524414,-171.97659301757812,-31.7939510345459,-13.374737739562988,4.444165229797363,6.956988334655762,-7.645646095275879,-56.76579284667969,-8.439663887023926,-105.10276794433594,15.390176773071287,-1.249159336090088,22.048274993896484,131.88816833496094,-28.554487228393555,31.68828010559082,3.137932777404785,9.103727340698242,3.213340759277344,136.58750915527344,-70.20648956298828,145.03956604003906,1.230208396911621,0.6868088245391846,4.607526779174805
2462.3349075317383,178.0902862548828,-60.61853790283203,-96.79837799072266,3.5854992866516118,-0.2760933637619018,0.3603992462158203,-170.3124542236328,-34.48844146728516,-16.01772689819336,4.150047302246094,7.431824684143066,-11.135282516479492,-46.67753982543945,8.364527702331543,-100.92990112304688,1.4340977668762207,-9.281045913696287,18.99789810180664,125.73375701904295,-27.59263038635254,38.69222640991211,-2.35232925415039,4.475210189819336,0.2416563034057617,137.06320190429688,-69.39261627197266,144.9091339111328,3.183145523071289,1.5885560512542725,1.933611869812012
2462.3654601573944,178.90159606933594,-61.26301193237305,-95.58692169189452,-2.6030068397521973,0.6528788805007935,0.9005556106567383,-166.8355255126953,-41.5362663269043,-20.2060661315918,4.406825065612793,5.73906135559082,-12.927764892578123,-27.196666717529297,23.21220016479492,-95.46570587158205,-4.668034553527832,-10.816465377807615,7.309024810791016,117.36083221435548,-30.91995620727539,45.38365173339844,-4.533132553100586,0.6783695220947266,-3.646708488464356,136.95565795898438,-69.46451568603516,145.90188598632812,-7.251042366027832,1.637404441833496,6.082235336303711
2462.424460411072,-179.9580841064453,-62.33249282836914,-95.3381576538086,-0.3764713406562805,1.3699750900268557,1.3421669006347656,-160.78846740722656,-51.32709884643555,-26.034860610961918,3.033964157104492,2.4504427909851074,-10.15878677368164,-7.079753398895264,33.16381072998047,-89.3005142211914,-17.46535873413086,-8.346649169921875,3.88761043548584,109.3279037475586,-37.82646560668945,53.08351516723633,-4.629254341125488,-0.3865815997123718,-4.820881843566895,137.14468383789062,-70.83383178710938,146.88963317871094,-4.73994255065918,1.0183675289154053,4.61775016784668
