Timestamp,D4:22:CD:00:05:5D_EulerX,D4:22:CD:00:05:5D_EulerY,D4:22:CD:00:05:5D_EulerZ,D4:22:CD:00:05:5D_FreeAccX,D4:22:CD:00:05:5D_FreeAccY,D4:22:CD:00:05:5D_FreeAccZ,D4:22:CD:00:05:5E_EulerX,D4:22:CD:00:05:5E_EulerY,D4:22:CD:00:05:5E_EulerZ,D4:22:CD:00:05:5E_FreeAccX,D4:22:CD:00:05:5E_FreeAccY,D4:22:CD:00:05:5E_FreeAccZ,D4:22:CD:00:05:6B_EulerX,D4:22:CD:00:05:6B_EulerY,D4:22:CD:00:05:6B_EulerZ,D4:22:CD:00:05:6B_FreeAccX,D4:22:CD:00:05:6B_FreeAccY,D4:22:CD:00:05:6B_FreeAccZ,D4:22:CD:00:05:6E_EulerX,D4:22:CD:00:05:6E_EulerY,D4:22:CD:00:05:6E_EulerZ,D4:22:CD:00:05:6E_FreeAccX,D4:22:CD:00:05:6E_FreeAccY,D4:22:CD:00:05:6E_FreeAccZ,D4:22:CD:00:49:AA_EulerX,D4:22:CD:00:49:AA_EulerY,D4:22:CD:00:49:AA_EulerZ,D4:22:CD:00:49:AA_FreeAccX,D4:22:CD:00:49:AA_FreeAccY,D4:22:CD:00:49:AA_FreeAccZ
1523.1190798282623,-173.64627075195312,-72.81283569335938,-97.52013397216795,-0.7274702787399292,-1.207355499267578,-0.679931640625,-138.29693603515625,-58.117095947265625,-77.49861907958984,4.236430168151856,1.9885354042053225,-6.495532989501953,6.953505516052246,11.69149112701416,-28.655792236328125,-3.602491855621338,-7.532011985778809,-3.5720176696777344,87.37096405029297,-56.5964469909668,86.10076141357422,0.3179429769515991,3.594454288482666,-1.2414541244506836,152.3876495361328,-74.17045593261719,146.36328125,0.308153748512268,1.604501485824585,-4.440896987915039
1523.1865475177765,178.5334014892578,-50.56957244873047,-59.35500717163086,-1.951122760772705,-0.4364065527915954,1.727189064025879,127.3851318359375,-65.11771392822266,-56.40535736083984,6.000598907470703,-2.618455410003662,5.79066276550293,-67.8255844116211,-4.398716449737549,-76.44248962402344,7.249584197998047,1.1507267951965332,28.01849365234375,33.26936340332031,-69.77302551269531,103.46941375732422,-1.1243610382080078,-1.0191738605499268,2.5575265884399414,165.00442504882812,-72.84510803222656,112.06468200683594,2.2116169929504395,-0.0402368009090423,8.276779174804688
1523.2167258262634,174.8401641845703,-48.63227081298828,-55.98773193359375,-1.9302241802215576,-0.3316724300384521,2.4926109313964844,154.7555389404297,-76.741943359375,-83.1720199584961,7.347258567810059,-0.6501996517181396,2.16998291015625,-56.82678985595703,7.5887131690979,-72.4786376953125,5.404794692993164,-6.81478214263916,24.51599502563477,38.703067779541016,-67.74198913574219,104.44013214111328,-4.30186653137207,-3.0129876136779785,1.7454652786254885,150.77847290039062,-68.97994232177734,126.0172348022461,-2.655062675476074,0.951303243637085,8.207122802734375
1523.246736049652,172.7871856689453,-48.73217391967773,-54.38360977172852,-0.8644018173217773,0.0742936879396438,2.185154914855957,-151.0373077392578,-78.10529327392578,-137.99281311035156,4.106281280517578,-0.7052420377731323,-1.9210338592529297,-36.47404861450195,15.503703117370604,-65.56826782226562,-3.541388511657715,-18.68614196777344,16.743621826171875,43.56051254272461,-66.11392211914062,104.52545928955078,-3.332620620727539,-4.362616539001465,0.5396413803100586,150.58412170410156,-69.76013946533203,127.02220153808594,-3.8364763259887695,2.1680126190185547,4.571548461914063
1523.3064517974854,171.69052124023438,-50.54643249511719,-53.66334915161133,0.0518119782209396,0.4706518650054931,1.6232233047485352,-118.2928695678711,-75.78669738769531,-173.0311737060547,2.673072338104248,-2.2247467041015625,-2.993446350097656,-13.089624404907228,20.754802703857425,-61.01325225830078,-4.939136505126953,-19.60707092285156,0.655491828918457,42.96884536743164,-64.54704284667969,110.32672882080078,-1.6257305145263672,-3.794055461883545,0.3550643920898437,155.51974487304688,-72.60292053222656,123.50418090820312,-2.472884178161621,2.3859448432922363,2.188851356506348
1523.3378548622131,171.05258178710938,-53.76398468017578,-53.22790145874024,-0.01677967607975,0.2250692546367645,1.2451744079589844,-88.0667495727539,-72.97057342529297,155.0178680419922,1.912729024887085,-1.542698621749878,-2.777435302734375,6.5553812980651855,25.47478485107422,-58.77642059326172,-6.814779281616211,-10.243494033813477,-10.55575942993164,40.8183822631836,-62.41917419433594,119.94683837890624,-1.0869944095611572,-2.6822214126586914,-0.0397987365722656,163.2404022216797,-75.36318969726562,117.43186950683594,-1.469963788986206,1.9033188819885252,0.5398712158203125
1523.36625623703,170.26626586914062,-58.01979446411133,-53.067626953125,-0.7497848272323608,-0.5361689329147339,0.9638500213623048,-62.7729377746582,-67.60017395019531,128.4011993408203,1.1767268180847168,3.326047897338867,-3.811218738555908,22.65711212158203,30.13737678527832,-57.56261444091797,-8.553558349609375,-6.30775260925293,-8.488759994506836,39.89477157592773,-59.27683639526367,130.85003662109375,-1.9495911598205569,-2.546424865722656,-1.9478836059570312,172.2683563232422,-77.37647247314453,109.96994018554688,-0.446401834487915,2.021529197692871,-3.601654529571533
1523.3966193199158,169.12017822265625,-62.917572021484375,-53.70495223999024,0.6493477821350098,-0.9888075590133668,-0.0768423080444336,-50.28059005737305,-61.67740249633789,112.38675689697266,1.8158650398254397,9.820512771606444,-7.484607696533203,35.54669570922852,35.95927429199219,-56.78796005249024,-6.222298622131348,-5.825429916381836,-7.829598426818848,39.54310607910156,-55.3797492980957,141.85263061523438,-2.0886340141296387,-3.595492362976074,-3.3508100509643555,-178.3801727294922,-78.68463897705078,102.1622543334961,0.2461398243904113,1.9378814697265625,-7.568119049072266
1523.4268481731417,168.62840270996094,-67.77193450927734,-55.24605178833008,2.7656264305114746,-1.1357553005218506,-0.6631746292114258,-48.04423904418945,-56.6990852355957,102.88978576660156,4.346456527709961,13.429357528686523,-9.485576629638672,40.268775939941406,42.43902969360352,-57.38063049316406,1.6143906116485596,2.147860527038574,-7.434903144836426,38.76677703857422,-50.822792053222656,152.31021118164062,-1.958849668502808,-4.043605804443359,-4.9523773193359375,-170.95872497558594,-79.0522232055664,96.37451171875,-0.136933296918869,1.8677988052368164,-7.77705192565918
1523.456689596176,168.23660278320312,-72.0021743774414,-56.87006378173828,2.248481750488281,-1.3250770568847656,-2.667853832244873,-52.703392028808594,-53.856842041015625,97.9750747680664,5.359724044799805,18.60180282592773,-14.624929428100586,36.25946807861328,47.96095275878906,-62.30682373046875,3.436645984649658,5.341862678527832,-5.589195251464844,38.1137924194336,-46.20307159423828,161.73516845703125,-2.226132392883301,-4.133788108825684,-7.219578742980957,-169.2591094970703,-78.82244873046875,95.7161102294922,0.4312159419059753,0.3208292722702026,-5.107351303100586
1523.4866955280304,167.06056213378906,-74.6158676147461,-56.907222747802734,5.317211151123047,-1.2821357250213623,-4.2879743576049805,-64.54170989990234,-53.94819641113281,99.42908477783205,10.724939346313477,14.103391647338867,-13.939186096191406,24.010238647460938,52.96848678588867,-74.77660369873047,0.3590841293334961,-5.098496437072754,-3.792489528656006,38.44370269775391,-42.4342041015625,170.5330047607422,-1.2275855541229248,-4.728176116943359,-8.51456069946289,-171.8212432861328,-79.31172180175781,98.0300064086914,1.1024255752563477,-1.471574306488037,-2.742244243621826
1523.5166923999786,165.52919006347656,-75.27277374267578,-55.290470123291016,5.436273574829102,0.3418118953704834,-4.689327239990234,-75.20201110839844,-56.21858978271485,105.22644805908205,6.081191062927246,14.737947463989258,-15.031242370605469,-0.6367406845092773,54.94108200073242,-100.72331237792967,4.32427978515625,2.5760536193847656,-14.45572280883789,39.03565216064453,-40.40216827392578,179.58905029296875,0.1485445201396942,-6.476495742797852,-8.928701400756836,-175.1055145263672,-80.06459045410156,100.31150817871094,-3.19758939743042,-0.5133124589920044,-1.3256654739379885
1523.5460772514343,161.96888732910156,-73.71697235107422,-51.14925765991211,4.90394401550293,-6.954615592956543,3.00185489654541,-94.98280334472656,-58.944862365722656,120.03922271728516,-8.181526184082031,14.40391731262207,-1.367527961730957,-27.95372009277344,45.6490592956543,-127.0309600830078,-11.732946395874023,-8.912883758544922,-36.07007598876953,38.52263641357422,-40.8508415222168,-171.9419708251953,2.062877655029297,-8.229223251342773,-8.586496353149414,-178.24472045898438,-80.24905395507812,101.8875732421875,-2.5600409507751465,-1.7599351406097412,1.7140893936157229
1523.607061624527,158.3050537109375,-70.02442169189453,-46.1887092590332,4.149753570556641,-0.8712218999862671,-1.1609601974487305,-103.69976043701172,-62.155609130859375,132.3485565185547,-17.59754180908203,2.84094762802124,2.3199586868286133,-35.764610290527344,33.91335678100586,-138.62286376953125,-21.289634704589844,-0.2741947174072265,-6.982867240905762,36.30533218383789,-44.2558822631836,-165.0161590576172,2.863717555999756,-6.146530151367188,-5.962383270263672,178.02938842773438,-80.86740112304688,102.0782470703125,2.9131789207458496,-0.0574724450707435,-2.2492246627807617
1523.636206626892,154.11155700683594,-65.25542449951172,-42.68180847167969,2.2600812911987305,-0.8847742080688477,-1.5536518096923828,-114.64599609375,-64.05411529541016,144.68246459960938,-7.002541542053223,3.2623367309570312,9.822616577148438,-31.23460960388184,35.016807556152344,-134.75717163085938,1.5233635902404783,4.456263542175293,-2.2029237747192383,30.395336151123047,-50.94351959228516,-158.0374755859375,1.7390389442443848,-5.126936912536621,0.2691431045532226,-177.86807250976562,-82.55570983886719,95.45478057861328,-3.921351432800293,0.5397312641143799,-3.416790008544922
1523.666110277176,153.4243621826172,-61.64458084106445,-40.42881393432617,-11.26622200012207,3.9669361114501953,0.1849040985107422,-130.03286743164062,-63.26225280761719,155.20794677734375,4.666638374328613,2.373168468475342,-1.0795040130615234,-31.31116485595703,40.96065139770508,-123.23845672607422,-8.857837677001953,-0.5864279270172119,-5.5024824142456055,18.220518112182617,-57.91352844238281,-148.1282958984375,-3.157938003540039,-9.913778305053713,14.014036178588867,-176.42733764648438,-84.44483184814453,92.9645538330078,-7.392303466796875,2.042868137359619,2.0792465209960938
1523.6961104869845,150.6848602294922,-60.609317779541016,-38.47273635864258,2.991680145263672,-1.7853007316589355,5.740859031677246,-137.32522583007812,-64.28779602050781,160.02247619628906,-4.581007957458496,-0.585300087928772,9.34210968017578,-17.554044723510742,45.143314361572266,-104.09117889404295,-3.3460941314697266,-3.836899280548096,-9.761676788330078,5.190521717071533,-62.420875549316406,-140.77810668945312,-2.9222311973571777,-10.111410140991213,9.251441955566406,175.80677795410156,-83.988525390625,98.5885238647461,1.1138513088226318,-3.965385437011719,7.780855178833008
1523.726506471634,146.24465942382812,-60.50314712524414,-34.99271011352539,0.2881960272789001,1.0321569442749023,2.31864070892334,-139.4759063720703,-67.12442016601562,162.8177947998047,-1.1338248252868652,2.850137710571289,2.055926322937012,-3.783646821975708,41.14982604980469,-82.85216522216797,-7.058286666870117,-1.2323083877563477,-4.916499137878418,-2.38525390625,-66.08598327636719,-141.9691925048828,-4.049610137939453,0.2253015041351318,0.9634552001953124,-173.20359802246094,-83.93667602539062,86.06573486328125,-0.1673025786876678,-2.194737911224365,7.468629837036133
1523.7569744586945,139.98391723632812,-61.19700622558594,-29.917274475097656,1.2026982307434082,1.703253984451294,3.295346260070801,-139.22317504882812,-71.23587799072266,163.78648376464844,-1.1073405742645264,4.305707931518555,-0.284703254699707,5.494872093200684,30.945701599121094,-69.22862243652344,-3.3071675300598145,6.946805000305176,-2.8322906494140625,-1.8343740701675413,-69.50911712646484,-148.17257690429688,-3.047974109649658,3.9367833137512207,2.39975643157959,-151.2219696044922,-84.66780853271484,62.80278396606445,4.524158477783203,0.0068086516112089,-1.3331890106201172
1523.7869784832,132.7559051513672,-62.34751892089844,-24.650928497314453,9.375446319580078,3.377410411834717,5.0553131103515625,-135.15750122070312,-75.21260070800781,161.89569091796875,-0.5321825742721558,2.833334922790528,-0.0252246856689453,7.236390113830566,17.01372528076172,-59.26609802246094,-4.455782890319824,8.971002578735352,-3.830688953399658,6.490998268127441,-71.34808349609375,-156.6127471923828,-0.6196428537368774,2.728337287902832,1.7799882888793943,-150.64064025878906,-83.68341827392578,61.4029426574707,8.583562850952148,-0.9670495986938475,0.2597303390502929
1523.8164765834808,121.78565216064452,-65.81612396240234,-20.777835845947266,1.8022253513336184,8.792675018310547,0.7737112045288086,-130.73046875,-78.10710144042969,159.2462615966797,0.2575584053993225,3.082650661468506,-0.1070327758789062,5.327053546905518,0.9635786414146424,-49.01892852783203,1.8178730010986328,2.937140464782715,-7.17694091796875,18.395967483520508,-71.45811462402344,-165.15586853027344,-1.8315672874450684,-0.136114239692688,-1.0066547393798828,-159.94786071777344,-82.86507415771484,68.83534240722656,3.493126392364502,-0.7633633613586426,4.1836137771606445
1523.8465886116028,124.30164337158205,-63.6203498840332,-31.88172912597656,5.536561012268066,24.61108016967773,4.839088439941406,-124.5862274169922,-80.51156616210938,154.3394317626953,-1.9012811183929443,2.710457801818848,-1.517104148864746,-2.710054397583008,-13.65428352355957,-37.01559829711914,10.507570266723633,9.841293334960938,-4.2822113037109375,30.370023727416992,-71.09081268310547,-174.0499725341797,-2.735260486602783,-2.1258187294006348,-2.903902053833008,-164.6798095703125,-83.43827819824219,71.94204711914062,1.6965062618255615,-0.3717556595802307,-0.7467422485351562
1523.9064526557922,140.37042236328125,-55.37335586547852,-47.47665786743164,6.398354530334473,12.664945602416992,5.563409805297852,-117.45735931396484,-81.88119506835938,149.13067626953125,-3.111344337463379,2.677208423614502,-2.347194194793701,-26.270782470703125,-24.633440017700195,-24.43157196044922,2.66543197631836,7.173864364624023,-12.66058349609375,39.58306121826172,-70.25605773925781,176.9377899169922,-2.1656413078308105,-2.8188700675964355,-3.134628295898437,-168.78114318847656,-83.40406036376953,75.62059020996094,4.681973457336426,0.1803145408630371,-2.003934383392334
1523.9398593902588,150.81201171875,-45.548072814941406,-60.003265380859375,2.02729606628418,0.976083278656006,1.1455821990966797,-113.98564910888672,-81.42739868164062,148.95799255371094,-5.2765045166015625,3.883427143096924,-4.580389022827148,-46.88833236694336,-32.27392578125,-14.863946914672852,-6.467303276062012,-4.078757286071777,6.7809906005859375,46.115989685058594,-68.37286376953125,169.14894104003906,-1.945453643798828,-1.4158928394317627,-4.530024528503418,-175.20339965820312,-83.3336181640625,81.23961639404297,3.4074277877807617,0.2777341604232788,-1.4932937622070312
1523.9665117263794,154.7162628173828,-36.1346321105957,-69.55924987792969,-0.5652661323547363,-4.007562637329102,-6.73595142364502,-118.39372253417967,-78.66243743896484,156.68743896484375,-5.039630889892578,5.010428428649902,-4.644969940185547,-48.55865859985352,-38.58723068237305,-10.778985023498535,-2.930055618286133,3.323569774627685,-0.8526535034179688,52.838356018066406,-65.60230255126953,162.1174774169922,-1.816927433013916,-0.6663385629653931,-5.583388328552246,177.78302001953125,-83.24535369873047,87.3673324584961,0.6487220525741577,1.0013961791992188,-4.747488021850586
1523.9969274997711,155.38671875,-28.98502540588379,-76.71138763427734,-2.0091328620910645,-4.404300689697266,-12.65024757385254,-128.21054077148438,-73.66886138916016,166.1084747314453,-4.153265953063965,7.273372650146484,-6.598810195922852,-43.65467834472656,-45.97809600830078,-10.541252136230469,1.4559576511383057,3.918870449066162,-6.364669799804688,59.41979217529297,-61.93129348754883,155.81480407714844,-0.7349853515625,-4.777809143066406,-2.217977523803711,173.23733520507812,-82.83727264404297,91.62810516357422,-0.760300874710083,-0.027404811233282,-6.810498237609863
1524.0266110897064,155.7829132080078,-25.00481605529785,-81.93424224853516,-1.7234866619110107,-4.594635009765625,-13.867446899414062,-137.29248046875,-66.72164916992188,170.8403778076172,1.9747440814971924,3.2820611000061035,-1.8238019943237305,-40.12547302246094,-55.82003784179688,-13.76736545562744,5.249035835266113,2.4667744636535645,-2.049426555633545,62.730560302734375,-56.48398971557617,149.1409454345703,-2.7002668380737305,-5.443391799926758,2.5132761001586914,171.85597229003906,-81.73519134521484,92.86632537841795,-0.2994987368583679,-2.280147075653076,-7.461496353149414
1524.0573680400848,158.7858123779297,-24.32834815979004,-84.52963256835938,-2.939173698425293,-6.198052406311035,-12.044227600097656,-143.27613830566406,-59.81049346923828,173.8846893310547,-1.02838397026062,0.2478417158126831,2.8182449340820312,-29.76522445678711,-68.55844116210938,-27.699138641357425,8.717275619506836,2.364543437957764,14.456615447998049,63.7923469543457,-47.64907455444336,141.48313903808594,-6.868142127990723,-2.370574474334717,11.495466232299805,170.26365661621094,-80.38919067382812,93.91765594482422,1.2405078411102295,-1.3936128616333008,-7.162837028503418
1524.086552619934,163.97140502929688,-26.22816467285156,-84.79537963867188,-2.5056347846984863,-9.670400619506836,-9.85556983947754,-147.79974365234375,-54.31633377075195,177.1865997314453,-0.2678096294403076,2.228163719177246,2.162128448486328,4.777050018310547,-76.84428405761719,-71.01421356201172,10.497936248779297,-3.502523899078369,29.936153411865234,64.55648803710938,-33.43146896362305,135.48239135742188,-7.104426383972168,4.477067947387695,21.281715393066406,171.33114624023438,-80.07173919677734,91.78141021728516,0.1833532452583313,2.514993190765381,-3.6687631607055664
1524.1168146133425,168.18804931640625,-28.67323303222656,-84.50588989257812,-1.2468044757843018,-1.7042405605316162,17.1767578125,-151.4898681640625,-51.71598052978516,-179.58700561523438,-1.0746030807495115,4.202493667602539,1.171161651611328,3.324965476989746,-79.15363311767578,-85.62959289550781,2.857337951660156,6.619582176208496,9.790943145751951,67.32486724853516,-15.928526878356934,132.23158264160156,3.966431617736816,5.27501106262207,20.247535705566406,171.4733428955078,-80.98234558105469,91.34260559082033,-2.976846218109131,3.4258041381835938,4.276803970336914
1524.1467671394348,169.94873046875,-28.07695579528809,-84.12382507324219,-4.618547439575195,-16.318111419677734,6.798210144042969,-153.58499145507812,-51.32434844970703,-177.7812957763672,-0.496558129787445,4.665771484375,0.8755836486816406,-35.271846771240234,-74.83872985839844,-52.2752571105957,2.612860202789306,-5.147130012512207,14.388221740722656,62.34120559692383,1.3004157543182373,129.979248046875,6.153128623962402,4.246365547180176,25.727428436279297,169.80801391601562,-80.34368133544922,92.80467987060548,1.183976650238037,-1.9819087982177732,9.735736846923828
1524.2066586017609,167.2513427734375,-24.69729804992676,-83.55633544921875,-0.7792197465896606,-23.863365173339844,14.615570068359377,-154.08944702148438,-52.36918640136719,-177.8393096923828,-0.1487290859222412,4.987071990966797,0.9146413803100586,-46.800418853759766,-63.947872161865234,-36.0794792175293,7.018215179443359,-13.218780517578123,18.73217391967773,49.99726867675781,16.82332992553711,128.25457763671875,2.2300920486450195,8.990808486938477,11.104251861572266,176.20651245117188,-78.6634292602539,86.76953887939453,2.804164409637451,-1.0453722476959229,8.49083137512207
1524.236671924591,162.53916931152344,-17.99201011657715,-82.64089965820312,-3.7722978591918954,-20.343605041503903,12.459461212158203,-153.83187866210938,-54.75622177124024,-179.6022491455078,-0.5189590454101562,4.086346626281738,1.496150016784668,-41.10724258422852,-54.8541145324707,-33.82124328613281,13.451944351196287,-2.3467488288879395,5.199501991271973,41.06599426269531,29.73924446105957,126.51181030273438,-6.87491512298584,0.2998202443122864,11.733526229858398,178.56280517578125,-79.01087188720703,84.8354721069336,2.445913314819336,0.2562593817710876,10.183357238769531
1524.2669517993927,161.41815185546875,-10.826558113098145,-82.91275024414062,3.5246500968933105,-14.7916259765625,4.080048561096191,-153.39993286132812,-58.61042785644531,177.8834991455078,-1.2381486892700195,3.0151143074035645,3.863849639892578,-38.683143615722656,-49.500274658203125,-36.41073989868164,6.193674087524414,-2.162895679473877,0.641963005065918,32.98866653442383,39.45077133178711,123.8189926147461,-15.129644393920898,-7.174575805664063,4.555624961853027,174.6133575439453,-79.95326232910156,88.45474243164062,4.585162162780762,1.3516011238098145,6.5335540771484375
1524.2965505123138,160.8625030517578,-6.305899620056152,-83.75447845458984,-5.645697593688965,-7.092967033386231,-0.0274610519409179,-151.62953186035156,-63.83768844604492,175.05775451660156,-6.441097259521484,2.129854679107666,8.51919937133789,-44.43821716308594,-48.702754974365234,-38.5738410949707,0.9002526998519897,-2.6025333404541016,-4.01706600189209,29.080705642700195,47.0356559753418,120.77745819091795,-8.549858093261719,-3.582951545715332,-4.512874603271484,169.46929931640625,-79.54108428955078,93.1192398071289,6.555624008178711,0.5444625616073608,6.863492965698242
1524.351772069931,159.86988830566406,-5.462027072906494,-83.5016860961914,-6.320310592651367,-2.109560012817383,-6.795367240905762,-146.57571411132812,-69.07759094238281,171.8160400390625,-6.729620933532715,0.1523692309856414,4.110502243041992,-50.55929946899414,-52.81950759887695,-41.11951446533203,0.4990681409835815,-1.1590816974639893,-2.18936824798584,33.5341682434082,54.22676849365234,121.36881256103516,-3.855350017547608,-3.198629379272461,-12.622003555297852,163.54757690429688,-79.27217102050781,97.9930648803711,3.036076068878174,0.3709353804588318,4.044217109680176
1524.356919050217,159.38766479492188,-8.766810417175293,-82.06815338134766,-5.458219528198242,-0.6896990537643433,-11.816001892089844,-136.3041229248047,-73.6146011352539,165.0836639404297,-1.983839750289917,-0.3889966011047363,-3.6014366149902344,-52.475528717041016,-60.23453140258789,-45.974910736083984,-0.0323924422264099,1.1617820262908936,0.6738176345825195,39.59703063964844,60.391639709472656,127.14913940429688,-7.707939147949219,-6.7694501876831055,-12.21613311767578,156.90255737304688,-78.48693084716797,103.48672485351562,-1.0520756244659424,0.9021539688110352,-0.481475830078125
1524.3870627880096,158.658447265625,-15.915298461914062,-80.17443084716797,-3.080249786376953,-0.8800060749053955,-11.49130630493164,-122.1576919555664,-76.32312774658203,151.69183349609375,1.54720139503479,3.95404052734375,-6.434329032897949,-52.91689300537109,-69.22624969482422,-53.59476089477539,-0.1363638043403625,-0.1314105093479156,-1.2647705078125,44.12392807006836,62.952884674072266,141.70204162597656,-0.6820173263549805,-4.421771049499512,-13.02396011352539,155.16050720214844,-77.29239654541016,105.36572265625,-1.7041826248168943,-0.88771653175354,-2.173698902130127
1524.416571855545,156.62649536132812,-26.13207626342773,-78.29545593261719,-2.936840057373047,-3.678234577178955,-8.860143661499023,-110.91303253173828,-77.01526641845703,137.38644409179688,2.1140594482421875,6.150740623474121,-8.633674621582031,-49.134578704833984,-78.72505950927734,-67.59171295166016,-1.496896266937256,1.9557371139526367,-0.3716564178466797,50.10396957397461,60.788944244384766,162.50575256347656,-1.2230660915374756,-4.495918273925781,-14.54448127746582,157.4171905517578,-76.90152740478516,104.70708465576172,-0.2512657642364502,-1.3634490966796875,-3.210820198059082
1524.446580171585,152.2870635986328,-38.886417388916016,-75.56071472167969,-0.2071607410907745,-5.399847030639648,-6.139825820922852,-104.7894287109375,-76.82461547851562,128.97311401367188,6.672889709472656,6.254739761352539,-9.416637420654297,-4.97014856338501,-85.83049774169922,-123.38568878173828,-1.6149542331695557,2.575855255126953,-3.281165599822998,52.595176696777344,54.10834503173828,-179.1477813720703,-13.550804138183594,-5.283090591430664,-21.267940521240234,159.67909240722656,-77.6137924194336,104.58973693847656,1.7074718475341797,0.6038016080856323,-6.547046661376953
1524.5066270828247,147.43283081054688,-53.28951644897461,-70.86840057373047,3.5628223419189453,-5.615668296813965,-1.095624923706055,-104.98761749267578,-76.0330581665039,129.45068359375,3.052855491638184,5.005928993225098,-9.052764892578123,64.5405044555664,-82.77479553222656,154.44947814941406,-1.583878517150879,5.724147796630859,-6.185009002685547,46.834285736083984,51.509552001953125,-170.798095703125,-4.739012718200684,-9.845073699951172,-19.07317352294922,160.9836883544922,-78.46759796142578,104.4143524169922,1.8176956176757808,1.485095500946045,-9.939056396484377
1524.5367534160614,140.60189819335938,-68.48974609375,-60.67916870117188,6.327010154724121,-3.047216415405273,8.959150314331055,-112.10027313232422,-74.5577392578125,136.3875732421875,-6.103672981262207,4.809581756591797,-5.850437164306641,74.90930938720703,-76.2966079711914,136.1470489501953,0.326411485671997,7.526515007019043,-7.471563339233398,42.39006423950195,55.85487365722656,-177.2486572265625,3.531289577484131,5.363131523132324,-10.775928497314451,160.7277069091797,-79.0531234741211,104.6116943359375,0.5095188617706299,-0.2415620982646942,-9.869651794433594
1524.5670568943024,112.11591339111328,-80.2921371459961,-23.48636054992676,9.541223526000977,9.349538803100586,12.263168334960938,-123.44147491455078,-70.24188232421875,144.9970703125,-4.661751747131348,-1.7136828899383545,1.126752853393555,80.9547119140625,-68.96143341064453,129.22496032714844,-0.9668874740600586,6.252420425415039,-8.451513290405273,28.533771514892575,63.12823486328125,165.5121307373047,-8.677085876464844,-6.562150001525879,-14.015296936035156,161.33460998535156,-79.59941864013672,104.81895446777344,-1.4074413776397705,-2.0569448471069336,-7.516329765319824
1524.5966725349426,74.44304656982422,-80.74573516845703,26.037378311157227,-18.643451690673828,24.88871383666992,-10.978275299072266,-128.04812622070312,-65.12686157226562,149.53204345703125,-6.754055023193359,4.232326507568359,5.939726829528809,86.7129135131836,-62.0207405090332,125.2982940673828,-2.028282165527344,5.518339157104492,-5.353283882141113,-10.052021980285645,67.18334197998047,129.29452514648438,-3.6376194953918457,4.951999664306641,-23.01688766479492,165.34303283691406,-80.48332977294922,101.96418762207033,3.3498902320861816,-3.376448154449463,-8.442346572875977
1524.6263830661774,89.75297546386719,-78.87399291992188,10.982033729553224,3.9165005683898926,20.247238159179688,-8.330057144165039,-127.78424835205078,-62.028785705566406,150.12442016601562,-0.9919947385787964,4.214432716369629,7.880619049072266,89.06688690185547,-56.79819869995117,122.37752532958984,-2.9258270263671875,6.255449295043945,-3.565662384033203,-44.65673828125,60.14423370361328,92.24347686767578,-2.083404064178467,5.172725677490234,-21.521320343017575,169.3695068359375,-80.08487701416016,96.95515441894533,6.326327323913574,-4.734311103820801,-0.022775650024414
1524.656986951828,124.83210754394533,-72.23506164550781,-19.37786102294922,9.266117095947266,18.434154510498047,-1.0121231079101562,-124.52864074707033,-61.00596618652344,147.0179901123047,-4.035984039306641,6.934233665466309,5.62319278717041,90.07855987548828,-54.09172058105469,120.00764465332033,-3.339552402496338,12.045629501342772,0.5157976150512695,-58.48422622680664,48.28322982788086,74.85712432861328,-0.115555465221405,6.067201614379883,-5.6681671142578125,170.4040985107422,-80.76630401611328,95.57957458496094,0.912244439125061,-2.898738384246826,3.263228416442871
1524.6868743896484,144.1426544189453,-64.58395385742188,-32.194637298583984,4.578827857971191,-14.135087966918944,2.853748321533203,-118.37357330322266,-61.5241813659668,141.33799743652344,-6.909394264221191,5.593329429626465,6.827007293701172,93.1455307006836,-54.85797119140625,119.22162628173828,-3.497291088104248,10.21820831298828,1.032575607299805,-56.75856018066406,36.65731430053711,66.01165771484375,1.5414183139801023,0.8859127759933472,8.351123809814453,173.3377227783203,-80.92072296142578,94.39954376220705,-1.3744473457336426,3.2022504806518555,5.671385765075684
1524.7169077396393,147.57492065429688,-60.13155746459961,-38.52977752685547,3.2345423698425293,9.326335906982422,6.015331268310547,-109.53119659423828,-62.71636199951172,134.2717742919922,-1.2258737087249756,11.757116317749023,-5.684576034545898,101.1700210571289,-58.633487701416016,117.92157745361328,-4.620080947875977,8.712282180786133,9.02955436706543,-39.804935455322266,29.2726993560791,61.50517654418945,22.214996337890625,-9.433696746826172,25.909835815429688,-178.2730712890625,-79.32146453857422,88.7490234375,4.367000579833984,-0.544082760810852,11.833574295043944
1524.746336221695,152.57400512695312,-57.90839385986328,-42.99150085449219,-1.820805788040161,-6.394035339355469,6.999210357666016,-107.2695083618164,-62.844120025634766,136.92747497558594,18.235740661621094,24.12262344360352,-3.372455596923828,111.56085205078124,-63.77239227294922,115.15638732910156,-1.7990577220916748,7.321659088134766,10.548423767089844,-11.813069343566896,28.163055419921875,63.351200103759766,11.755437850952148,-17.70526123046875,4.846242904663086,-170.8340301513672,-78.40677642822266,85.15364837646484,-0.3435702323913574,-2.062063694000244,6.853578567504883
1524.8068535327911,159.1298065185547,-56.34621047973633,-44.355201721191406,0.5408269166946411,-2.459114551544189,5.429779052734375,-118.22769165039062,-59.62821578979492,152.5057830810547,8.015729904174805,20.128475189208984,-0.8117198944091797,123.6229248046875,-70.27640533447266,109.17984771728516,-1.378643035888672,4.769618034362793,6.130124092102051,10.532400131225586,26.446163177490234,71.92408752441406,-8.594074249267578,-4.3761396408081055,-10.349355697631836,-167.86090087890625,-77.35601806640625,84.51434326171875,-4.023629188537598,3.667474269866944,2.259441375732422
1524.8367099761963,163.00570678710938,-56.71164321899414,-46.59478378295898,-0.8479412794113159,2.300044059753418,-0.2163124084472656,-132.0575408935547,-54.162696838378906,169.2110595703125,-1.949649810791016,10.482194900512695,-4.892646789550781,143.9599151611328,-77.44827270507812,93.3433837890625,-0.6826568841934204,-1.122208595275879,4.539290428161621,23.724668502807617,21.700084686279297,79.53057098388672,-8.539541244506836,-0.4742010831832886,2.522467613220215,-166.7295379638672,-75.7816390991211,85.0128402709961,-2.822661876678467,1.5704238414764404,1.0740365982055664
1524.8662114143372,166.7528076171875,-58.47256851196289,-49.69395065307617,-0.6295690536499023,-0.525260329246521,2.111387252807617,-142.05213928222656,-48.820533752441406,-177.89505004882812,-3.634142398834229,3.239984035491944,-7.257854461669922,-173.10623168945312,-82.47905731201172,52.10435485839844,-2.019869327545166,-3.953088760375977,2.5500640869140625,38.82334518432617,15.211758613586426,85.24186706542969,-6.618735313415527,-3.492025375366211,-1.5537137985229492,-167.8046417236328,-75.20037078857422,86.3155288696289,-0.693321704864502,1.733158826828003,2.049681663513184
1524.8962888717651,170.37269592285156,-61.174110412597656,-53.37592315673828,-0.6857117414474487,-0.179929494857788,1.067169189453125,-147.76943969726562,-45.04088973999024,-168.2106170654297,-3.0986690521240234,2.1195759773254395,-10.487293243408203,-117.0339813232422,-81.58531951904297,-5.261187553405762,-4.4440765380859375,-4.750146865844727,0.3678302764892578,47.47939300537109,5.413258075714111,88.60079193115234,-3.421381950378418,-3.356829166412353,0.7185211181640625,-171.0565185546875,-75.33303833007812,88.15776062011719,-3.156948566436768,2.355611801147461,-0.8461713790893555
1524.9268941879272,174.22659301757812,-64.5398941040039,-58.53732299804688,-1.6834797859191897,-1.1788148880004885,0.8101062774658203,-151.84963989257812,-43.26858139038086,-160.94456481933594,0.2855583429336548,-1.58990216255188,-9.33672332763672,-92.4696273803711,-76.76876068115234,-32.670799255371094,-3.92474889755249,-3.0477542877197266,-2.379239559173584,54.34675216674805,-5.382114410400391,91.7969207763672,-1.5665690898895264,1.0818078517913818,-2.8500571250915527,-172.89645385742188,-75.0420913696289,88.92637634277344,-4.7205305099487305,1.5852696895599363,-2.642392158508301
1524.9566569328308,178.31602478027344,-68.84315490722656,-68.5422134399414,0.1267948746681213,-2.0929245948791504,0.7656326293945312,-153.21546936035156,-44.25350189208984,-155.7117919921875,-1.3328857421875,-5.69572639465332,-8.236444473266602,-84.31879425048828,-71.17264556884766,-44.281288146972656,-1.567823886871338,-2.1287083625793457,-5.123099327087402,58.58160400390625,-18.242998123168945,94.68753814697266,-5.447113037109375,3.055193901062012,-1.7920551300048828,-174.68699645996094,-75.27813720703125,90.20252990722656,-1.6209776401519775,1.147897243499756,-3.861237049102783
1524.9867322444916,-179.79196166992188,-71.66021728515625,-79.6142349243164,0.1635113358497619,-1.2177555561065674,-1.1887998580932615,-154.06166076660156,-47.440547943115234,-151.8343505859375,-4.505091667175293,-9.496570587158203,-8.276731491088867,-81.51107025146484,-65.67794036865234,-50.819671630859375,-1.6131360530853271,-1.620642900466919,-7.356955528259277,57.91111373901367,-34.001312255859375,95.00015258789062,-0.4658418297767639,8.335298538208008,-1.0053081512451172,-178.97311401367188,-75.60335540771484,93.30799102783205,0.4709085822105407,0.2493170797824859,-5.222566604614258
1525.01673078537,178.9676513671875,-72.5889892578125,-89.35601043701172,4.466493606567383,-2.334731101989746,-2.177952766418457,-152.9227294921875,-52.040714263916016,-148.6763458251953,10.84292984008789,5.1881208419799805,15.25655746459961,-81.4044189453125,-60.063133239746094,-55.20358657836914,-1.9269700050354004,-1.1722955703735352,-8.708253860473633,51.81214141845703,-50.99544143676758,95.6104507446289,8.326471328735352,11.776180267333984,14.371625900268556,174.4229736328125,-75.64884948730469,97.73827362060548,1.360339879989624,-1.1043848991394043,-6.403058052062988
1525.0469086170197,175.996337890625,-70.93516540527344,-92.3358383178711,5.822322845458984,-4.374197006225586,-2.3651018142700195,-150.49301147460938,-53.253177642822266,-146.859375,-10.11198616027832,-6.357754707336426,6.984031677246094,-81.45809936523438,-54.309417724609375,-58.87576675415039,-0.7873717546463013,1.1999285221099854,-7.812688827514648,39.48406600952149,-62.74082565307617,102.22746276855467,5.124342918395996,5.224893569946289,8.606328964233398,165.4359130859375,-75.39311218261719,103.81991577148438,1.0889265537261963,-0.1936030387878418,-8.17805290222168
1525.1068212985992,174.7428741455078,-66.898681640625,-89.93556213378906,3.5288619995117188,-2.081536769866944,-2.8658323287963867,-152.58193969726562,-52.16376876831055,-147.49923706054688,-5.691967010498047,-13.867813110351562,7.87260627746582,-78.86556243896484,-48.453407287597656,-63.14889907836914,0.992626428604126,3.657237052917481,-4.978950500488281,26.62228202819824,-66.71626281738281,110.53730010986328,4.9361419677734375,9.41298484802246,3.055353164672852,152.70303344726562,-74.36204528808594,113.33126068115234,-0.2799069881439209,0.6023600101470947,-6.232016563415527
1525.1359508037567,174.95697021484375,-61.564449310302734,-84.63337707519531,0.2550282478332519,-1.0500695705413818,-6.596435546875,-151.84608459472656,-49.31982803344727,-148.64968872070312,-14.244546890258787,-8.002025604248047,14.406126022338867,-73.16545867919922,-41.8951416015625,-68.17098999023438,1.8856210708618164,7.046753883361816,1.8846206665039065,28.781124114990234,-67.27108001708984,111.29035949707033,6.212894439697266,16.685047149658203,3.5758485794067383,138.18939208984375,-73.4891357421875,125.4658660888672,-3.9807395935058594,2.510076999664306,-1.6863012313842771
1525.1671228408811,176.45545959472656,-55.7909049987793,-79.96485137939453,-1.594186544418335,2.023606777191162,-0.3768863677978515,-150.52197265625,-43.131683349609375,-149.4530029296875,-13.510246276855469,-7.918464660644531,12.531002044677734,-61.24747467041016,-33.841548919677734,-73.95873260498047,2.9484591484069824,10.062149047851562,11.12217140197754,33.23552322387695,-67.23685455322266,113.9936065673828,-3.692410945892334,8.482025146484375,13.243961334228516,133.64950561523438,-73.36885070800781,129.9215850830078,-1.5070035457611084,-1.2368528842926023,1.5957183837890625
1525.1967282295227,177.58836364746094,-51.04022979736328,-76.6065444946289,3.814408779144287,-0.2413876056671142,2.80960464477539,-151.43264770507812,-35.32182693481445,-149.10049438476562,-14.596994400024414,-4.767559051513672,3.510951042175293,-47.55281448364258,-24.191261291503903,-78.58039855957031,8.767982482910156,14.92726707458496,14.192853927612305,26.42214584350586,-68.6964340209961,122.9063491821289,-1.1627352237701416,11.45645523071289,9.55821418762207,135.07199096679688,-72.6018295288086,129.08033752441406,1.1890709400177002,-0.9132155179977416,11.903175354003906
1525.2263474464417,177.65440368652344,-47.73283767700195,-73.79447937011719,-2.0532755851745605,-1.2075426578521729,4.141973495483398,-155.06301879882812,-31.90823745727539,-147.65618896484375,-7.529823303222656,-5.92622184753418,0.5035600662231445,-39.803653717041016,-11.98037815093994,-78.86907196044922,4.536166191101074,15.236770629882812,17.767986297607422,16.766096115112305,-70.98139953613281,137.3474884033203,-6.206047058105469,7.590118408203125,9.718839645385742,134.2355499267578,-72.11736297607422,129.0543975830078,-4.5054473876953125,-1.752121925354004,7.550771713256836
