Timestamp,D4:22:CD:00:05:5D_EulerX,D4:22:CD:00:05:5D_EulerY,D4:22:CD:00:05:5D_EulerZ,D4:22:CD:00:05:5D_FreeAccX,D4:22:CD:00:05:5D_FreeAccY,D4:22:CD:00:05:5D_FreeAccZ,D4:22:CD:00:05:5E_EulerX,D4:22:CD:00:05:5E_EulerY,D4:22:CD:00:05:5E_EulerZ,D4:22:CD:00:05:5E_FreeAccX,D4:22:CD:00:05:5E_FreeAccY,D4:22:CD:00:05:5E_FreeAccZ,D4:22:CD:00:05:6B_EulerX,D4:22:CD:00:05:6B_EulerY,D4:22:CD:00:05:6B_EulerZ,D4:22:CD:00:05:6B_FreeAccX,D4:22:CD:00:05:6B_FreeAccY,D4:22:CD:00:05:6B_FreeAccZ,D4:22:CD:00:05:6E_EulerX,D4:22:CD:00:05:6E_EulerY,D4:22:CD:00:05:6E_EulerZ,D4:22:CD:00:05:6E_FreeAccX,D4:22:CD:00:05:6E_FreeAccY,D4:22:CD:00:05:6E_FreeAccZ,D4:22:CD:00:49:AA_EulerX,D4:22:CD:00:49:AA_EulerY,D4:22:CD:00:49:AA_EulerZ,D4:22:CD:00:49:AA_FreeAccX,D4:22:CD:00:49:AA_FreeAccY,D4:22:CD:00:49:AA_FreeAccZ
2240.70183300972,174.68899536132812,-57.83779525756836,-105.7998504638672,-1.854038953781128,-0.3246402740478515,-2.759383201599121,165.470703125,-59.44047927856445,-2.7295589447021484,5.914777755737305,-3.7588839530944815,13.336952209472656,-48.19109344482422,-28.568334579467773,-139.2914581298828,-0.0441631972789764,-0.8455356359481812,-1.5568981170654297,102.2721710205078,-69.24153900146484,118.67796325683594,7.960923194885254,-11.557823181152344,8.830154418945312,159.5077667236328,-71.02293395996094,121.84840393066406,0.3024135231971741,-0.5381748676300049,-6.456921577453613
2240.7048449516296,173.15597534179688,-54.65501403808594,-99.17772674560548,6.704401969909668,-1.2842164039611816,-1.426801681518555,171.3470001220703,-56.76697540283203,-4.435397624969482,9.240388870239258,-4.017728805541992,19.656925201416016,-47.02117538452149,-16.421342849731445,-139.5692138671875,-0.4195675849914551,0.3306903839111328,4.562387466430664,95.55622863769533,-66.16627502441406,112.51579284667967,-9.046306610107422,9.785127639770508,3.78458309173584,158.01992797851562,-70.23318481445312,122.8648452758789,-4.26992130279541,1.2309739589691162,0.0670356750488281
2240.7861733436584,174.3251953125,-83.23917388916016,-126.93942260742188,-0.2969805598258972,3.2654213905334477,-0.3648109436035156,38.27522659301758,-69.0903549194336,-163.9670867919922,-10.82652473449707,-5.381163597106934,13.548986434936523,-71.79505920410156,-6.086597919464111,-64.45475769042969,0.2199097871780395,0.2130079865455627,-6.513364791870117,9.131178855895996,-81.78560638427734,93.31085968017578,-8.803321838378906,5.605583190917969,9.590780258178713,117.00555419921876,-85.00228881835938,166.32640075683594,-1.3495008945465088,-2.507388114929199,-2.635873794555664
2240.8167877197266,173.16717529296875,-78.56427001953125,-126.35987854003906,0.8826273679733276,1.9348278045654297,-0.7190895080566406,170.843994140625,-81.47781372070312,64.47077941894531,-0.4308538436889648,0.2235138416290283,17.977516174316406,-71.00301361083984,-2.260453701019287,-69.4602279663086,0.5431663990020752,-2.16162109375,-1.0796995162963867,105.85205078125,-79.52078247070312,-20.0955867767334,32.05432891845703,-6.743288993835449,6.849309921264648,142.4141082763672,-85.56102752685547,140.56015014648438,-1.0698657035827637,-3.03779935836792,-1.316009521484375
2240.8767795562744,173.46592712402344,-72.36177825927734,-126.02854919433594,0.4760363101959228,2.313787937164306,-0.1126022338867187,-162.19924926757812,-71.78923034667969,42.17637634277344,7.948904037475586,-0.7808816432952881,17.28323745727539,-72.25740814208984,1.981510043144226,-72.96680450439453,1.176884412765503,-5.914971351623535,18.70252990722656,-101.87348175048828,-74.6690902709961,-169.42318725585938,1.9237949848175049,13.048990249633787,7.231908798217773,172.9262237548828,-84.76358795166016,109.48738098144533,-0.1688466072082519,0.0612052232027053,-1.307469367980957
2240.906472206116,174.18788146972656,-66.72694396972656,-126.40760803222656,1.9424076080322263,3.704367160797119,1.3870887756347656,-171.48721313476562,-68.86615753173828,48.44679260253906,5.537781715393066,3.9950919151306152,13.231500625610352,-67.8575439453125,8.863755226135254,-74.70088195800781,1.211428165435791,-1.6995737552642822,14.89121437072754,-109.41802978515624,-56.68443298339844,-159.984375,0.497575581073761,1.2459275722503662,17.348087310791016,175.7218780517578,-83.93427276611328,107.28475189208984,0.1663374304771423,-1.3191046714782717,4.432577133178711
2240.936472177505,175.0559539794922,-62.6426010131836,-127.61647033691406,2.0473036766052246,1.832803964614868,1.7214088439941406,-176.4072723388672,-71.84727478027344,51.4321174621582,-1.460072040557861,7.037678718566895,7.792873382568359,-74.27735900878906,24.041580200195312,-70.16033935546875,4.284552574157715,6.329257965087891,30.28413772583008,-102.31253051757812,-45.749473571777344,-155.9422607421875,-14.114124298095703,-1.6564977169036863,8.341714859008789,172.1150665283203,-82.3409652709961,110.80438995361328,5.31501579284668,-3.876579761505127,12.96198844909668
2240.9664652347565,176.3090057373047,-60.53914260864258,-128.41940307617188,3.5797362327575684,0.4419868588447571,0.9477262496948242,-173.04666137695312,-78.43763732910156,45.62005615234375,-5.5502777099609375,-0.4218681454658508,1.1577091217041016,-57.680320739746094,43.12989807128906,-57.816993713378906,12.615873336791992,-17.069068908691406,15.77141571044922,-90.53087615966795,-40.4476432800293,-154.7816925048828,-18.268898010253903,-2.7837882041931152,-0.2385740280151367,157.4055938720703,-81.19499969482422,125.64910125732422,4.898452758789063,-3.5394287109375,6.408262252807617
2240.996023416519,177.31736755371094,-59.98918151855469,-128.3382110595703,1.1942284107208252,1.5194802284240725,1.5329608917236328,-115.62735748291016,-86.84856414794922,-12.876334190368652,-5.743368148803711,-0.1961062252521515,-2.805884838104248,-24.558225631713867,53.32969665527344,-35.13426971435547,6.931398391723633,-14.480405807495115,2.030986785888672,-79.25389099121094,-37.99798583984375,-153.0402069091797,-23.346904754638672,-7.718792915344238,-7.938425064086914,148.39111328125,-80.11276245117188,134.6885986328125,-1.7318809032440186,-2.339458465576172,3.1372203826904297
2241.026023864746,177.92007446289062,-60.86713409423828,-127.8344497680664,1.0316658020019531,2.112802028656006,1.7132768630981443,-17.47570037841797,-76.81204223632812,-111.57077026367188,-3.3833165168762207,1.7703723907470703,-4.909121513366699,6.403520107269287,54.01839828491211,-11.777792930603027,4.807744979858398,-13.228097915649414,1.8603200912475584,-67.66334533691406,-39.14634704589844,-149.8866424560547,-18.241668701171875,-8.854320526123047,-11.28098487854004,152.23020935058594,-79.89906311035156,132.2090301513672,-4.030228614807129,-1.10422945022583,7.473600387573242
2241.0570232868195,178.64169311523438,-63.355010986328125,-127.43551635742188,0.5751183032989502,2.892609119415283,2.1734352111816406,-8.110079765319824,-60.640235900878906,-122.44837951660156,-6.362638473510742,-4.539306640625,-5.870136260986328,28.699987411499023,51.60112762451172,-0.4114260673522949,-1.926222562789917,-8.355611801147461,-0.7752475738525391,-53.01901626586914,-43.71217346191406,-146.38433837890625,-11.813322067260742,-7.051054000854492,-10.37819480895996,164.6832733154297,-80.45219421386719,123.31744384765624,-1.831284999847412,2.09035062789917,5.039005279541016
2241.0860381126404,179.6694793701172,-67.97846221923828,-127.2592544555664,-2.1436119079589844,4.873547554016113,2.7767276763916016,-7.550681114196777,-45.52021789550781,-128.2481689453125,-11.005807876586914,-16.291107177734375,-11.376602172851562,42.01878356933594,51.3358268737793,1.3217180967330933,-3.783148288726807,-5.613406181335449,-1.6692190170288086,-35.21328353881836,-48.76107406616211,-143.63905334472656,-7.325400352478027,-8.49001693725586,-12.816289901733398,179.72377014160156,-79.5832748413086,112.62550354003906,-0.2342210114002227,4.692255973815918,4.964943885803223
2241.116573572159,-178.2705078125,-75.87369537353516,-129.5047607421875,-12.495386123657228,4.176836967468262,7.466337203979492,-12.979156494140623,-34.71205520629883,-133.46189880371094,-16.44365692138672,-25.34621810913086,-11.767282485961914,43.51847457885742,53.857666015625,-2.5351030826568604,-1.0326526165008545,-1.6659612655639648,-5.8374223709106445,-20.187259674072266,-53.1335334777832,-142.0624237060547,-1.5563726425170898,-9.57122802734375,-12.86168098449707,-169.5110321044922,-77.89878845214844,105.19461059570312,0.7178493738174438,3.366443157196045,-0.1152877807617187
2241.176574230194,172.58505249023438,-81.36200714111328,-115.68051147460938,6.517254829406738,2.292419910430908,2.171588897705078,-20.42835998535156,-30.90808868408203,-136.22409057617188,-17.410579681396484,-3.535612106323242,-28.166393280029297,35.55101776123047,58.50471115112305,-11.603361129760742,-1.287682294845581,-1.453535079956055,-9.660560607910156,-11.116474151611328,-56.73863220214844,-140.9165496826172,1.1091935634613037,-7.82059383392334,-11.05765151977539,-161.6854705810547,-75.87471771240234,99.691650390625,-0.6739180088043213,1.2725884914398191,-10.61960220336914
2241.2061331272125,161.1778564453125,-78.03919982910156,-96.88160705566406,8.94424819946289,13.731555938720703,-5.338366508483887,-17.161489486694336,-31.951255798339844,-135.08746337890625,-13.59414291381836,3.01282262802124,-28.873336791992188,20.793800354003903,63.57490921020508,-29.736452102661133,-3.728349208831787,-0.2916567325592041,-12.166120529174805,-8.278800010681152,-59.34017181396485,-138.46458435058594,4.329791069030762,-5.561562538146973,-10.114421844482422,-159.1436767578125,-73.90674591064453,98.00138092041016,3.728562355041504,0.9366005659103394,-13.37232780456543
2241.236130952835,157.11215209960938,-70.46647644042969,-94.30780792236328,0.8219642639160156,-2.053462505340576,-9.515792846679688,-20.07697868347168,-39.14228820800781,-127.48246002197266,-4.982072830200195,-14.005487442016602,-18.38315200805664,-4.234214782714844,64.21958923339844,-61.75178146362305,-2.5323524475097656,0.2954039573669433,-15.974491119384766,-11.277101516723633,-60.764915466308594,-134.62220764160156,6.351958274841309,-4.937894821166992,-8.063699722290039,-161.38037109375,-74.0702896118164,98.93465423583984,3.943273067474365,0.8013465404510498,-8.662338256835938
2241.267127513885,154.8689727783203,-66.54151153564453,-94.28450012207033,1.531574010848999,-4.947088241577148,-14.755464553833008,-37.51458740234375,-49.71102142333984,-112.9889144897461,-19.40355682373047,-18.754371643066406,-12.30552101135254,-25.15265274047852,55.96330261230469,-94.0618133544922,-6.001243591308594,-11.032487869262695,-23.490699768066406,-16.393218994140625,-60.68062973022461,-131.63450622558594,4.039767265319824,-3.220991611480713,-4.404241561889648,-163.36154174804688,-75.71013641357422,99.0408706665039,-2.143836975097656,-0.4146538376808166,-6.901995658874512
2241.296678304672,155.63575744628906,-66.28346252441406,-94.41682434082033,6.775367736816406,-2.832626342773437,1.228774070739746,-50.78514862060547,-56.11983489990234,-99.5328369140625,14.517898559570312,-2.365111351013184,9.692998886108398,-25.387086868286133,47.538673400878906,-116.62904357910156,-16.854156494140625,-17.051475524902344,-19.75329971313477,-20.596515655517575,-59.18989944458008,-128.97698974609375,1.3823797702789309,-4.478459358215332,1.172809600830078,-159.73883056640625,-77.58306884765625,95.32411193847656,-6.5694780349731445,-3.031078815460205,-7.745827674865723
2241.3266775608063,156.76821899414062,-63.89288330078125,-93.491455078125,-2.2568154335021973,-4.929008483886719,0.8969135284423828,-50.6862678527832,-58.909912109375,-96.49095916748048,13.315698623657228,-14.417539596557615,-6.274946212768555,-20.783510208129883,47.27739334106445,-126.01569366455078,11.570245742797852,11.170948028564451,-12.305686950683594,-24.43817901611328,-58.40446472167969,-126.336669921875,2.486303329467773,-10.387372970581056,6.315256118774414,-154.33665466308594,-77.10476684570312,92.05583190917967,-0.8849867582321167,0.4900738000869751,-2.5075645446777344
2241.356678009033,155.45687866210938,-60.82364273071289,-91.4730987548828,-1.4069406986236572,-5.93055534362793,5.72458553314209,-55.71798706054688,-62.07928085327149,-92.81163024902344,-0.7418972253799438,-5.518881797790527,4.084850311279297,-25.566442489624023,50.13958740234375,-119.89674377441406,-0.3500219583511352,0.8001053333282471,-4.313578605651856,-30.31778335571289,-59.01050567626953,-125.16079711914062,0.5937937498092651,-10.958393096923828,7.959005355834961,-158.43148803710938,-75.72152709960938,96.117431640625,6.454998970031738,3.8505449295043945,5.456362724304199
2241.386692762375,153.45242309570312,-57.328006744384766,-88.179443359375,-2.135650634765625,-1.5332353115081787,6.102991104125977,-60.79620361328125,-65.01223754882812,-90.76568603515624,-4.190150260925293,-4.767973899841309,1.1263809204101562,-26.40414810180664,52.2723503112793,-109.28166961669922,-4.661186218261719,2.610389709472656,1.4841985702514648,-37.5599365234375,-61.158538818359375,-126.65383911132812,-1.0058495998382568,-7.459321022033691,5.648137092590332,-164.54847717285156,-75.02650451660156,98.68511199951172,-5.6615142822265625,-1.6928200721740725,6.2640380859375
2241.416231393814,150.00425720214844,-55.158538818359375,-84.85734558105469,-1.21942400932312,2.770148277282715,3.6788177490234375,-57.3491325378418,-67.16053009033203,-94.42011260986328,-3.47762393951416,-4.460492134094238,-0.4843549728393554,-19.28431510925293,50.97402572631836,-96.33783721923828,-6.446322441101074,2.2949328422546387,-1.970468521118164,-43.15532302856445,-63.25062561035156,-129.96554565429688,-3.791914939880371,-0.0598236843943595,5.204465866088867,-168.93943786621094,-75.13375091552734,100.24745178222656,-7.769914627075195,-1.5136847496032717,9.503034591674805
2241.476222515106,145.22166442871094,-55.51889419555664,-80.62987518310547,3.931461811065674,-1.0617396831512451,6.995309829711914,-44.39329528808594,-68.29473114013672,-105.1108856201172,-3.4519267082214355,-4.682821273803711,-0.9601640701293944,-11.2015380859375,45.177772521972656,-81.39390563964844,-11.74305534362793,1.1007747650146484,-3.576462745666504,-45.385589599609375,-64.13722229003906,-133.92575073242188,-6.190009117126465,0.5736488103866577,2.358335494995117,-165.13050842285156,-75.44108581542969,96.8750228881836,0.6747828722000122,0.4283205270767212,6.472156524658203
2241.5067727565765,136.4771728515625,-58.67418670654297,-74.92555236816406,5.675422668457031,-4.772259712219238,2.369222640991211,-34.02067947387695,-68.59086608886719,-113.5401840209961,-4.10394287109375,-6.557663917541504,-2.8239564895629883,-3.695848226547241,34.05746841430664,-67.87564086914062,-9.193639755249023,1.3034555912017822,-7.441679954528809,-44.19526672363281,-64.53377532958984,-137.79904174804688,-6.013604164123535,-1.4411964416503906,-1.0134763717651367,-158.7276611328125,-75.47339630126953,91.70915222167967,9.006294250488281,2.019101142883301,2.4051475524902344
2241.536771774292,129.30259704589844,-59.70734405517578,-75.05603790283203,15.16476821899414,3.0993242263793945,-2.2431812286376958,-26.7884521484375,-68.10789489746094,-120.64617919921876,-4.525832176208496,-3.853487968444824,0.2432098388671875,-0.8810062408447266,20.148128509521484,-56.83963394165039,-8.09249496459961,-0.1544134616851806,-6.242215156555176,-40.62162399291992,-64.83084106445312,-141.6917266845703,-5.195919036865234,-2.6759395599365234,-3.654374599456787,-160.38006591796875,-74.98773956298828,90.41064453125,9.744464874267578,2.352259635925293,-0.7893714904785156
2241.566764831543,130.8885955810547,-57.50763320922852,-84.248291015625,19.650753021240234,6.662571907043457,4.944876670837402,-18.01451110839844,-65.98013305664062,-127.50032806396484,-4.544044494628906,-5.087044715881348,-1.3388051986694336,1.593220591545105,6.799818515777588,-46.00120162963867,0.7870720624923706,1.3050990104675293,-8.482717514038086,-37.38469696044922,-64.85772705078125,-145.63772583007812,-5.265102386474609,-4.457276344299316,-4.458795547485352,-167.48605346679688,-74.20392608642578,91.7135238647461,4.537171363830566,-1.8665189743041992,-0.8064632415771484
2241.5967099666595,139.86614990234375,-50.89517593383789,-98.6316909790039,13.467029571533203,-3.535231590270996,2.706959724426269,-10.665922164916992,-63.64890670776367,-132.80923461914062,-0.4043766856193542,-6.430805206298828,-3.2386627197265625,-4.474190711975098,-4.816159725189209,-33.82632827758789,1.3579597473144531,3.852021217346192,-12.319101333618164,-35.09967041015625,-64.58985137939453,-149.7209014892578,-6.776644706726074,-4.275257110595703,-2.499825954437256,-169.96194458007812,-74.49254608154297,92.3540496826172,1.292820930480957,-1.1302225589752195,-0.5403003692626953
2241.626797914505,149.37539672851562,-43.48995208740234,-112.04837036132812,4.850577354431152,-6.378562927246094,-2.081711769104004,-6.382152080535889,-62.42925643920898,-135.9605255126953,3.3617100715637207,-5.816224098205566,-3.745497703552246,-16.262205123901367,-13.636868476867676,-21.36821556091309,-3.997925281524658,-6.614127159118652,-0.1948385238647461,-32.41712951660156,-64.04381561279297,-154.04542541503906,-5.782808303833008,-1.9715402126312256,-3.239186763763428,-167.982421875,-74.8093032836914,91.24560546875,3.9972681999206543,3.046672821044922,0.1611404418945312
2241.656797885895,157.36363220214844,-36.59937286376953,-122.85425567626952,0.1375252902507782,-6.061017990112305,-5.358084678649902,-4.122042179107666,-63.171817779541016,-136.2066650390625,2.710687160491944,-2.5975890159606934,-2.7251410484313965,-21.001998901367188,-20.020647048950195,-12.513938903808594,-1.309053659439087,-1.0922484397888184,-1.8006000518798828,-27.545869827270508,-63.75811004638672,-159.31797790527344,-4.502658843994141,-0.7502727508544922,-5.364442825317383,-168.7720947265625,-73.94678497314453,90.6552963256836,4.942670822143555,0.3016369342803955,-2.271822929382324
2241.685813188553,163.73123168945312,-31.216646194458008,-131.5023651123047,-3.821376323699951,-2.9965944290161133,-8.999624252319336,-7.39042854309082,-66.86544036865234,-132.41273498535156,3.1980299949646,-5.971945762634277,-3.7730112075805664,-22.66015243530273,-25.783069610595703,-8.087188720703125,-1.769087553024292,-2.482754707336426,-2.0570387840271,-19.978965759277344,-64.30060577392578,-165.9759521484375,-4.679192543029785,0.4351019859313965,-7.493922233581543,-169.8273468017578,-73.26176452636719,90.15206909179688,-0.1987696290016174,-1.2860338687896729,-4.183422088623047
2241.716448068619,167.9018096923828,-28.66761589050293,-138.49716186523438,-3.486547946929932,1.9936840534210205,-10.863800048828123,-21.535823822021484,-72.1663589477539,-122.38831329345705,-2.0479445457458496,-5.55092716217041,-3.1099724769592285,-23.711095809936523,-32.901790618896484,-6.863345146179199,1.470512628555298,-1.1053504943847656,-2.26643180847168,-9.652628898620604,-65.73751831054688,-174.9297332763672,-3.18007755279541,-0.7626073360443115,-8.507278442382812,-169.1723175048828,-72.61243438720703,89.68689727783203,-2.949795722961426,1.127824068069458,-4.09816837310791
2241.77650475502,169.9344024658203,-29.55791282653809,-144.76461791992188,-7.155767440795898,3.453720092773437,-11.410148620605469,-46.55579376220703,-76.75325775146484,-98.6851043701172,1.6665325164794922,-8.413532257080078,-5.827923774719238,-22.6728630065918,-41.87021255493164,-7.388645172119141,4.875550270080566,-0.0692527294158935,0.5393104553222656,1.2467937469482422,-67.8680419921875,174.20211791992188,-2.4436092376708984,-1.3488571643829346,-8.634298324584961,-168.54185485839844,-71.6229248046875,89.59270477294922,-0.5669476985931396,0.5995321273803711,-4.594393730163574
2241.80605340004,169.27340698242188,-33.57720184326172,-151.13307189941406,-5.1847686767578125,8.22506332397461,-0.6643276214599609,-80.506591796875,-77.40534210205078,-66.21810913085938,-4.605780601501465,-5.685943603515625,-0.5581445693969727,-18.91269874572754,-51.726558685302734,-11.388904571533203,9.33001708984375,-1.2005696296691897,5.685254096984863,2.5262322425842285,-71.03961944580078,164.64010620117188,-3.527822971343994,-8.677059173583984,-0.9147157669067384,-165.96397399902344,-71.31829833984375,87.91490173339844,1.782928466796875,-0.4441390633583069,-5.560300827026367
2241.8360528945923,168.47103881835938,-33.2996826171875,-154.61183166503906,-3.364267349243164,4.403763771057129,18.009990692138672,-99.8062744140625,-75.33174133300781,-47.74367141723633,-3.959309101104736,-5.16648006439209,0.7244119644165039,-5.6303887367248535,-60.99727249145508,-22.0544548034668,12.523942947387695,-0.4336543083190918,33.369384765625,-1.451345682144165,-72.97904205322266,155.07720947265625,-4.271738052368164,-2.486234188079834,5.975809097290039,-162.09750366210938,-72.06192779541016,84.89020538330078,0.8919219970703125,1.9086322784423828,-4.925237655639648
2241.8660526275635,173.25177001953125,-33.05200958251953,-154.74325561523438,-16.769451141357422,-3.596813678741455,-2.2628984451293945,-110.1506576538086,-73.57980346679688,-37.88283157348633,-3.252649307250977,-5.484832763671875,-0.0699996948242187,10.971181869506836,-62.517459869384766,-32.88237380981445,5.094193458557129,7.665717124938965,27.30479049682617,8.37407398223877,-74.10395812988281,134.24095153808594,-2.4950194358825684,-5.954597473144531,19.134944915771484,-160.25721740722656,-73.819091796875,81.85317993164062,3.0026626586914062,0.1636057198047638,-3.2256131172180176
2241.8966014385223,175.1713409423828,-31.268726348876957,-151.00523376464844,-23.39347076416016,-0.6949049234390259,15.479286193847656,-115.23501586914062,-72.53099822998047,-33.1159553527832,-3.2584238052368164,-6.781558036804199,-1.3402957916259766,14.096362113952637,-58.17101287841797,-32.17989730834961,15.2637939453125,5.345893859863281,14.85523796081543,38.9150505065918,-69.04000854492188,99.63087463378906,-0.8422967195510864,-13.711585998535156,30.315105438232425,-162.56935119628906,-73.2754135131836,82.68561553955078,6.3241472244262695,2.2330384254455566,6.468660354614258
2241.926601409912,169.7949981689453,-23.91973304748535,-146.67369079589844,-13.83209228515625,-9.248197555541992,17.333484649658203,-115.93082427978516,-71.92584228515625,-33.29132461547852,-3.106064796447754,-6.914124488830566,-0.5598430633544922,4.885760307312012,-50.9842414855957,-26.818506240844727,19.52902603149414,-5.084345817565918,11.411895751953123,56.614234924316406,-56.16583633422852,81.17122650146484,-11.260141372680664,-12.178304672241213,24.51781463623047,-165.2103729248047,-72.46007537841797,82.52854919433594,1.8303983211517332,-2.2814388275146484,7.29149055480957
2241.9566011428838,166.7598114013672,-14.168210983276367,-145.53211975097656,-15.660882949829102,-9.554140090942385,13.889900207519531,-112.9996109008789,-72.29344940185547,-37.84878158569336,-4.473969459533691,-5.606698036193848,0.9832849502563475,-1.9965121746063232,-41.39189147949219,-25.997447967529297,13.339336395263672,-13.774503707885742,5.312302589416504,59.01568984985352,-41.32973098754883,72.24458312988281,-7.85420036315918,-3.6218881607055664,14.91689109802246,-166.7970428466797,-73.5908432006836,81.8558120727539,-1.7632310390472412,2.36714506149292,5.86667537689209
2241.9866166114807,162.66030883789062,-5.344371318817139,-147.2340850830078,-10.791776657104492,-2.351254463195801,4.415248870849609,-105.3433074951172,-73.8511734008789,-47.89284133911133,-5.279719352722168,-5.240241050720215,3.857174873352051,-10.455525398254396,-31.51067924499512,-27.973541259765625,9.35110855102539,-14.912792205810549,-3.5215940475463867,46.99937057495117,-28.222570419311523,68.37663269042969,-5.018708229064941,1.4151413440704346,5.178476333618164,-171.2982635498047,-75.5361099243164,84.39239501953125,2.168308734893799,3.815682888031006,7.296499252319336
2242.0161538124084,161.78761291503906,0.3341949582099914,-150.10302734375,-3.844792366027832,4.455985069274902,-5.81015682220459,-89.8865737915039,-75.10774230957031,-65.98944854736328,-0.3479195833206177,-7.437331199645996,9.210792541503906,-19.675018310546875,-25.105966567993164,-30.35643768310547,-0.9822030067443848,-14.180984497070312,-9.421466827392578,25.523590087890625,-16.79222869873047,68.37368774414062,-7.027078628540039,5.12343692779541,-3.495209217071533,-176.44699096679688,-76.5877914428711,87.86019134521484,3.9140892028808594,1.9493403434753416,9.112611770629885
2242.0761528015137,163.08702087402344,1.2846295833587646,-152.7101287841797,0.1636131405830383,6.92034912109375,-10.272104263305664,-57.01830291748047,-73.535888671875,-96.69109344482422,-0.1830378472805023,-1.9254393577575684,-1.4211454391479492,-27.72354888916016,-25.157968521118164,-33.755367279052734,-7.5717573165893555,-8.375112533569336,-5.97268009185791,0.5453190803527832,-6.042173862457275,70.59065246582031,-2.684774875640869,2.088407039642334,-8.316579818725586,178.00112915039062,-77.79296875,92.10289764404295,2.9566192626953125,3.198694229125977,8.847555160522461
2242.1066992282867,163.1284942626953,-2.9346704483032227,-155.04966735839844,-0.7711437940597534,6.999629974365234,-13.925580978393556,-45.01651382446289,-71.92606353759766,-105.42871856689452,-5.645119667053223,-3.638017654418945,-10.87615203857422,-32.898799896240234,-30.4578800201416,-38.732059478759766,-7.927680015563965,-3.679188251495361,-2.0479865074157715,-16.81673240661621,4.877549171447754,72.8633041381836,3.791141033172608,-0.2922948598861694,-0.1430673599243164,172.0571746826172,-79.01148223876953,97.0162124633789,2.225960731506348,1.5649573802947998,5.663015365600586
2242.1366999149323,159.44496154785156,-12.155406951904297,-156.7602081298828,-4.057865142822266,4.43309211730957,-16.758312225341797,-45.56180953979492,-71.1847152709961,-105.97722625732422,1.343740940093994,-3.669329643249512,-8.803178787231445,-36.65605163574219,-38.88397979736328,-45.498626708984375,-6.2796735763549805,0.1436102390289306,-5.672464370727539,-17.04824447631836,15.364075660705566,74.54048156738281,0.495116651058197,1.2520346641540527,-5.712995529174805,168.94615173339844,-79.52729034423828,100.15753936767578,1.2813522815704346,-0.9396450519561768,-1.4272689819335938
2242.166699886322,154.82687377929688,-24.78468132019043,-157.1462860107422,-7.619758605957031,2.2696690559387207,-13.785438537597656,-50.9853630065918,-70.87657165527344,-106.29239654541016,-7.468852043151855,1.1250686645507812,-9.160123825073242,-42.68715286254883,-48.357513427734375,-52.97197723388672,-5.270417213439941,-0.9958953857421876,-2.7213330268859863,-9.762514114379885,24.783525466918945,76.6542739868164,-3.594934463500977,2.522866725921631,-9.17963981628418,169.31568908691406,-78.79549407958984,100.3147964477539,1.3142623901367188,-0.8962823152542114,-5.720969200134277
2242.196251153946,151.16123962402344,-39.43484115600586,-156.0102996826172,-8.890470504760742,-1.6812148094177246,-11.061798095703123,-57.21368408203125,-70.61184692382812,-103.20797729492188,-3.906229972839356,-7.468338012695312,-6.801811218261719,-44.54315948486328,-56.89076232910156,-62.48951721191406,-6.615094184875488,3.7439937591552734,0.2329320907592773,-0.9246161580085754,34.08759307861328,80.84586334228516,-2.795571804046631,2.331477165222168,-11.98830223083496,171.20413208007812,-78.38925170898438,99.03811645507812,0.6699416637420654,0.347731351852417,-9.757774353027344
2242.226324081421,149.9606475830078,-55.15597915649414,-152.80908203125,-5.93674373626709,-2.5035834312438965,-2.9095520973205566,-66.9441909790039,-70.80477142333984,-97.72442626953124,0.2734335064888,-5.2006940841674805,-7.668427467346191,-40.28904724121094,-63.228004455566406,-74.1024169921875,-3.8605217933654794,3.7108154296875,-4.2473907470703125,8.635129928588867,42.43131256103516,89.31503295898438,-3.538493156433105,1.4858930110931396,-14.462135314941406,170.91664123535156,-78.48130798339844,98.7090072631836,2.5177879333496094,1.9266836643218996,-11.802042007446287
2242.286542654037,146.18902587890625,-72.11441040039062,-144.39080810546875,-1.5049841403961182,-3.6732006072998047,7.530891418457031,-76.45933532714844,-70.35945129394531,-89.26556396484375,3.3717613220214844,-4.548057556152344,-2.834373950958252,-39.19424057006836,-67.56218719482422,-83.75568389892578,-2.941009998321533,4.210562705993652,-6.303744316101074,21.51306533813477,47.91352844238281,104.35142517089844,-8.509162902832031,8.754240036010742,-20.139190673828125,167.72119140625,-78.53131866455078,99.77105712890624,2.4935474395751958,0.1181778311729431,-9.303621292114258
2242.289551973343,77.58104705810547,-84.69633483886719,-68.33130645751953,12.5821533203125,-3.0492820739746094,16.592769622802734,-89.09017181396484,-68.98072052001953,-78.43294525146484,0.084334909915924,-6.644783973693848,3.425100326538086,-38.232704162597656,-70.93917846679688,-92.2400894165039,-2.400923728942871,5.859896659851074,-5.617042541503906,40.03228759765625,50.01503753662109,120.37320709228516,-4.083581924438477,6.853431701660156,-25.03400421142578,163.3700408935547,-78.75736999511719,102.19789123535156,0.6492226123809814,-0.1746852099895477,-7.008147239685059
2242.316665649414,26.511001586914062,-75.25094604492188,-6.1117472648620605,22.871456146240234,8.585824966430664,4.875329971313477,-97.5495376586914,-66.74264526367188,-71.57168579101562,-2.5092363357543945,-6.80439567565918,4.192570686340332,-34.204383850097656,-74.17008972167969,-101.6597671508789,-1.067906141281128,5.376578330993652,-4.289263725280762,59.907474517822266,51.76705551147461,124.74225616455078,-6.912228584289551,-1.275630235671997,1.8948898315429688,163.3719482421875,-78.79934692382812,101.50819396972656,-1.2084362506866455,-0.8601001501083374,-3.519328594207764
2242.376753091812,27.33967399597168,-71.74798583984375,-4.352348804473877,20.514545440673828,11.12606430053711,-16.25027847290039,-97.58368682861328,-64.66364288330078,-71.02363586425781,-2.5579004287719727,-8.868143081665039,2.265711784362793,-24.41390037536621,-78.30026245117188,-115.19585418701172,0.2701188325881958,3.535362720489502,-2.518045425415039,57.26599884033203,57.10763549804688,111.74089050292967,-16.21240997314453,-2.5019683837890625,0.7978887557983398,169.62852478027344,-78.87029266357422,96.3055419921875,-1.5290143489837646,-1.7683250904083252,-2.9865403175354004
2242.406305074692,47.60150146484375,-74.6068344116211,-22.74698829650879,19.811458587646484,3.7023558616638175,-6.781564712524414,-92.08911895751952,-62.7416877746582,-75.8483657836914,-1.8559861183166504,-7.150008201599121,2.715248107910156,-7.253514289855957,-83.102294921875,-136.63755798339844,1.2576422691345217,2.69632339477539,1.379743576049805,31.701171875,59.40189743041992,82.2337646484375,-6.6307783126831055,1.1653335094451904,-14.297636032104492,178.98068237304688,-77.72158813476562,88.5213851928711,6.49589729309082,-0.7385926246643066,1.5210685729980469
2242.4363057613373,84.0851058959961,-76.2313232421875,-55.5596809387207,-6.758120536804199,-8.689085006713867,7.876188278198242,-81.654052734375,-60.73287582397461,-85.2576904296875,0.2517015933990478,-7.616650581359863,-0.2298479080200195,35.62446975708008,-85.84781646728516,174.94131469726562,3.607575416564941,8.948114395141602,10.971227645874023,14.993378639221191,52.21919631958008,53.51354217529297,-6.140839576721191,-1.4544312953948977,-8.483152389526367,-175.14645385742188,-76.30028533935547,83.57383728027344,8.244178771972656,-0.9848544597625732,9.082220077514648
2242.4664232730865,98.19806671142578,-76.92404174804688,-73.20226287841797,-6.975409507751465,-13.513191223144531,2.647395133972168,-72.70037841796875,-58.33108139038086,-90.7013931274414,0.7859128713607788,-7.794816017150879,-0.4373416900634765,81.66480255126953,-83.72652435302734,130.95022583007812,1.7833828926086426,7.175488471984863,15.816764831542969,11.584108352661133,37.48055648803711,39.356082916259766,-8.930850982666016,-2.783949851989746,-11.67804718017578,-172.65673828125,-74.62939453125,81.31861114501953,2.195943832397461,0.3472052216529846,5.67166805267334
2242.4959666728973,112.8730926513672,-78.18805694580078,-89.1847915649414,-4.470222473144531,6.320440292358398,7.15418815612793,-61.62791061401367,-56.63605880737305,-93.29579162597656,-5.3807373046875,-13.952947616577148,-7.967541694641113,96.29837036132812,-82.9334487915039,124.67144775390624,1.82654333114624,1.9726858139038088,12.903560638427734,12.96826457977295,20.379573822021484,33.30942916870117,5.972343444824219,-11.413463592529297,-4.230108261108398,-172.20697021484375,-73.42928314208984,82.09754943847656,-0.8517705202102661,-0.4321070909500122,3.6087141036987305
2242.525965690613,129.12875366210938,-77.56001281738281,-101.68801879882812,-0.801508903503418,-3.797250270843506,-0.9251556396484376,-51.39558410644531,-56.80600357055664,-91.62796783447266,-16.4959716796875,-24.04916381835937,-15.022083282470703,95.57716369628906,-84.80673217773438,135.4938201904297,4.8960065841674805,-3.0647006034851074,6.57243537902832,22.9957332611084,5.077549934387207,29.969865798950195,10.74388313293457,-15.73876953125,-0.620335578918457,-172.62677001953125,-72.63610076904297,85.41384887695312,-1.140958547592163,-1.1430943012237549,1.642094612121582
2242.5559663772583,144.19110107421875,-77.24781799316406,-113.2706069946289,0.1122817248106002,4.529533386230469,2.230487823486328,-51.18714141845703,-60.76524353027344,-81.42334747314453,-5.613505363464356,-21.80663299560547,-11.364652633666992,83.2618637084961,-86.852783203125,159.828125,3.4856600761413574,-4.220041275024414,0.159210205078125,36.45705795288086,-7.510034561157227,28.41398811340332,8.119638442993164,-7.7585649490356445,1.6892900466918943,-173.19483947753906,-71.12538146972656,89.74940490722656,-4.0427093505859375,1.0910518169403076,-1.535496711730957
2242.5869743824005,153.88853454589844,-76.74440002441406,-122.91060638427734,1.5974576473236084,-2.5054640769958496,0.0635480880737304,-62.15108108520508,-66.97019958496094,-63.59707260131836,0.3169582486152649,-14.632736206054688,-8.195541381835938,26.4967041015625,-88.78244018554688,-135.7887725830078,2.2248125076293945,-1.1139779090881348,-1.872035264968872,47.55278778076172,-17.16965103149414,27.092927932739254,-2.168513774871826,2.3889389038085938,1.581634521484375,-173.89476013183594,-68.86222839355469,95.56331634521484,-4.849278450012207,-1.1648938655853271,-3.226644992828369
2242.6165211200714,162.616943359375,-75.85087585449219,-131.0374298095703,0.1016545891761779,-1.417651653289795,0.0227918624877929,-85.20760345458984,-72.54293823242188,-36.55862045288086,3.8781890869140634,-7.352092742919922,-6.571446418762207,-53.34917068481445,-87.58419036865234,-56.0724983215332,-6.129426956176758,-0.3204061985015869,-3.8236241340637207,52.22152328491211,-23.005340576171875,21.79410552978516,-11.565404891967772,11.0360107421875,10.274208068847656,-174.62525939941406,-66.85545349121094,100.80377197265624,-0.7143580913543701,0.0566802024841308,1.7835798263549805
2242.6465208530426,170.17364501953125,-74.9683609008789,-137.64393615722656,0.9576224088668824,1.2561068534851074,0.8781986236572266,-117.2668228149414,-74.59760284423828,-2.624752759933472,3.3549575805664062,-1.1196269989013672,-5.568333625793457,-66.2134017944336,-86.9021224975586,-44.55909729003906,-12.487640380859377,-2.3053364753723145,-4.609091758728027,48.229000091552734,-23.069374084472656,13.431488990783691,-0.6147599220275879,-3.7117605209350586,3.195611000061035,-175.67996215820312,-66.35464477539062,104.34891510009766,-0.2070646286010742,2.3920974731445312,3.513399124145508
2242.7060668468475,176.0285186767578,-74.82952880859375,-143.6056671142578,0.7097345590591431,1.7762126922607422,1.3366270065307615,-144.1285400390625,-73.91250610351562,25.21143913269043,1.7918860912322998,1.6436553001403809,-5.986204147338867,-59.49472427368164,-87.05416870117188,-47.73365020751953,-8.430633544921875,-1.9636497497558596,-4.012104034423828,48.31351852416992,-18.84856414794922,7.807287216186523,-0.2412976622581482,-13.768121719360352,-5.920753479003906,-178.110107421875,-66.32958221435547,108.52017974853516,-2.938675880432129,2.64859676361084,1.6301469802856443
2242.7360663414,-177.5629119873047,-75.5663070678711,-150.16043090820312,0.8560720682144165,1.1998286247253418,1.0181188583374023,-163.52584838867188,-73.50971984863281,44.632171630859375,1.2811565399169922,0.958023190498352,-4.44522762298584,-54.687801361083984,-86.78916931152344,-50.35065078735352,-4.094350814819336,-0.4934371709823608,-2.668643951416016,54.56570816040039,-14.00558853149414,7.078437805175781,-7.824905395507812,-0.7950805425643921,-9.128263473510742,178.37257385253906,-65.93860626220703,113.1977081298828,-2.798330307006836,2.308908462524414,1.9059076309204104
2242.7660665512085,-170.1530303955078,-76.79902648925781,-157.67015075683594,0.1795805692672729,0.9841848611831664,0.3570699691772461,179.0106658935547,-74.60521697998047,62.191741943359375,-1.084895372390747,0.868826150894165,1.109663009643555,-50.240333557128906,-85.3416748046875,-56.523197174072266,-3.739584445953369,1.478478193283081,-1.2919721603393557,57.788421630859375,-13.340364456176758,8.240406036376953,-7.016543388366699,1.7682440280914309,-9.237878799438477,175.31663513183594,-65.49588775634766,116.5663833618164,-1.505697250366211,0.1920906007289886,0.7036371231079102
2242.796617269516,-162.9000244140625,-77.80980682373047,-165.35574340820312,-0.3924216628074646,-1.0634572505950928,-0.5109128952026367,163.80206298828125,-78.06031036376953,82.05294799804688,-6.987805366516113,-0.2133744060993194,5.061319351196289,-48.92433547973633,-82.48790740966797,-61.700801849365234,-4.836960792541504,0.8929764032363892,-1.9090971946716309,58.546852111816406,-18.28492927551269,8.841761589050293,-1.8937063217163088,-1.2864587306976318,-10.885366439819336,172.0811309814453,-65.51274108886719,119.96011352539062,-1.3888909816741943,1.0186302661895752,-1.9893536567687988
2242.8266162872314,-157.86407470703125,-78.19617462158203,-170.19015502929688,0.3406462669372558,-3.582688331604004,-1.2789783477783203,160.50823974609375,-79.77055358886719,88.80107116699219,-2.02888822555542,3.087869167327881,3.2373809814453125,-51.23384475708008,-78.58273315429688,-63.28363037109375,-3.814337730407715,1.1260745525360107,-3.184203624725342,60.15424346923828,-28.615222930908203,7.912307262420654,2.1561427116394043,1.575376272201538,-8.314964294433594,169.05532836914062,-65.6576156616211,122.77896118164062,-1.1062188148498535,1.179440975189209,-3.842468738555908
2242.8566167354584,-159.795654296875,-77.61073303222656,-167.14697265625,-1.093470811843872,-4.857617378234863,-2.2528209686279297,148.98977661132812,-79.47911834716797,90.73153686523438,-0.2891110777854919,5.3932390213012695,-4.036208152770996,-55.2760009765625,-73.85285949707031,-62.3436393737793,-3.379499912261963,1.058030366897583,-4.487253189086914,59.30716323852539,-44.258697509765625,4.412748336791992,6.382880210876465,6.836078643798828,0.090219497680664,166.33815002441406,-65.79020690917969,124.82958984375,0.4378992915153503,-0.0374516621232032,-4.649507522583008
