Timestamp,D4:22:CD:00:05:5D_EulerX,D4:22:CD:00:05:5D_EulerY,D4:22:CD:00:05:5D_EulerZ,D4:22:CD:00:05:5D_FreeAccX,D4:22:CD:00:05:5D_FreeAccY,D4:22:CD:00:05:5D_FreeAccZ,D4:22:CD:00:05:5E_EulerX,D4:22:CD:00:05:5E_EulerY,D4:22:CD:00:05:5E_EulerZ,D4:22:CD:00:05:5E_FreeAccX,D4:22:CD:00:05:5E_FreeAccY,D4:22:CD:00:05:5E_FreeAccZ,D4:22:CD:00:05:6B_EulerX,D4:22:CD:00:05:6B_EulerY,D4:22:CD:00:05:6B_EulerZ,D4:22:CD:00:05:6B_FreeAccX,D4:22:CD:00:05:6B_FreeAccY,D4:22:CD:00:05:6B_FreeAccZ,D4:22:CD:00:05:6E_EulerX,D4:22:CD:00:05:6E_EulerY,D4:22:CD:00:05:6E_EulerZ,D4:22:CD:00:05:6E_FreeAccX,D4:22:CD:00:05:6E_FreeAccY,D4:22:CD:00:05:6E_FreeAccZ,D4:22:CD:00:49:AA_EulerX,D4:22:CD:00:49:AA_EulerY,D4:22:CD:00:49:AA_EulerZ,D4:22:CD:00:49:AA_FreeAccX,D4:22:CD:00:49:AA_FreeAccY,D4:22:CD:00:49:AA_FreeAccZ
541.0929048061371,-175.53280639648438,-53.38394546508789,8.465993881225586,2.0289015769958496,-2.8914661407470703,0.6922750473022461,-165.95448303222656,-44.15227508544922,-55.9286003112793,-2.6763744354248047,-6.0353546142578125,3.668413162231445,-25.96609878540039,0.0540336370468139,-107.63239288330078,-4.705301284790039,-8.167228698730469,14.504875183105469,84.2472915649414,-59.41209411621094,63.98642349243164,-5.276762962341309,6.777705192565918,13.63485336303711,136.28466796875,-72.93041229248047,124.0440673828125,-5.190608978271484,2.265389442443848,6.518495559692383
541.1637704372406,89.75972747802734,-77.80186462402344,-124.5612564086914,-0.7398215532302856,-2.458479881286621,0.5885391235351562,120.20943450927734,-7.773213863372803,-84.10823822021484,-2.0083374977111816,-0.6773346662521362,-7.427789688110352,59.48773956298828,-50.64591598510742,140.18368530273438,-7.721741676330566,-4.590217590332031,2.161883354187012,14.692197799682615,22.13450813293457,-108.18378448486328,-25.92368698120117,0.0106242410838603,1.5990238189697266,-143.24440002441406,-69.42070007324219,51.466190338134766,-0.2162326872348785,2.0840487480163574,2.643065452575684
541.1937711238861,107.38893127441406,-80.99774169921875,-142.10797119140625,-0.0533489659428596,-2.793755531311035,0.6974086761474609,112.73944091796876,-1.6573528051376345,-87.0484848022461,-0.7862420082092285,-0.7028309106826782,-10.095916748046877,65.1345443725586,-53.336544036865234,135.30294799804688,-5.881728172302246,-1.868013381958008,1.5280494689941406,1.1869988441467283,-0.8155995607376099,-110.73841094970705,-7.275442123413086,3.148684024810791,-8.891895294189453,-144.57485961914062,-73.60626983642578,54.149024963378906,0.0526091381907463,1.536420822143555,-1.258930206298828
541.2242829799652,126.4525146484375,-82.59117126464844,-161.17579650878906,-0.1663025617599487,-1.9160988330841064,0.2315292358398437,105.60770416259766,3.510355234146118,-88.11890411376953,1.290144681930542,-2.922250270843506,-10.634210586547852,65.01753997802734,-57.50798797607422,132.15516662597656,-4.326096534729004,-1.1732230186462402,-2.9373326301574707,10.402069091796877,-5.614823818206787,-101.30452728271484,12.209936141967772,-7.413742065429687,-17.41939926147461,-142.47348022460938,-76.02373504638672,52.88484573364258,1.888319730758667,-0.0659939795732498,-4.25334358215332
541.2837381362915,142.9963836669922,-82.8444595336914,-178.50970458984375,-2.068183898925781,-1.3751754760742188,-0.4878854751586914,101.42325592041016,6.671218395233154,-86.55152130126953,-1.757253885269165,-9.185707092285156,-16.981460571289062,64.9610366821289,-61.25734329223633,129.89170837402344,-3.608386993408203,0.4433069229125976,-5.5616655349731445,19.58795738220215,-9.723608016967772,-90.12889099121094,23.31312561035156,-6.168475151062012,-7.604487419128418,-142.3633270263672,-77.75658416748047,52.74197006225586,2.523397445678711,-0.2196698188781738,-6.397355079650879
541.3137483596802,154.47711181640625,-81.07572937011719,170.07110595703125,-3.8846545219421382,-1.2259244918823242,-1.3651714324951172,102.2957992553711,5.014233112335205,-82.53350830078125,18.789493560791016,-14.683515548706056,-21.909969329833984,66.17447662353516,-65.07685852050781,129.0596466064453,-2.739032745361328,0.9584109783172609,-5.068015098571777,16.017593383789062,-15.32888126373291,-76.22945404052734,5.651968955993652,-11.429370880126951,1.2314395904541016,-142.57850646972656,-79.78363800048828,52.159156799316406,0.7472867965698242,-0.7179070711135864,-5.622797966003418
541.3443825244904,159.69032287597656,-77.59368133544922,166.07034301757812,-4.524541854858398,-3.8241734504699703,-2.3797740936279297,104.07872772216795,-2.324411153793335,-82.54743194580078,7.411224365234375,-16.46472930908203,-17.695220947265625,65.51432800292969,-69.41352844238281,130.78514099121094,-2.420888900756836,1.198594570159912,-4.769296646118164,15.2701997756958,-19.39593505859375,-58.79499435424805,12.181798934936523,-31.478912353515625,5.42513370513916,-137.9686279296875,-82.62982940673828,46.868629455566406,-0.2074750065803527,-1.769609451293945,-3.972681999206543
541.3737959861755,161.8378448486328,-73.73481750488281,164.56236267089844,-0.2755753397941589,1.4849140644073486,-0.6522912979125977,102.92666625976562,-10.157022476196287,-86.5443344116211,4.893200874328613,-16.535999298095703,1.398691177368164,60.750858306884766,-74.29505920410156,135.6495819091797,-4.889801979064941,4.008899688720703,-1.390106201171875,21.92251968383789,-28.071720123291016,-42.956424713134766,17.63602066040039,-8.613687515258789,0.1300010681152343,-119.42913818359376,-84.8311538696289,28.6481876373291,1.566023349761963,0.0276862122118473,-4.67722225189209
541.4041130542755,162.6398162841797,-68.84014129638672,164.81484985351562,-4.097888946533203,-3.486851215362549,-1.8341655731201167,105.23979949951172,-16.48716926574707,-87.38289642333984,5.058149337768555,-14.10079574584961,3.294234275817871,42.78299331665039,-79.88543701171875,153.90049743652344,-7.687319755554199,2.731187343597412,4.865382194519043,17.577516555786133,-40.0673942565918,-35.468727111816406,8.614070892333984,5.100008010864258,12.974199295043944,-113.79735565185548,-85.25975799560547,23.71332550048828,4.175406455993652,-0.5009288787841797,-1.169184684753418
541.4337251186371,163.7454376220703,-64.07455444335938,165.91775512695312,0.5593864917755127,-2.4041318893432617,0.4244375228881836,111.73077392578124,-21.3928279876709,-87.97428131103516,8.637165069580078,-15.958869934082031,6.43621826171875,-43.0010986328125,-79.33716583251953,-124.85965728759766,-9.371789932250977,8.644153594970703,14.609319686889648,11.789552688598633,-46.49641036987305,-33.3492431640625,-2.0058159828186035,-18.32086181640625,0.5782871246337891,-114.69744110107422,-85.08905029296875,25.904216766357425,0.5566469430923462,0.4931214451789856,10.112152099609377
541.463874578476,162.8848419189453,-59.49630355834961,168.10958862304688,1.4435625076293943,-3.04495906829834,-2.0181760787963867,119.11182403564452,-25.822004318237305,-90.8141860961914,8.565507888793945,-21.680137634277344,5.912284851074219,-72.48534393310547,-62.42405700683594,-97.68888092041016,0.0499162673950195,13.252059936523438,20.247371673583984,14.21604824066162,-49.65594482421875,-26.12012481689453,7.584162712097168,-17.184608459472656,3.3368911743164062,-121.11866760253906,-84.50713348388672,33.34428787231445,-0.867520809173584,-0.1902890801429748,12.091192245483398
541.4938752651215,164.4900360107422,-56.05065536499024,168.3676300048828,2.1443986892700195,0.9728726148605348,1.95577335357666,127.26276397705078,-31.96475601196289,-92.44581604003906,0.2576925158500671,-24.80862808227539,-0.1134176254272461,-63.979373931884766,-46.215576171875,-93.8160629272461,9.240995407104492,-1.385404109954834,10.16244888305664,13.856484413146973,-52.49992370605469,-14.881532669067385,19.912582397460938,-3.8157224655151367,11.829025268554688,-121.41056060791016,-84.10462188720703,33.543212890625,4.358730316162109,-0.0335877388715744,10.567642211914062
541.5234599113464,166.2754669189453,-54.15137481689453,168.1240997314453,0.6797151565551758,-1.7020807266235352,1.7512903213500977,130.3848114013672,-38.82868957519531,-96.4620132446289,3.088226795196533,-6.05540943145752,4.218338966369629,-68.7129135131836,-30.00994300842285,-89.48375701904297,4.793712615966797,16.859180450439453,15.016878128051758,-0.1161186769604682,-55.684814453125,1.9436615705490112,18.480377197265625,2.629272937774658,12.74087905883789,-134.9150848388672,-83.9803466796875,47.46121597290039,1.321594476699829,-1.5585289001464844,7.536418914794922
541.5841851234436,167.787353515625,-54.0542221069336,168.252197265625,1.1375179290771484,-1.3629581928253174,1.9948205947875977,132.3497314453125,-46.109954833984375,-96.89495849609376,5.067549705505371,-11.787818908691406,-2.08987808227539,-63.021392822265625,-13.25728702545166,-84.3233871459961,8.074222564697266,1.9738614559173584,20.443092346191406,-13.930529594421388,-57.10134506225586,20.43233299255371,16.734691619873047,7.101508140563965,5.864429473876953,-140.60879516601562,-83.86221313476562,54.83039093017578,-2.6429662704467773,-0.8078880310058594,7.948204040527344
541.6142003536224,169.0258026123047,-55.42387771606445,168.36691284179688,1.637162685394287,1.462002515792847,1.5956401824951172,134.10330200195312,-54.821563720703125,-94.1783676147461,6.139052391052246,-3.5976715087890625,-0.2661991119384765,-45.860870361328125,1.4148656129837036,-80.34422302246094,-1.6011788845062256,-5.42105770111084,9.303199768066406,-21.253562927246094,-57.55512237548828,35.16757583618164,10.384271621704102,10.25904655456543,-0.6216363906860352,-131.98463439941406,-84.25137329101562,49.12181854248047,-1.1053988933563232,0.4630786180496216,7.276994705200195
541.6448247432709,171.1170654296875,-57.62397003173828,167.1692352294922,0.2242134511470794,1.7109766006469729,1.214615821838379,130.84754943847656,-63.37830352783203,-88.3201675415039,4.90252685546875,-1.338787078857422,-4.295753479003906,-31.164220809936523,12.881762504577637,-75.81826782226562,-2.446371555328369,-5.545980453491211,5.300459861755371,-19.199670791625977,-57.502201080322266,42.43362808227539,7.65451717376709,10.346662521362305,-5.958517074584961,-116.6198959350586,-84.57942962646484,37.37277221679688,1.2218332290649414,0.114564910531044,2.1815481185913086
541.6741406917572,173.85159301757812,-61.09273147583008,164.91285705566406,2.8502840995788574,-0.0742102116346359,3.536028861999512,119.08734130859376,-69.50658416748047,-75.13961029052734,4.074739456176758,2.3243207931518555,-8.417552947998047,-13.1339750289917,21.528417587280277,-72.789794921875,-12.55606460571289,-9.464437484741213,1.2306203842163086,-11.236035346984863,-57.65030288696289,45.98794555664063,5.563498497009277,11.36452293395996,-8.642724990844727,-107.38442993164062,-84.43345642089844,32.418453216552734,-1.574753761291504,-0.8011515140533447,-4.086193084716797
541.7043328285217,174.79627990722656,-66.360595703125,164.8544921875,0.4591456651687622,3.0183396339416504,7.575551986694336,97.60181427001952,-72.69684600830078,-54.78691864013672,3.651321411132813,2.714851856231689,-12.15598487854004,6.736602783203125,28.291486740112305,-71.0148696899414,-9.628156661987305,-7.152219772338867,-7.830631256103516,-3.1572682857513428,-58.9659309387207,48.420440673828125,2.7913379669189453,8.881172180175781,-11.873001098632812,-102.90902709960938,-83.49813842773438,32.04736328125,-2.974627017974853,-0.2113873660564422,-2.585601329803467
541.7338564395905,173.00128173828125,-72.61324310302734,168.47486877441406,-12.811653137207031,2.8631033897399902,8.546968460083008,71.67919921875,-72.71366882324219,-29.913969039916992,3.1194443702697754,4.1916093826293945,-12.412385940551758,22.83111572265625,32.6838264465332,-68.2870864868164,-8.04342269897461,0.5136475563049316,-12.52395248413086,0.6030446290969849,-61.219852447509766,52.001243591308594,-1.5426650047302246,1.3781564235687256,-3.572812557220459,-96.72179412841795,-82.6922836303711,28.9737548828125,1.7529873847961426,2.483095169067383,-7.803686141967773
541.764009475708,162.4595489501953,-77.2104263305664,174.43484497070312,-2.4732322692871094,0.926403284072876,-3.4675564765930176,49.11398696899414,-70.00634765625,-8.510916709899902,4.6302337646484375,7.137360572814941,-9.789438247680664,33.60591506958008,35.59340286254883,-65.26081085205078,-1.297499656677246,4.249441146850586,-12.268962860107422,12.770750999450684,-61.36742782592773,55.73501586914063,-2.0287795066833496,7.498784065246582,-8.765281677246094,-85.61131286621094,-82.46636962890625,19.68494033813477,4.29691219329834,2.657630443572998,-14.351564407348633
541.7940101623535,148.86349487304688,-78.96210479736328,-169.35154724121094,-2.3735928535461426,-6.227222442626953,-5.511788368225098,33.0506591796875,-66.5596923828125,4.942629814147949,5.760831832885742,10.981622695922852,-10.158088684082031,38.25725555419922,38.58484649658203,-62.03781127929688,3.0163774490356445,4.323166847229004,-9.802963256835938,11.670812606811523,-61.56333541870117,60.81334686279297,-6.8500518798828125,8.248407363891602,-6.74254322052002,-80.24598693847656,-83.54937744140625,15.385208129882812,0.6123217344284058,-0.9279919862747192,-7.791254043579102
541.824446439743,135.758544921875,-80.97444152832031,-149.95150756835938,-1.2877147197723389,-9.953855514526367,-10.118877410888672,21.303924560546875,-63.73054122924805,12.39712619781494,3.87387752532959,16.48593521118164,-8.62391471862793,34.851402282714844,42.07827758789063,-62.14166259765625,8.356748580932617,5.719178199768066,-7.235273361206055,5.69387674331665,-61.93142318725586,65.48863220214844,-2.2469229698181152,0.3048388957977295,-4.205039024353027,-63.44801712036133,-84.027587890625,-2.048583030700684,-1.0019147396087646,-2.758974075317383,-4.942695617675781
541.8844430446625,123.1630630493164,-82.75657653808594,-137.25970458984375,10.346708297729492,-0.0911931991577148,-8.013683319091797,12.324094772338867,-62.94902420043945,13.550317764282228,7.276299476623535,20.26293563842773,-11.576412200927734,22.58846092224121,46.36378479003906,-69.71690368652344,8.20088005065918,3.484713077545166,-7.776600837707519,7.994943141937256,-61.63982009887695,68.9730453491211,-1.4826505184173584,2.283812522888184,-2.468869209289551,-41.40418243408203,-83.43738555908203,-25.117626190185547,-1.767505168914795,-1.0214879512786863,-5.363883018493652
541.9138894081116,125.77644348144533,-81.63909149169922,-140.10801696777344,3.295954704284668,-1.951266050338745,-5.167534828186035,14.011284828186035,-67.27947998046875,10.271075248718262,21.5879020690918,13.817388534545898,1.9841976165771484,3.0636775493621826,48.89545822143555,-88.21762084960938,4.832125663757324,0.9720838069915771,-13.99236297607422,12.376688957214355,-60.99340057373047,72.51820373535156,-7.493739128112793,5.326096534729004,-3.3543405532836914,-30.63969993591309,-83.45114135742188,-37.34679412841797,-1.3765194416046145,0.4060932993888855,-2.36263370513916
541.9438223838806,130.315673828125,-79.50300598144531,-142.90283203125,1.2575008869171145,5.223628997802734,0.1430110931396484,25.996654510498047,-69.8635482788086,1.1545692682266235,-4.460085868835449,-9.355962753295898,6.173431396484375,-16.89099884033203,43.33140182495117,-113.33573150634766,-13.171178817749023,-5.470894813537598,-26.885990142822266,10.947070121765137,-61.11876678466797,76.65692138671875,-11.246515274047852,4.588190078735352,-1.8085613250732424,-30.483049392700195,-83.74868774414062,-39.67815399169922,1.954385995864868,-5.457338333129883,-0.796107292175293
541.973842382431,131.50296020507812,-77.33059692382812,-143.7310028076172,-0.9429202079772948,1.8887910842895508,-1.0567541122436523,33.108970642089844,-72.70516204833984,-7.20612096786499,7.145175933837891,-1.8139612674713133,10.689184188842772,-19.341928482055664,33.02360916137695,-129.58863830566406,-13.057292938232422,-16.43604278564453,-19.05031967163086,2.655109167098999,-61.97552490234375,80.14644622802734,-10.47129249572754,4.427407264709473,0.2223386764526367,-33.0132942199707,-83.70642852783203,-40.85582733154297,0.2341906130313873,-2.895962238311768,2.0314512252807617
542.0048620700836,129.3594207763672,-74.62274932861328,-142.51687622070312,-5.188591003417969,-1.9985663890838623,1.253840446472168,40.06414031982422,-72.3083724975586,-16.33443260192871,3.5405521392822266,0.8881609439849854,4.15654182434082,-20.466251373291016,30.434446334838867,-127.98613739013672,3.4207472801208496,10.448930740356444,-5.545026779174805,-10.527700424194336,-63.21525192260742,82.21475219726562,-4.117810249328613,6.82550048828125,2.6768798828125,-38.50723648071289,-84.00851440429688,-39.03903579711914,-1.8891668319702148,-2.601045608520508,5.643614768981934
542.03386926651,126.19102478027344,-72.28179168701172,-138.5688018798828,1.8955624103546145,2.064730167388916,5.920492172241211,46.433815002441406,-70.89341735839844,-21.49599266052246,2.9816341400146484,7.312055587768555,-2.8238329887390137,-16.3103084564209,32.91878128051758,-113.00143432617188,-15.326196670532228,-9.254356384277344,-6.492195129394531,-24.381126403808597,-63.92545700073242,82.38174438476562,0.679718017578125,3.626119136810303,10.558097839355469,-60.28850936889648,-84.71843719482422,-20.95815086364746,3.497900009155273,-2.435727119445801,1.929952621459961
542.0640773773193,117.0976104736328,-71.95369720458984,-131.08604431152344,0.5570250749588013,-1.1843414306640625,6.052997589111328,47.47169494628906,-72.06089782714844,-23.73406791687012,10.030202865600586,0.293039321899414,-3.026035785675049,-8.69332218170166,33.67253875732422,-92.85124206542967,-7.005807876586914,-12.172029495239258,-11.50613784790039,-26.930049896240234,-63.005653381347656,78.32408905029297,10.080558776855469,-0.7818044424057007,5.447719573974609,-97.01409912109376,-83.84049987792969,11.689687728881836,8.682863235473633,-0.4821154475212097,-2.053901195526123
542.0937683582306,99.2002182006836,-73.21343231201172,-121.67606353759766,-1.6411893367767334,-4.044373512268066,3.19680118560791,49.0127067565918,-72.51981353759766,-26.22604751586914,4.685163497924805,-1.4734323024749756,-0.9057416915893556,-5.04859733581543,30.875,-72.83261108398438,-4.912891387939453,-5.921353340148926,-1.4644031524658203,-23.33713150024414,-61.13996124267578,74.079833984375,10.70199203491211,0.5153961181640625,-2.234048366546631,-119.38587188720705,-82.54238891601562,31.55455207824707,1.2616546154022217,-1.742802381515503,0.4811105728149414
542.1242120265961,97.73113250732422,-72.8566665649414,-128.84153747558594,18.63573455810547,-15.91214370727539,1.6478958129882812,52.85167694091797,-72.77426147460938,-29.493316650390625,3.2297606468200684,0.4450277090072632,-1.1228265762329102,-3.5202295780181885,26.389385223388672,-55.64213180541992,-1.136833906173706,-0.5002235174179077,-0.6304025650024414,-23.481491088867188,-58.9356689453125,71.96192169189453,5.1710052490234375,6.650912284851074,-2.3694615364074707,-130.6901397705078,-81.02548217773438,42.93084716796875,0.3764867782592773,2.613699436187744,0.021860122680664
542.1842148303986,118.27436065673828,-68.70791625976562,-157.9009552001953,16.66192626953125,-25.18303680419922,8.188375473022461,57.4019889831543,-73.60962677001953,-33.868892669677734,3.289525985717773,4.622931480407715,-1.8216419219970703,-7.481354713439941,20.68166160583496,-41.36349105834961,-1.3756027221679688,4.667411804199219,-1.6473455429077148,-26.463851928710938,-56.842960357666016,71.11511993408203,9.951807022094728,6.0790300369262695,-5.52703857421875,-140.19337463378906,-79.37462615966797,51.58203125,7.295713424682617,-0.1222185641527175,1.1812620162963867
542.2142496109009,135.25070190429688,-58.085357666015625,177.39541625976562,3.868915557861328,-13.241565704345703,6.484006881713867,60.41023635864258,-74.88892364501953,-37.90594482421875,4.239144325256348,2.1897664070129395,-0.963054656982422,-13.957712173461914,13.508158683776855,-29.10917091369629,1.9173915386199951,7.97205638885498,-0.9393033981323242,-28.573455810546875,-55.49300765991211,71.5294189453125,8.104244232177734,4.407900810241699,-4.805033683776856,-145.64596557617188,-79.46837615966797,55.51674270629883,5.466705322265625,0.3483105897903442,-0.0844707489013671
542.2439434528351,143.91587829589844,-44.87210464477539,162.5701904296875,-4.590747833251953,-3.3980588912963867,-2.9555530548095703,62.83035659790039,-76.56834411621094,-41.164527893066406,4.304692268371582,2.157954692840576,-1.5962724685668943,-28.668476104736328,5.464930534362793,-19.696060180664062,-4.193216323852539,5.509882926940918,-7.275993347167969,-28.75662612915039,-54.59012222290039,72.16277313232422,5.046708106994629,7.218465805053711,-6.1113996505737305,-151.2982635498047,-79.77455139160156,58.53938674926758,2.1880006790161133,2.1270556449890137,1.1859111785888672
542.2739474773407,150.73239135742188,-31.567684173583984,153.14859008789062,-4.987064361572266,2.956486225128174,-10.147924423217772,63.918701171875,-78.71202087402344,-43.49429702758789,5.701684951782227,0.0538641586899757,-1.241619110107422,-38.53892135620117,-2.5042433738708496,-13.47945785522461,-2.1632609367370605,-3.522918701171875,13.672735214233398,-27.86231803894043,-54.501258850097656,72.03870391845703,4.36213493347168,8.530271530151367,-4.775684356689453,-155.2718048095703,-80.02638244628906,59.67304992675781,2.271228790283203,0.4074866771697998,-1.309356689453125
542.3049573898315,157.94680786132812,-19.798185348510746,146.43960571289062,-1.2412233352661133,-1.9274570941925049,-6.89715576171875,64.99623107910156,-81.11734771728516,-46.23767852783203,5.542973518371582,-1.550161600112915,-1.5992755889892578,-40.38438034057617,-11.007135391235352,-9.684775352478027,-2.148190975189209,6.100653648376465,-0.800048828125,-24.443693161010746,-55.2033805847168,70.349609375,2.651066780090332,5.898159027099609,-3.462565898895264,-160.1483612060547,-79.67701721191406,62.588958740234375,3.619569778442383,-0.530678391456604,-2.0717196464538574
542.333753824234,164.3645477294922,-12.122783660888672,139.77134704589844,-2.447298526763916,4.022768020629883,-9.361736297607422,66.52027130126953,-84.52876281738281,-51.251583099365234,4.320039749145508,3.3227367401123047,-1.754045486450195,-44.868499755859375,-22.816150665283203,-5.932596206665039,1.8842873573303225,2.48915958404541,-0.2571773529052734,-17.724679946899414,-56.16181564331055,66.80722045898438,-0.1401131153106689,5.683753967285156,-2.812554359436035,-163.70697021484375,-78.59662628173828,63.95186233520508,3.870883941650391,-2.582348346710205,0.2080888748168945
542.3637535572052,164.41265869140625,-10.320006370544434,133.855224609375,-3.362289905548096,14.860809326171877,-11.558645248413086,74.11209869384766,-87.17188262939453,-61.46134948730469,4.388797760009766,2.1733527183532715,-0.0838546752929687,-46.06909942626953,-38.74238967895508,-3.4272561073303223,10.43256950378418,2.688098430633545,6.821622848510742,-8.708752632141113,-56.82126235961914,61.34747695922852,-0.5192339420318604,6.569416046142578,-1.982532024383545,-166.64842224121094,-78.26944732666016,63.08519744873047,-0.2351376414299011,-1.467198610305786,-0.8320102691650391
542.393753528595,161.21339416503906,-13.987662315368652,131.94769287109375,-6.9227399826049805,18.909278869628903,-13.930160522460938,86.92851257324219,-88.15167999267578,-75.23841094970703,5.44852352142334,-0.3121523261070251,0.4568386077880859,-38.62775421142578,-54.950157165527344,-9.551709175109863,23.280982971191406,8.173501968383789,27.41986083984375,-0.6147502660751343,-56.92635345458984,55.10243988037109,-0.8154476881027222,8.977924346923828,-0.5128021240234375,-170.61973571777344,-78.43433380126953,63.61668395996094,-5.405891418457031,1.3482766151428225,2.055659294128418
542.4243702888489,162.7545623779297,-21.273311614990234,132.40362548828125,-6.394575119018555,-1.897308111190796,16.316490173339844,79.03126525878906,-87.16041564941406,-67.37954711914062,5.745125770568848,-1.1790039539337158,0.0780591964721679,-30.164031982421875,-62.284454345703125,-20.30528259277344,15.08083152770996,-1.614674091339111,21.51315689086914,8.461828231811523,-55.92218780517578,46.44406127929688,1.897266626358032,9.243085861206056,2.8587236404418945,-171.52134704589844,-79.15171813964844,63.37359619140625,0.4173813462257385,2.887235164642334,3.2946348190307617
542.4845805168152,166.43344116210938,-24.38574981689453,133.56814575195312,-7.525288581848144,8.602428436279297,19.389347076416016,70.69216918945312,-84.71773529052734,-58.92013549804688,5.856025695800781,0.9047859907150269,-0.7075395584106445,-28.45880508422852,-58.543067932128906,-17.442232131958008,21.021976470947266,-1.3590879440307615,9.247556686401367,27.520301818847656,-53.04909133911133,30.733776092529297,-0.2684783935546875,11.62551498413086,16.177303314208984,-175.16314697265625,-77.73527526855469,65.82921600341797,-1.019802808761597,-1.1928935050964355,8.733545303344727
542.5135867595673,167.83074951171875,-24.998594284057617,134.14822387695312,-17.793685913085938,13.155071258544922,2.4890365600585938,60.06056594848633,-81.5813980102539,-49.015419006347656,7.406105995178223,1.3152174949645996,-0.817896842956543,-35.76168441772461,-48.15662384033203,-10.81396198272705,21.32235336303711,-8.564645767211914,15.592063903808594,45.542457580566406,-44.32704544067383,11.26414394378662,-0.7823704481124878,18.68585205078125,32.16096496582031,-176.46409606933594,-77.60493469238281,67.4137191772461,-0.412492036819458,1.1881613731384275,5.530910491943359
542.5441172122955,167.4852752685547,-23.790536880493164,133.49668884277344,-13.608739852905272,17.858375549316406,9.657424926757812,50.65161895751953,-77.36065673828125,-39.83272552490234,3.7011098861694336,0.5483638048171997,0.9276742935180664,-42.36272048950195,-37.19848251342773,-11.527835845947266,14.597021102905272,-9.409305572509766,7.897741317749023,49.16908264160156,-31.368488311767575,-5.58707332611084,9.178932189941406,9.915138244628906,28.333148956298828,-177.37083435058594,-78.03162384033203,69.51483917236328,2.4280600547790527,1.6557824611663818,5.5570831298828125
542.5741243362427,167.3218994140625,-21.151798248291016,132.70606994628906,-9.117874145507812,17.41659927368164,8.301921844482422,44.317909240722656,-71.9536361694336,-32.20909118652344,11.43780517578125,-1.4176607131958008,0.2462663650512695,-50.30487060546875,-29.63425064086914,-16.657453536987305,0.7148270606994629,-10.944944381713867,-2.329436779022217,49.327518463134766,-16.656173706054688,-20.6752872467041,11.299896240234377,3.259186267852783,10.259838104248049,-178.7779083251953,-78.5307846069336,71.78032684326172,4.400111198425293,1.7623281478881836,5.884941101074219
542.6041247844696,167.65664672851562,-20.530906677246094,133.98550415039062,-8.013004302978516,7.917428016662598,0.6558713912963867,36.79812240600586,-66.7860336303711,-25.009695053100582,7.439238548278809,-0.5362707376480103,-3.5720443725585938,-56.22414016723633,-29.33180427551269,-23.46170425415039,-8.903614044189453,-4.13424015045166,-2.736711978912353,46.75178146362305,-4.010673999786377,-33.00619888305664,7.304188728332519,-3.936734676361084,0.5265378952026367,179.5219268798828,-79.77418518066406,74.14237213134766,6.253034591674805,2.3836817741394043,3.789968490600586
542.6641590595245,171.26007080078125,-21.788238525390625,134.22117614746094,-0.7589147090911865,2.5765914916992188,7.195302963256836,30.286035537719727,-65.41942596435547,-21.575294494628903,14.509368896484377,2.110598087310791,-5.6147003173828125,-59.31196212768555,-35.26637649536133,-31.46800422668457,-7.635143280029297,-1.0341243743896484,-5.4064483642578125,42.59296417236328,6.351816177368164,-41.30729675292969,6.6103515625,-3.2095909118652344,-4.823302268981934,178.67274475097656,-80.5265121459961,74.82237243652344,4.132399559020996,0.7349386215209961,-1.4011735916137695
542.6702332496643,169.6577606201172,-26.744190216064453,133.76182556152344,3.0245237350463867,5.385836601257324,-7.187859535217285,23.267581939697266,-71.94352722167969,-18.70237922668457,3.256483554840088,-2.455925464630127,-4.920802116394043,-62.88859939575195,-45.37710952758789,-39.56484603881836,-6.836716651916504,-1.4468786716461182,-7.553983688354492,35.44256591796875,15.32559871673584,-47.04671478271485,10.449031829833984,-1.871520519256592,-12.430212020874023,174.36875915527344,-81.13130950927734,77.92789459228516,2.976132392883301,-0.090326502919197,-11.247608184814451
542.6941576004028,165.5394287109375,-35.197296142578125,133.90176391601562,1.3484838008880615,2.0314712524414062,-13.509599685668944,14.202048301696776,-76.1465072631836,-13.987372398376465,-25.46939468383789,7.349078178405762,1.0538511276245115,-63.670654296875,-57.95094680786133,-47.74187088012695,-6.062101364135742,1.1650111675262451,-6.029873847961426,24.458620071411133,24.153907775878903,-52.529563903808594,2.9623770713806152,-2.660979747772217,-16.990848541259766,165.0535430908203,-81.28287506103516,85.25431060791016,-0.7016345262527466,-0.7578941583633423,-13.621047973632812
542.7238864898682,161.22911071777344,-46.296531677246094,133.61216735839844,-0.8431897163391113,3.595109462738037,-14.941007614135742,6.948921203613281,-77.32040405273438,-11.67811107635498,9.350318908691406,9.65077018737793,-1.199946403503418,-58.2244873046875,-70.92806243896484,-58.17332458496094,-4.164091110229492,3.094559669494629,-4.851485252380371,17.282533645629883,32.20505905151367,-56.62042617797852,-2.4019150733947754,-1.344712734222412,-13.222908020019531,163.5280303955078,-80.51614379882812,85.1317138671875,0.6876363754272461,0.5264780521392822,-6.877470970153809
542.7840261459351,159.28091430664062,-59.0526123046875,133.03346252441406,-3.441664218902588,3.00936222076416,-8.604705810546875,3.169496297836304,-79.0835952758789,-9.373941421508787,2.8579630851745605,1.468003749847412,-3.024652004241944,-32.97452545166016,-82.93978118896484,-87.2669677734375,-2.349656581878662,4.192197799682617,-4.554286003112793,15.039875030517578,39.53317642211914,-58.74852752685547,2.0818209648132324,4.368832588195801,-10.454790115356444,162.99765014648438,-80.35975646972656,84.61763000488281,3.0389513969421387,-0.9319307804107666,-3.456483840942383
542.8150935173035,162.07696533203125,-73.40745544433594,132.39987182617188,-2.004355907440185,0.768940806388855,1.2284183502197266,-2.456016063690185,-81.05095672607422,-3.58167576789856,3.1416053771972656,1.1699836254119873,-0.142709732055664,74.31720733642578,-81.9736099243164,159.87261962890625,-2.001302719116211,4.34929084777832,-3.457640647888184,12.291607856750488,46.07976531982422,-58.07088470458984,2.102539539337158,7.662445068359375,-7.674184799194336,163.1671905517578,-80.60037231445312,83.46206665039062,-1.2136411666870115,0.4110415577888489,-2.6288552284240723
542.8438487052917,171.33253479003906,-88.00355529785156,129.4925537109375,3.816610336303711,-8.071676254272461,6.360855102539063,-18.06712532043457,-83.09698486328125,10.266289710998535,5.5606689453125,2.655500888824463,2.44525146484375,90.3643798828125,-71.59307098388672,135.60520935058594,-3.0081334114074707,3.380770206451416,-1.6261634826660156,9.893025398254396,51.90347290039063,-52.1733627319336,3.454277515411377,6.161685943603516,-6.26939868927002,165.9996337890625,-80.66204833984375,81.42548370361328,-1.6743063926696775,-0.5333211421966553,-1.7292585372924805
542.8739824295044,3.967613458633423,-79.04763793945312,-53.66824722290039,13.518739700317385,-11.388839721679688,8.232809066772461,-37.72461700439453,-83.58959197998047,30.153759002685547,2.373587131500244,0.6214784383773804,5.367987632751465,89.74225616455078,-62.21098327636719,125.27102661132812,-4.348219871520996,7.397855758666992,0.4912557601928711,13.666597366333008,57.29077911376953,-37.23737716674805,2.437976837158203,1.545607089996338,-10.483835220336914,169.38450622558594,-80.68145751953125,79.73326873779297,3.678457260131836,-0.6636724472045898,-0.3715295791625976
542.90398478508,9.308443069458008,-71.27373504638672,-56.24957275390625,15.303165435791016,-18.135089874267575,-17.823509216308594,-59.92648315429688,-82.84744262695312,53.61594772338867,6.453753471374512,1.3878870010375977,0.6500577926635742,85.5373764038086,-55.02997589111328,118.45838928222656,-2.9321932792663574,11.108051300048828,-2.091016292572021,30.150135040283203,59.396263122558594,-11.797636032104492,14.546279907226562,3.435344696044922,-21.61539077758789,171.78030395507812,-80.78472900390625,78.53244018554688,6.600247383117676,0.6337676048278809,7.076549530029297
542.933851480484,11.950921058654783,-72.1834487915039,-59.822486877441406,8.749263763427734,-13.135259628295898,-8.662460327148438,-65.83372497558594,-80.87327575683594,60.9571647644043,6.905179977416992,0.4419494271278381,0.7517204284667969,83.6850357055664,-50.6979866027832,112.95906829833984,-1.2962799072265625,15.38783836364746,-3.1165614128112797,46.43494415283203,59.88615798950195,3.653564691543579,-1.1995849609375,7.687615394592285,-8.828666687011719,172.24758911132812,-80.33344268798828,78.71261596679688,3.181536674499512,-2.051337718963623,2.94435977935791
542.9647805690765,38.91881942749024,-77.8753890991211,-79.95613098144531,-7.106815338134766,-15.656475067138672,8.342880249023438,-60.49811935424805,-78.63240051269531,57.12424850463867,5.642833709716797,2.5127663612365723,2.9063854217529297,87.19622802734375,-50.19205856323242,109.73223114013672,-0.51611328125,13.849916458129885,-2.685978412628174,51.77738952636719,62.05385208129883,-2.5041158199310303,-2.173882007598877,-1.1070489883422852,-1.884206771850586,170.2958526611328,-79.41537475585938,81.26936340332031,4.764015197753906,-1.077695608139038,-0.0320634841918945
542.9937810897827,69.56535339355469,-80.84747314453125,-106.27500915527344,-7.2159833908081055,3.8355441093444815,8.044977188110352,-42.79073333740234,-74.98414611816406,42.95769119262695,0.7054194211959839,2.179718017578125,1.802922248840332,93.54642486572266,-53.915828704833984,107.08860778808594,-0.4534997940063476,8.184976577758789,3.604636192321777,57.671119689941406,64.62489318847656,-13.498849868774414,4.330066680908203,9.76667022705078,-7.962528228759766,170.371337890625,-77.63676452636719,81.75565338134766,2.990072727203369,-0.1620307862758636,0.8591833114624023
543.0262978076935,93.40656280517578,-82.23515319824219,-130.0850830078125,-9.86732292175293,-2.3254051208496094,4.898806571960449,-35.586360931396484,-72.49396514892578,43.71613311767578,2.589130401611328,11.784753799438477,-2.051755428314209,98.31979370117188,-59.289737701416016,104.48094177246094,3.363821029663086,6.544561386108398,3.4121971130371094,41.41412734985352,64.92819213867188,-34.0806770324707,3.8573813438415527,7.30213451385498,-8.918201446533203,171.55300903320312,-76.54621887207031,82.72809600830078,-3.905770301818848,0.1732632219791412,3.210758209228516
543.0843114852905,121.2359390258789,-80.87380981445312,-155.34007263183594,3.208682060241699,6.720999717712402,1.8353023529052732,-28.62995147705078,-73.6164321899414,49.81217956542969,16.807331085205078,22.575279235839844,-6.779814720153809,105.09100341796876,-63.87941360473633,102.34005737304688,5.539298057556152,5.421518325805664,2.553043365478516,26.05745887756348,60.43675231933594,-58.66920852661133,9.080799102783203,2.561774253845215,-10.77126693725586,173.1353759765625,-76.20384979248047,85.82417297363281,-6.915284156799316,0.7065991163253784,0.2871322631835937
543.113400220871,140.6223907470703,-79.58757781982422,-171.82827758789062,2.2381420135498047,0.3197999596595764,1.9928035736083984,-43.62944030761719,-79.98323822021484,73.8608627319336,14.653450012207031,21.945232391357425,-0.2333250045776367,113.75545501708984,-68.53421783447266,101.94572448730467,4.87779426574707,0.3698747158050537,6.904933929443359,19.00639533996582,50.922611236572266,-75.12869262695312,5.555316925048828,8.742849349975586,-10.336088180541992,175.23867797851562,-74.04505157470703,88.37952423095703,-3.268601417541504,-0.8728756904602051,-2.090856075286865
543.1440227031708,156.2262420654297,-78.81543731689453,173.70089721679688,3.1827597618103027,1.1404016017913818,2.051825523376465,-121.39710998535156,-82.83949279785156,155.618408203125,4.149829864501953,13.15647315979004,-4.677163124084473,119.84339141845705,-73.97807312011719,102.87432098388672,2.986846446990967,-6.117497444152832,3.544987678527832,16.768577575683594,37.85035705566406,-84.49652099609375,3.271505832672119,5.695949554443359,-10.93111801147461,173.60023498535156,-72.36363220214844,92.6026611328125,0.9551303386688232,1.0642204284667969,0.3192787170410156
543.1741216182709,164.6642608642578,-78.50316619873047,165.34938049316406,-1.6136279106140137,-5.344571113586426,-0.1961565017700195,-167.5271453857422,-74.5506362915039,-159.3845672607422,-0.8290584087371826,4.475775718688965,-11.72938346862793,121.51866912841795,-79.14059448242188,105.31649780273438,0.1574223041534423,-8.287052154541016,-1.2343177795410156,15.689508438110352,23.680450439453125,-91.05960845947266,0.7295272350311279,2.9050254821777344,-9.330041885375977,169.6767120361328,-72.05775451660156,96.1646728515625,-1.195563793182373,0.7309360504150391,2.0722665786743164
543.2041249275208,171.13229370117188,-78.20983123779297,160.935302734375,0.8383380174636841,0.7304019927978516,0.9890146255493164,175.52085876464844,-66.44876861572266,-144.7941131591797,0.2377871572971344,-2.1187744140625,-13.89475440979004,111.99656677246094,-83.0689697265625,115.11778259277344,-3.8185086250305176,-7.522251129150391,0.996429443359375,16.709508895874023,9.18743133544922,-96.8975067138672,-3.490306854248047,0.5579404830932617,-5.749170303344727,168.3033447265625,-71.6499252319336,97.48277282714844,-2.109391689300537,3.0034141540527344,2.40969181060791
543.233731508255,175.07362365722656,-78.22640991210938,156.8805694580078,0.1753450036048889,1.4271173477172852,0.0551738739013671,163.40960693359375,-61.21439743041992,-134.86187744140625,-0.6257511377334595,0.1853347420692443,-9.771778106689451,84.08291625976562,-85.83802032470703,138.51068115234375,-7.021956443786621,-5.084000587463379,0.5950250625610352,26.733901977539062,-2.8739819526672363,-101.6905517578125,-18.5009765625,2.098926544189453,-3.512103080749512,167.36599731445312,-72.86949920654297,99.03723907470705,-0.2336499392986297,2.655796527862549,-0.2330665588378906
543.2647294998169,178.54425048828125,-77.63316345214844,153.0303497314453,-0.4549673199653625,0.0994391292333602,0.0372486114501953,149.82608032226562,-58.2154655456543,-125.06690979003906,-1.134591579437256,-3.775181770324707,-4.2002058029174805,29.579633712768555,-87.3553695678711,-171.25509643554688,-6.373654365539551,-1.7150886058807373,-2.2762107849121094,53.16079711914063,-12.046761512756348,-103.1574478149414,1.9277713298797607,-1.6956226825714111,-12.607751846313477,164.02542114257812,-74.17567443847656,102.22503662109376,-0.2671881318092346,1.32958722114563,-3.210404872894287
543.2939095497131,-178.3167266845703,-76.77046966552734,149.81898498535156,-0.039256028831005,0.0544903352856636,-0.0623989105224609,137.47113037109375,-57.82588577270508,-113.1542510986328,-5.574649810791016,-9.879701614379885,-2.938949584960937,-31.687891006469727,-86.08333587646484,-111.3416748046875,-4.082165718078613,-0.5115176439285278,-3.036125659942627,72.3521957397461,-21.700485229492188,-104.07120513916016,14.812856674194336,3.573105812072754,5.085507392883301,157.8961181640625,-74.92757415771484,107.30130767822266,-1.2472801208496094,-0.0856451392173767,-5.414624214172363
543.32346534729,-176.960205078125,-75.57440185546875,148.21243286132812,-0.6759827136993408,-0.3603606224060058,-0.1766929626464843,130.63014221191406,-59.207515716552734,-100.55829620361328,40.361427307128906,2.876199245452881,15.916147232055664,-54.393028259277344,-82.67761993408203,-89.20814514160156,-2.246006488800049,1.0550541877746582,-3.056117057800293,86.06804656982422,-32.38941955566406,-105.33879089355467,1.8348355293273928,-2.1195459365844727,-4.032607078552246,152.15133666992188,-75.06430053710938,112.02886962890624,-2.210533142089844,-0.2717239260673523,-6.757059097290039
543.3839375972748,-178.01284790039062,-73.64752960205078,149.51333618164062,-2.278487205505371,-0.3683918118476867,-0.7546491622924805,134.46649169921875,-58.62263488769531,-99.92506408691406,-6.146352767944336,-10.972663879394531,-14.068574905395508,-62.38178634643555,-78.08135986328125,-81.82904815673828,-1.451749324798584,1.8268060684204104,-3.789370536804199,101.0399932861328,-43.420372009277344,-105.73796844482422,1.6478314399719238,2.105009078979492,8.248208999633789,145.32650756835938,-75.02408599853516,118.66624450683594,-2.499760627746582,-0.8227106332778931,-5.414590835571289
543.4139401912689,179.82142639160156,-70.53190612792969,153.55316162109375,-1.7372674942016602,-1.5454702377319336,-1.105698585510254,131.38609313964844,-57.72210693359375,-98.12938690185548,7.880875587463379,-15.993093490600586,9.066787719726562,-65.8408203125,-72.37317657470703,-79.24723052978516,-0.6398227214813232,2.319059371948242,-4.220709800720215,97.11375427246094,-55.063751220703125,-101.49601745605467,3.383844375610352,8.473808288574219,11.493999481201172,138.5246124267578,-74.53075408935547,126.78446197509766,-1.6101007461547852,-1.3302078247070312,-3.1610565185546875
543.4436087608337,176.4254150390625,-66.56634521484375,158.03579711914062,-0.5442293882369995,0.38213050365448,-0.1741771697998047,131.64535522460938,-58.005859375,-97.3939971923828,3.656768321990967,-10.946897506713867,8.153799057006836,-68.11444091796875,-66.07731628417969,-78.17506408691406,-1.4173319339752195,3.9767255783081055,-3.314370632171631,65.13641357421875,-66.54208374023438,-84.31021118164062,4.4679460525512695,-4.889716148376465,12.20071792602539,133.617919921875,-73.94356536865234,133.6165008544922,1.88301682472229,0.9582177400588988,1.5011539459228516
543.4735476970673,173.16627502441406,-62.16491317749024,162.375732421875,-1.6861026287078855,-0.8968538045883179,-1.5126733779907229,134.65135192871094,-57.38682556152344,-101.00196075439452,1.7920167446136477,-1.4674124717712402,12.725790023803713,-68.13069915771484,-60.41529846191406,-76.36715698242188,-3.626240730285645,7.174683570861816,1.1027774810791016,18.91634559631348,-72.23623657226562,-50.89019012451172,-2.6367249488830566,-12.505609512329102,28.478191375732425,130.25929260253906,-74.11624145507812,138.3597412109375,2.5746216773986816,0.9242449998855592,7.500820159912109
543.5040082931519,172.73976135253906,-58.086387634277344,166.1072540283203,0.5457406044006348,-0.7584573030471802,-0.016524314880371,141.629150390625,-55.990211486816406,-105.34185028076172,-0.7024037837982178,-6.775522232055664,17.551116943359375,-68.07293701171875,-54.82927322387695,-73.09896850585938,-2.4349265098571777,10.645448684692385,13.335573196411133,19.505578994750977,-73.23282623291016,-53.60533142089844,-3.001225471496582,-7.8063459396362305,16.12139892578125,129.6109619140625,-74.54596710205078,139.31192016601562,-3.9840359687805176,2.5427980422973637,7.0950927734375
543.5336589813232,172.96986389160156,-54.748008728027344,167.53228759765625,1.021353006362915,-1.3041443824768066,1.0134916305541992,152.7173309326172,-55.59931182861328,-108.57161712646484,-0.7432681322097778,-11.843666076660156,6.400327682495117,-63.85540390014648,-46.92664337158203,-70.39855194091797,0.4450139999389648,8.957174301147461,15.898859024047852,43.91617202758789,-70.60289001464844,-69.78018951416016,7.654764175415039,-16.296192169189453,14.100963592529297,134.09202575683594,-74.72970581054688,135.43336486816406,-3.9824023246765137,2.0530247688293457,10.328950881958008
