Timestamp,D4:22:CD:00:05:5D_EulerX,D4:22:CD:00:05:5D_EulerY,D4:22:CD:00:05:5D_EulerZ,D4:22:CD:00:05:5D_FreeAccX,D4:22:CD:00:05:5D_FreeAccY,D4:22:CD:00:05:5D_FreeAccZ,D4:22:CD:00:05:5E_EulerX,D4:22:CD:00:05:5E_EulerY,D4:22:CD:00:05:5E_EulerZ,D4:22:CD:00:05:5E_FreeAccX,D4:22:CD:00:05:5E_FreeAccY,D4:22:CD:00:05:5E_FreeAccZ,D4:22:CD:00:05:6B_EulerX,D4:22:CD:00:05:6B_EulerY,D4:22:CD:00:05:6B_EulerZ,D4:22:CD:00:05:6B_FreeAccX,D4:22:CD:00:05:6B_FreeAccY,D4:22:CD:00:05:6B_FreeAccZ,D4:22:CD:00:05:6E_EulerX,D4:22:CD:00:05:6E_EulerY,D4:22:CD:00:05:6E_EulerZ,D4:22:CD:00:05:6E_FreeAccX,D4:22:CD:00:05:6E_FreeAccY,D4:22:CD:00:05:6E_FreeAccZ,D4:22:CD:00:49:AA_EulerX,D4:22:CD:00:49:AA_EulerY,D4:22:CD:00:49:AA_EulerZ,D4:22:CD:00:49:AA_FreeAccX,D4:22:CD:00:49:AA_FreeAccY,D4:22:CD:00:49:AA_FreeAccZ
1443.8611965179443,167.8043212890625,-74.40570831298828,-98.02008819580078,-2.846378803253174,9.906578063964844,-2.1812286376953125,-127.53599548339844,-64.40270233154297,-104.5138702392578,-12.508638381958008,3.791915893554688,-1.2451047897338867,9.712340354919434,27.1184139251709,-100.10076904296876,3.3867077827453613,-18.805198669433597,-19.95908737182617,127.86192321777344,-38.308780670166016,53.81067657470703,2.637105941772461,-1.246549367904663,-4.370777130126953,-173.88995361328125,-79.37169647216797,111.34383392333984,-1.6201848983764648,-0.2970301508903503,-6.455394744873047
1443.870202541351,165.31332397460938,-73.96733856201172,-99.72943115234376,-5.5201416015625,-2.963353157043457,-0.7945699691772461,-136.57913208007812,-61.487831115722656,-97.16265869140624,-8.012250900268555,-11.918466567993164,-4.854233741760254,-10.0758695602417,17.525083541870117,-116.22415161132812,-25.052326202392575,-29.90625762939453,-23.904972076416016,130.2620086669922,-38.603275299072266,54.035423278808594,5.217921257019043,0.354194700717926,-2.02485990524292,-171.66607666015625,-80.68529510498047,108.63654327392578,-0.4157555103302002,0.8483532667160034,-1.6131925582885742
1443.877185344696,163.900390625,-72.62157440185547,-95.47738647460938,-0.2113377451896667,-3.344645500183105,-0.0408296585083007,-141.8295440673828,-59.75954055786133,-90.56322479248048,-2.677701473236084,-16.121105194091797,-4.37026309967041,-20.06336975097656,19.390789031982425,-111.14122009277344,1.9160003662109373,19.30771255493164,-10.053611755371094,136.78660583496094,-40.48991775512695,51.54726791381836,13.320756912231444,-3.98575210571289,1.5688114166259766,-176.95069885253906,-80.44245910644531,111.55733489990234,-2.8578453063964844,-1.0125682353973389,-0.5412473678588867
1443.9268498420715,172.24911499023438,-63.7705192565918,-118.17349243164062,-5.385873794555664,-12.576210021972656,6.582818984985352,-78.3878402709961,-4.141194820404053,-101.87905883789062,-0.7219721078872681,3.0790019035339355,-5.648984909057617,-7.562983989715576,4.529600143432617,-36.48971557617188,-7.711795806884766,-16.370018005371094,-5.296328544616699,119.2726821899414,-53.83074569702149,16.744491577148438,-7.705670356750488,0.4510493278503418,-2.4242091178894043,-127.24534606933594,-80.1092300415039,58.297481536865234,-1.4637606143951416,-0.2652724385261535,-4.533385276794434
1443.957363128662,170.7949676513672,-68.34564971923828,-119.20274353027344,2.802311420440674,-0.8069579601287842,-2.7514376640319824,-79.19515991210938,0.7041094899177551,-106.15057373046876,-1.5157103538513184,3.7867279052734375,-6.255851745605469,-4.656624794006348,13.232718467712402,-39.99777221679688,-5.270717620849609,-4.555314064025879,-17.264617919921875,139.35238647460938,-49.031925201416016,12.111753463745115,-5.2666521072387695,-0.707960844039917,-3.954900741577149,-118.95699310302734,-79.0876693725586,53.69083404541016,0.5391005277633667,-2.804281711578369,-7.711198806762695
1443.9868383407593,176.47242736816406,-66.45437622070312,-117.17308807373048,3.4093918800354004,-6.600043296813965,-12.532829284667969,-84.3007583618164,8.244280815124512,-115.9380340576172,-3.369013786315918,3.687537670135498,-7.571194648742676,-9.816506385803224,22.9127197265625,-44.12223052978516,2.447181701660156,-1.687114715576172,-12.70263671875,156.51292419433594,-48.36073303222656,6.553556442260742,-4.724411964416504,-7.982288360595703,-2.621523380279541,-124.84268951416016,-78.47845458984375,59.909366607666016,5.605050086975098,1.863375186920166,-9.513507843017578
1444.0171382427216,-173.1353759765625,-70.54643249511719,-121.6980438232422,2.6414003372192383,-14.566690444946287,-15.946008682250977,-93.46916961669922,11.457880973815918,-126.51002502441406,-5.842827796936035,2.0255517959594727,-10.006708145141602,-14.915424346923828,32.20881652832031,-50.80220413208008,0.6097567081451416,-2.8132357597351074,-13.890031814575195,159.0941162109375,-47.88979721069336,2.4393811225891118,-3.17183256149292,-5.694781303405762,-6.373885154724121,-132.0789794921875,-81.32154083251953,67.57749938964844,-0.6326812505722046,3.164987087249756,-7.578805923461914
1444.0467853546145,-159.583251953125,-73.74717712402344,-131.55517578125,-15.26752471923828,32.21379089355469,2.769844055175781,-105.64010620117188,10.962028503417969,-136.22857666015625,-11.517738342285156,3.475844383239746,-11.883386611938477,-19.2589168548584,38.44055938720703,-63.36759948730469,-0.7268831729888916,2.0854029655456543,-13.065444946289062,157.5337371826172,-47.96355438232422,-2.723518848419189,0.5742989778518677,-5.49371337890625,-5.203912734985352,-127.1065444946289,-84.93922424316406,64.76957702636719,-3.2845711708068848,0.0208063721656799,-9.01174545288086
1444.0801181793213,-168.61988830566406,-71.7323226928711,-121.8840560913086,-4.433892250061035,-3.633547306060791,-7.009567260742188,-118.98030853271484,7.7147536277771,-144.16310119628906,-16.761253356933594,4.038863182067871,-8.98440933227539,-26.79128646850586,39.695709228515625,-82.35069274902344,0.3332524299621582,3.746690273284912,-15.522394180297852,154.7439727783203,-50.16765975952149,-5.603618621826172,3.718441009521485,-3.1470890045166016,-3.687713623046875,-112.53662109375,-85.81544494628906,52.95296859741211,1.5208699703216553,-0.9598054885864258,-4.867885589599609
1444.1071157455444,-175.53790283203125,-69.96983337402344,-110.14068603515624,-1.9615304470062256,2.598235607147217,-0.2050981521606445,-130.61729431152344,3.165321350097656,-148.99505615234375,-17.331146240234375,8.181957244873047,-6.2462158203125,-37.10395050048828,32.914337158203125,-102.78224182128906,-10.295614242553713,-10.203985214233398,-20.781185150146484,154.7279815673828,-53.15974807739258,-5.664188385009766,6.015874862670898,-3.631697177886963,-1.296677589416504,-106.78046417236328,-86.51148223876953,47.64423751831055,2.869391918182373,1.0370702743530271,-0.3592061996459961
1444.1620807647705,-179.529541015625,-68.77559661865234,-102.8188705444336,9.358936309814451,-2.4047341346740723,3.4839401245117188,-141.8293914794922,-0.3392617404460907,-149.86155700683594,-16.520008087158203,10.628549575805664,-5.980401039123535,-35.93560791015625,20.99472045898437,-116.85306549072266,-6.840466499328613,-3.8701653480529785,-17.468765258789062,157.31996154785156,-55.28825378417969,-3.0431699752807617,5.650208473205566,-4.446979522705078,1.103628158569336,-99.563720703125,-88.13817596435547,37.6551513671875,0.8929648399353027,0.6047923564910889,-0.3562879562377929
1444.1963465213776,175.677490234375,-67.92964172363281,-98.96009063720705,-0.2530014514923095,-2.1519670486450195,1.3017082214355469,-153.83905029296875,-0.6067221164703369,-148.11041259765625,-16.637855529785156,-1.36151123046875,-14.885684967041016,-39.45029067993164,19.29899787902832,-112.86542510986328,-3.867288589477539,3.381058692932129,1.9243850708007808,160.98175048828125,-55.666751861572266,0.4191481173038482,5.64393424987793,-5.051309585571289,1.4921283721923828,-168.0634307861328,-89.43942260742188,101.71233367919922,1.545027494430542,-2.702404022216797,2.374405860900879
1444.2272441387177,170.71604919433594,-67.38530731201172,-93.70291137695312,-3.9170660972595215,3.1568140983581543,1.996468544006348,-156.82362365722656,-2.637405633926392,-146.00927734375,-11.926956176757812,-11.733758926391602,-19.706867218017575,-36.12261581420898,20.537302017211918,-103.22966003417967,-11.203458786010742,-5.498878479003906,-5.883247375488281,162.91238403320312,-54.29839706420898,2.99538516998291,6.542149543762207,-10.01889419555664,0.0761041641235351,116.63125610351562,-88.14059448242188,172.3728485107422,-3.38643217086792,-3.2723278999328613,2.301753044128418
1444.256863117218,165.33778381347656,-67.86338806152344,-87.80643463134766,-0.6648399829864502,0.766444206237793,3.3824033737182617,-156.60153198242188,-6.148866176605225,-143.1154022216797,-17.05504608154297,-6.245893478393555,-9.502523422241213,-29.002796173095703,21.20067596435547,-87.62796020507812,-5.222463607788086,-14.693513870239258,-13.006420135498049,157.4732208251953,-51.71022033691406,3.735410928726196,5.79976749420166,-11.6390380859375,-0.3203458786010742,122.02708435058594,-87.21582794189453,164.74195861816406,-8.505599975585938,-5.4555864334106445,2.872304916381836
1444.2902653217316,158.17410278320312,-68.60557556152344,-81.71728515625,-1.1702446937561035,-1.8218371868133545,3.4136314392089844,-163.76528930664062,-6.965898036956787,-140.26016235351562,-4.353917121887207,-21.301612854003903,-3.669266700744629,-26.344825744628903,19.57699203491211,-69.0238265991211,-9.103338241577148,-11.518592834472656,0.0717735290527343,142.20089721679688,-48.252418518066406,2.756394386291504,5.692978858947754,-4.47215747833252,3.837759017944336,139.63186645507812,-86.58075714111328,146.0978546142578,0.0404303595423698,-1.9220099449157717,3.0224266052246094
1444.3173372745514,149.96714782714844,-69.0277328491211,-75.73165893554688,0.9251796007156372,-1.7359962463378906,5.087431907653809,-168.39425659179688,-8.918839454650879,-137.49879455566406,-1.8851163387298584,-3.225042819976806,-2.2383217811584477,-21.06647682189941,15.597224235534668,-53.038387298583984,-0.0824735164642334,5.362279891967773,-1.315232276916504,121.46404266357422,-44.9323844909668,0.3116716146469116,10.411581039428713,3.453327178955078,0.0103712081909179,160.67579650878906,-85.79039001464844,123.61908721923828,6.197760581970215,-2.2742862701416016,2.2978639602661133
1444.3467872142792,137.22845458984375,-70.49137115478516,-69.99462890625,6.534285545349121,-4.336075782775879,2.5145978927612305,-170.62283325195312,-12.043990135192873,-134.5380859375,-11.859918594360352,-6.119028091430664,-5.282730102539063,-23.18555450439453,10.924797058105469,-38.46964263916016,-6.137784004211426,10.97140884399414,3.7267541885375977,105.09415435791016,-43.14407730102539,-1.0393844842910769,15.400405883789062,2.547384262084961,-5.221702575683594,178.17105102539062,-84.7651596069336,104.3941879272461,6.264865875244141,-0.7304835319519043,0.8903112411499023
1444.3770768642426,130.86004638671875,-69.22034454345703,-76.9531021118164,17.645465850830078,9.636449813842772,4.329850196838379,-172.866943359375,-15.087882995605469,-131.79747009277344,-7.969773292541504,-4.0609893798828125,-4.186426162719727,-25.895484924316406,6.426858901977539,-24.17984962463379,2.163383960723877,18.549766540527344,-2.6480627059936523,98.79893493652344,-43.74174118041992,0.1951597034931183,11.167686462402344,2.2340121269226074,-10.207769393920898,-174.6602783203125,-83.3538589477539,93.80947875976562,8.9462890625,1.042976140975952,-2.6194963455200195
1444.4073114395142,138.12384033203125,-62.40890121459961,-92.97917938232422,21.754920959472656,7.042365074157715,8.549354553222656,-175.00244140625,-16.684478759765625,-130.03826904296875,-6.478797912597656,-4.8194780349731445,-3.131796360015869,-41.88282775878906,1.735140085220337,-11.63685703277588,1.4845151901245115,23.34258270263672,-18.271183013916016,95.42059326171876,-44.73575210571289,1.816370129585266,5.596249580383301,6.163496017456055,-3.797453403472901,-174.97055053710938,-81.01690673828125,89.34577178955078,3.992650032043457,-0.2067522704601287,-0.5256147384643555
1444.4369072914124,149.38534545898438,-51.8970832824707,-106.00875854492188,12.285322189331056,0.7663917541503906,3.864148139953613,-176.18849182128906,-17.98491668701172,-128.9980926513672,-5.945836067199707,-5.758306503295898,-3.3909149169921875,-57.60628128051758,-4.038831233978272,-2.692491054534912,3.172412395477295,-3.973359107971192,18.959884643554688,93.23829650878906,-45.68695068359375,4.256761074066162,8.92686653137207,5.039437294006348,-0.0882396697998046,-172.5413055419922,-79.87397003173828,86.76435852050781,-1.8620641231536863,2.2160415649414062,2.808568954467773
1444.4967477321625,158.4525909423828,-40.93902969360352,-116.0307388305664,1.8306515216827397,-0.7317229509353638,-4.434409141540527,-177.10528564453125,-19.545249938964844,-127.68946075439452,-5.005984306335449,-7.181796073913574,-3.832029819488525,-54.0411491394043,-9.82682991027832,4.439102649688721,0.963914394378662,10.095090866088867,-1.4411678314208984,94.56430053710938,-46.05021667480469,7.508380889892578,4.794251441955566,4.889137268066406,0.9151344299316406,-171.611328125,-78.53080749511719,86.19038391113281,3.694554328918457,0.814858078956604,1.846970558166504
1444.52716755867,165.0136260986328,-30.76531982421875,-124.37154388427734,-3.2224268913269043,1.2555525302886963,-9.680072784423828,-175.7222900390625,-22.77155303955078,-125.13302612304688,-5.607544898986816,-6.024972915649414,-4.916726112365723,-61.891239166259766,-13.843462944030762,11.8614501953125,0.4790921211242676,6.005557060241699,-3.8903074264526367,97.69645690917967,-45.327247619628906,10.251463890075684,4.504339218139648,3.094529628753662,-0.7349634170532227,-169.05435180664062,-78.42848205566406,83.6856689453125,4.357709884643555,0.8871026039123535,1.063589096069336
1444.5568988323212,169.67080688476562,-22.578996658325195,-130.84381103515625,-3.519374370574951,1.169469118118286,-11.531404495239258,-173.48501586914062,-24.757768630981445,-123.28459930419922,-5.656497955322266,-4.276518821716309,-5.356559753417969,-70.12803649902344,-17.597139358520508,18.69988441467285,-0.3765709400177002,0.1689706146717071,5.793212890625,101.58631896972656,-43.74565124511719,13.195886611938477,4.2369890213012695,2.137970447540283,-1.7364654541015625,-165.95785522460938,-79.27411651611328,81.71704864501953,0.1595033109188079,1.2423691749572754,-1.4390335083007812
1444.612108707428,174.29837036132812,-17.855560302734375,-136.37977600097656,-5.639046669006348,1.765547513961792,-9.17707633972168,-171.193603515625,-24.25494766235352,-122.65524291992188,-5.77735710144043,-4.973259925842285,-7.2850341796875,-69.90834045410156,-22.9748649597168,24.413862228393555,1.1894025802612305,3.031737327575684,-4.594151496887207,105.63174438476562,-41.39139938354492,16.790733337402344,3.318030834197998,1.0658845901489258,-3.36596155166626,-161.45928955078125,-80.00713348388672,78.376708984375,-0.3892130255699157,0.9738503694534302,-3.5063438415527344
1444.6172914505005,174.12115478515625,-17.530548095703125,-142.1024627685547,-9.271398544311523,0.5281124114990234,-9.382503509521484,-169.1272735595703,-21.2081241607666,-122.69366455078124,-9.544038772583008,-1.6327311992645264,-8.282947540283203,-70.26941680908203,-30.5907039642334,29.180156707763672,4.08385181427002,4.970100402832031,-8.275480270385742,109.33274841308594,-38.531288146972656,20.76659202575684,2.5906481742858887,0.5705560445785522,-4.520377159118652,-156.0185546875,-80.50562286376953,74.4712905883789,2.792008876800537,-0.2245214283466339,-5.337790489196777
1444.6468725204468,169.6276397705078,-21.42795181274414,-147.19883728027344,-15.662429809570312,-1.4303452968597412,-13.58937644958496,-169.95150756835938,-16.177770614624023,-123.71061706542967,-3.9822964668273926,-3.228708267211914,-4.294957160949707,-75.10591888427734,-42.027191162109375,34.1358757019043,8.130889892578125,5.946635246276856,-7.031116485595703,111.88352966308594,-35.35708236694336,25.33600616455078,3.671821117401123,-0.447235643863678,-5.647719383239746,-152.77919006347656,-81.15406799316406,72.38855743408203,3.3798508644104004,-1.388716220855713,-7.738652229309082
1444.67711019516,165.36610412597656,-26.968589782714844,-149.73085021972656,-6.244565963745117,0.8741792440414429,14.890745162963867,-173.0620574951172,-10.917183876037598,-125.77487182617188,-9.364974975585938,-3.800429344177246,-3.169000625610352,-75.67144775390625,-57.37399291992188,40.05669021606445,4.089409828186035,17.878124237060547,15.784528732299805,114.36817932128906,-32.651641845703125,30.83465003967285,2.627596855163574,-0.2261030077934265,-2.464913845062256,-151.59979248046875,-81.42672729492188,71.0756607055664,3.3575334548950195,-0.9892292022705078,-5.113212585449219
1444.711258649826,169.44801330566406,-28.433534622192383,-148.88250732421875,-12.51016616821289,-4.624677658081055,7.191221237182617,-175.27847290039062,-7.115635871887207,-127.30276489257812,-5.646208763122559,-7.218463897705078,-2.875934600830078,-64.51536560058594,-65.9525375366211,38.664588928222656,8.46249008178711,4.388129234313965,8.425848007202148,112.87340545654295,-29.402881622314453,36.6195068359375,4.525155067443848,-1.8233096599578855,4.893973350524902,-148.31524658203125,-80.9908676147461,66.36558532714844,-0.4755747318267822,-1.4583215713500977,-2.132163047790528
1444.737330198288,173.00938415527344,-27.417213439941406,-146.17112731933594,-16.01968765258789,-7.931003570556641,4.886878967285156,-175.73008728027344,-4.711332321166992,-127.5028305053711,-4.459585189819336,-8.435407638549805,-2.1558823585510254,-68.80276489257812,-60.85436248779297,39.5117301940918,11.770402908325195,11.215621948242188,4.3194990158081055,109.60850524902344,-22.33601951599121,42.51068878173828,11.768701553344728,-2.375685214996338,14.602840423583984,-146.3759765625,-80.91891479492188,63.97612762451172,-0.945791244506836,-0.2434237003326416,3.3238582611083984
1444.7970976829529,171.8361053466797,-24.212379455566406,-144.3831329345703,-19.90634536743164,-6.550912857055664,9.447898864746094,-175.7303466796875,-3.710370540618897,-126.60196685791016,-6.579078674316406,-5.635619163513184,-2.387446880340576,-74.40916442871094,-57.65230941772461,35.856693267822266,11.097558975219728,9.926305770874023,5.4623565673828125,109.7290496826172,-11.864275932312012,47.7263069152832,21.35448837280273,-7.450312614440918,15.02263069152832,-149.6211700439453,-80.05317687988281,66.86105346679688,2.69929313659668,1.622472047805786,8.06338882446289
1444.8273029327393,167.9089813232422,-19.25033950805664,-143.37367248535156,-13.096891403198242,-6.726652145385742,7.200885772705078,-176.0667266845703,-4.079060077667236,-125.9757080078125,-6.684332847595215,-5.287103652954102,-1.7239856719970703,-80.38569641113281,-53.732025146484375,32.188411712646484,15.124568939208984,4.85759162902832,6.214832305908203,109.36992645263672,1.3175128698349,52.31463241577149,21.83882522583008,-14.45197296142578,9.204381942749023,-151.91432189941406,-79.62870025634766,68.44190216064453,4.039028167724609,1.701037883758545,7.122219085693359
1444.8569502830503,166.58663940429688,-15.06659698486328,-143.6876220703125,-10.86330223083496,-4.065079689025879,5.128944396972656,-176.77403259277344,-6.055790901184082,-125.65502166748048,-6.452491760253906,-6.318328857421875,-1.8348946571350095,-79.86917114257812,-47.7520751953125,27.70824813842773,11.000988006591797,4.010053634643555,10.03116226196289,108.8555679321289,16.405441284179688,58.87248992919922,26.36069107055664,-14.938728332519531,3.030261993408203,-155.83038330078125,-79.63587188720703,71.74485778808594,1.879210948944092,4.615262031555176,8.211931228637695
1444.8872463703156,164.77371215820312,-13.125076293945312,-144.84365844726562,-7.372047424316406,0.4892597794532776,2.2684192657470703,-177.74066162109375,-9.727838516235352,-125.03389739990234,-6.788930892944336,-6.90537166595459,-1.1297101974487305,-80.7110366821289,-42.08786010742188,24.599889755249023,9.083612442016602,3.94411563873291,5.010098457336426,103.01771545410156,30.56783866882324,67.59918975830078,20.59867477416992,7.16156005859375,4.244918823242188,-161.97305297851562,-78.78267669677734,77.06134033203125,3.905764579772949,0.1259607076644897,7.875410079956055
1444.9172594547272,163.57745361328125,-13.814067840576172,-146.07077026367188,-3.2495265007019043,2.4899826049804688,-2.5933613777160645,-178.56578063964844,-15.486571311950684,-124.02034759521484,-7.392961502075195,-9.28175163269043,-0.6307182312011719,-84.85588073730469,-39.95429992675781,23.210588455200195,3.0533266067504883,2.6016111373901367,3.4448862075805664,97.5941162109375,40.31190490722656,78.4494400024414,8.688852310180664,13.691425323486328,3.583218574523926,-167.55430603027344,-77.84962463378906,82.06472778320312,7.474554061889648,1.9695656299591064,6.207540512084961
1444.9565913677216,163.02423095703125,-17.49934959411621,-146.9646759033203,-1.8733322620391848,2.936164379119873,-7.659963607788086,-173.67674255371094,-25.79802894592285,-122.14412689208984,-4.210451126098633,-14.274879455566406,-8.29738998413086,-88.48822784423828,-41.81295776367188,23.43061637878418,0.0789231061935424,3.5013818740844727,-0.5466108322143555,98.26920318603516,48.80900955200195,90.73915100097656,-3.61607027053833,18.229019165039062,4.854753494262695,-172.958984375,-77.01984405517578,86.23957061767578,2.625220775604248,1.149881362915039,3.246079444885254
1444.9776105880735,161.53785705566406,-24.211915969848636,-147.2823486328125,-5.812589645385742,3.807207107543945,-11.299005508422852,-169.77796936035156,-29.84846305847168,-122.45362854003906,-2.870720863342285,-4.316039085388184,-5.396860122680664,-93.0462875366211,-45.48086929321289,25.069334030151367,-0.6794722080230713,2.2936792373657227,-4.410594940185547,106.6507797241211,58.54113006591797,104.25047302246094,-5.512395858764648,8.972490310668945,-3.266193389892578,-178.2770233154297,-76.52864074707031,90.71664428710938,-1.2938134670257568,-1.121354341506958,-2.0628104209899902
1445.0070564746857,158.1013946533203,-33.75545883178711,-146.51051330566406,-8.202281951904297,1.263514280319214,-13.092096328735352,-168.0944061279297,-30.62255859375,-123.57906341552734,-0.7873904705047607,3.441349506378174,0.3282442092895508,-99.5503921508789,-49.50331878662109,28.016132354736328,-1.929399013519287,1.8576414585113523,-5.95064640045166,135.5792694091797,67.28728485107422,126.86936950683594,-0.8928714990615845,-0.8593387603759766,-11.34474754333496,177.2701416015625,-75.70932006835938,95.00912475585938,-1.002579927444458,-0.7287015914916992,-6.658857345581055
1445.0371870994568,154.97215270996094,-45.44042205810547,-144.20619201660156,-5.491469383239746,-2.690917491912842,-9.534894943237305,-168.27894592285156,-27.745586395263672,-125.3420181274414,-3.6563425064086914,2.869880199432373,-7.661565780639648,-106.96198272705078,-53.17155456542969,32.052154541015625,-3.312936305999756,1.8576037883758545,-7.22956371307373,171.1842498779297,69.1649169921875,154.69578552246094,-3.400639057159424,4.875999450683594,-7.922761917114258,176.30079650878906,-75.1481704711914,96.03530883789062,0.9579176902770996,0.4822019338607788,-7.498811721801758
1445.097187280655,151.06106567382812,-58.82465744018555,-139.74024963378906,-4.513847351074219,-2.3022236824035645,-3.420867919921875,-173.86317443847656,-25.269514083862305,-126.65444946289062,-5.511817932128906,-2.219508647918701,-16.513538360595703,-114.40589141845705,-56.08421325683594,37.23013305664063,-4.131714820861816,1.8891944885253904,-9.561080932617188,-178.2720947265625,66.3794937133789,167.97776794433594,-3.272862434387207,-4.989148139953613,-9.102447509765623,177.81362915039062,-76.2049331665039,94.05158996582033,1.5468506813049316,0.5822962522506714,-9.385480880737305
1445.1272695064545,140.52178955078125,-73.10810852050781,-127.5401611328125,-4.009465217590332,-4.0928449630737305,4.998937606811523,179.81959533691406,-23.09361267089844,-128.0062713623047,-6.048552513122559,-3.0867481231689453,-3.372567176818848,-121.99427032470705,-57.97996139526367,43.75889205932617,-4.537778854370117,2.2885289192199707,-11.164873123168944,179.13592529296875,61.10162353515625,165.85064697265625,-0.481458842754364,-4.866801261901856,-10.776508331298828,-179.0413055419922,-78.21558380126953,89.4079818725586,1.5514981746673584,0.5646039247512817,-9.610427856445312
1445.1570591926577,82.86051177978516,-82.07605743408203,-63.89366149902344,12.93801498413086,0.4616724848747253,12.301141738891602,176.17984008789062,-19.240741729736328,-130.5316619873047,-8.615314483642578,-3.3126626014709477,-8.412092208862305,-129.46475219726562,-58.8939208984375,51.711204528808594,-4.130023956298828,2.866891384124756,-11.564128875732422,170.5414276123047,51.37100982666016,155.95350646972656,-7.343031883239746,3.943385124206543,-13.827484130859377,-174.8534698486328,-79.90735626220703,83.28207397460938,1.955758810043335,0.1250837445259094,-7.996121406555176
1445.18705701828,50.34874725341797,-75.81224822998047,-20.28545188903809,22.704463958740234,7.99785041809082,-3.19248628616333,174.2988739013672,-15.76473903656006,-133.2450714111328,-5.691797256469727,-8.06727409362793,-3.8706207275390634,-136.75633239746094,-59.59038162231445,61.370365142822266,-2.682137489318848,6.288155555725098,-8.595178604125977,157.84979248046875,39.259742736816406,145.59336853027344,-20.434005737304688,16.745182037353516,-19.71218490600586,-169.93899536132812,-80.71134948730469,77.08692932128906,-0.05903971940279,-1.649333953857422,-3.669647216796875
1445.2170672416687,62.79914474487305,-73.59747314453125,-27.33917808532715,29.78706741333008,14.214262008666992,-9.097450256347656,174.22299194335938,-14.291267395019531,-135.5828094482422,-11.39409065246582,-10.599889755249023,-0.8320646286010742,-147.02120971679688,-60.64201354980469,73.76464080810547,1.2040257453918457,8.11143684387207,-4.698272705078125,165.61622619628906,34.478084564208984,143.05401611328125,4.031084060668945,-8.398721694946289,1.2483243942260742,-161.96865844726562,-80.55573272705078,70.61133575439453,-2.998079299926758,-3.710911750793457,2.065746307373047
1445.2468314170835,86.93025970458984,-74.241943359375,-52.40926361083984,5.6407470703125,-8.486480712890625,4.383713722229004,175.45867919921875,-14.841543197631836,-137.98947143554688,-8.874317169189453,-11.712041854858398,-0.5093879699707031,-166.18148803710938,-60.65290069580078,87.4178695678711,-2.7603530883789062,12.625726699829102,5.1029205322265625,177.2808837890625,42.24840927124024,146.95169067382812,13.895692825317385,14.58193016052246,12.718513488769531,-158.5265350341797,-80.1272201538086,69.82111358642578,7.912769317626953,1.8879895210266116,7.3585205078125
1445.276772260666,101.02099609375,-74.9968032836914,-70.86660766601562,-8.211629867553711,-14.99029541015625,7.167266845703125,176.49832153320312,-17.17466163635254,-140.62149047851562,-10.984466552734377,-9.977302551269531,-1.839858055114746,178.44036865234375,-58.468994140625,99.4254150390625,-4.977505683898926,18.406200408935547,15.505290985107422,174.40069580078125,55.0457878112793,150.9937744140625,-0.2257936596870422,-7.26292610168457,-7.745902061462402,-162.0245361328125,-78.421630859375,72.81957244873047,12.374359130859377,-1.2508790493011477,10.083925247192385
1445.307309627533,117.20558166503906,-73.24240112304688,-84.36785888671875,0.3951838612556457,-0.4412504434585571,-4.490155220031738,-178.85504150390625,-22.2592830657959,-142.07110595703125,-17.209434509277344,-6.393180847167969,-6.105550765991211,179.23385620117188,-57.04169464111328,102.7801513671875,-6.109123229980469,14.35881805419922,9.583179473876951,-176.308349609375,70.73475646972656,157.27825927734375,-1.5882441997528076,11.066877365112305,-5.497766494750977,-163.03302001953125,-78.37434387207031,74.95775604248047,0.7875939607620239,-3.048783779144287,6.532848358154297
1445.337396144867,130.44378662109375,-72.990966796875,-93.30362701416016,-1.5936284065246582,5.984498023986816,1.4850311279296875,-166.28073120117188,-25.82282257080078,-143.47772216796875,-7.409674644470215,7.762896537780762,6.638879776000977,-165.0643310546875,-57.84994125366211,95.32855987548828,7.296929359436035,7.348309516906738,3.1525096893310547,-100.65020751953124,89.12464141845703,-126.51792907714844,-5.649083137512207,5.78434944152832,-9.591285705566406,-165.58505249023438,-78.72488403320312,80.92752838134766,-4.553296089172363,1.2799692153930664,2.330494880676269
1445.3973760604858,139.8276824951172,-73.5865707397461,-100.42147064208984,1.4446780681610107,-1.1547796726226809,2.083425521850586,-154.39625549316406,-21.83148002624512,-142.43411254882812,-22.105457305908203,23.38315200805664,14.76252555847168,-149.53160095214844,-58.71152877807617,89.17524719238281,13.933904647827148,2.3052945137023926,-3.692387104034424,4.536602020263672,68.7785873413086,-20.582311630249023,-5.083940505981445,-2.5754919052124023,-12.40351676940918,-168.6722412109375,-77.21134948730469,87.43037414550781,-4.3382978439331055,1.859999179840088,-3.577081680297852
1445.4274597167969,147.92507934570312,-74.541259765625,-107.5864715576172,1.7434539794921875,0.3004990816116333,0.3816652297973633,-150.19223022460938,-12.0552978515625,-137.31651306152344,-18.230243682861328,5.196378707885742,3.2014312744140625,-146.37469482421875,-57.878055572509766,86.97624969482422,9.261259078979492,2.489691257476806,-7.830309867858887,2.296959161758423,46.144561767578125,-21.57583999633789,4.40256404876709,-3.0625038146972656,-18.089542388916016,-169.74859619140625,-74.511474609375,91.29019927978516,-0.7170321941375732,1.3369081020355225,-2.5474510192871094
1445.4571554660797,154.93017578125,-75.73394775390625,-113.88987731933594,1.4818642139434814,0.3326224684715271,0.8301401138305664,-146.86863708496094,-2.550953865051269,-130.373046875,-8.515134811401367,-0.9019780158996582,-7.901731491088867,-153.96102905273438,-57.86108016967773,88.74646759033203,-5.872443199157715,-0.066871166229248,0.6792774200439453,-2.9197237491607666,24.370582580566406,-25.70585060119629,16.517009735107422,-17.160564422607422,-12.248794555664062,-173.61485290527344,-73.43647003173828,95.21867370605467,0.1215119212865829,2.218574523925781,2.2140932083129883
1445.487244129181,160.9908447265625,-77.2064208984375,-119.14545440673828,1.4079277515411377,-0.8370165824890137,-0.0936565399169921,-145.37815856933594,5.162952423095703,-123.3195343017578,1.162207841873169,-1.8101215362548828,-13.269168853759766,-161.8802947998047,-59.09126663208008,93.71268463134766,-5.601951599121094,-1.2894093990325928,1.495870590209961,0.2819289565086365,8.409906387329102,-31.78271484375,6.078923225402832,-26.09073257446289,8.052011489868164,-177.1488494873047,-72.6142807006836,97.89398956298828,-1.6602904796600342,-0.4185546040534973,2.419042587280273
1445.5170578956604,168.06260681152344,-78.7397232055664,-124.6313934326172,-0.6671566963195801,0.5933938026428223,0.5856857299804688,-146.0150146484375,10.321691513061523,-117.37346649169922,5.337050437927246,-1.226088285446167,-14.448816299438477,-169.5360107421875,-59.08037185668945,99.2438507080078,-2.9464659690856934,-0.1189551353454589,0.038609504699707,20.460399627685547,2.179507255554199,-36.72926330566406,-1.2934799194335938,-3.505002498626709,-7.512383460998535,-179.13658142089844,-72.23768615722656,98.91666412353516,-4.137765884399414,1.927830457687378,0.7911434173583984
1445.5488188266754,175.62989807128906,-80.1250228881836,-132.3878631591797,-1.8264732360839844,1.2543678283691406,-0.0912971496582031,-148.84420776367188,12.83535861968994,-112.8142318725586,4.455497741699219,-1.8233673572540283,-12.492063522338867,-175.71722412109375,-58.337684631347656,103.02330017089844,-4.523165702819824,2.9841270446777344,-1.6720342636108398,31.408491134643555,2.474622964859009,-41.383262634277344,18.402587890625,25.547504425048828,0.0133628845214843,178.6470489501953,-72.14473724365234,100.76551055908205,-2.949930191040039,2.9752092361450195,-2.6229262351989746
1445.591996192932,-175.05836486816406,-80.5231704711914,-142.25035095214844,-1.5581023693084717,-0.6906052827835083,-0.6630935668945312,-151.3216094970703,12.37790584564209,-108.76739501953124,1.363394260406494,-5.347476959228516,-9.82668113708496,-177.9783935546875,-58.348262786865234,102.3094482421875,-2.274564266204834,2.707984447479248,-2.470918655395508,26.64695167541504,5.917076587677002,-45.450286865234375,1.3227698802947998,5.012048721313477,-1.086557388305664,175.5878143310547,-72.2148208618164,104.34742736816406,-1.9110395908355715,1.001319408416748,-4.603699684143066
1445.6069977283478,-169.4623260498047,-79.54235076904297,-147.84371948242188,-1.2369208335876465,-2.3713808059692383,-0.942636489868164,-153.46701049804688,9.880806922912598,-105.93537902832033,-2.6953911781311035,-6.2494306564331055,-10.24624252319336,-177.0611114501953,-59.657318115234375,95.91986083984376,-2.2808938026428223,1.72951078414917,-2.532641887664795,29.29914093017578,10.37050437927246,-43.99368667602539,-9.036176681518556,-3.805166721343994,-4.436319351196289,170.2598419189453,-72.60800170898438,109.50691986083984,-0.9043705463409424,-0.8444029092788696,-5.129799842834473
1445.6373178958893,-171.26654052734375,-77.01982879638672,-146.40805053710938,1.0849077701568604,-5.650859832763672,-1.8957033157348635,-157.57794189453125,6.041487216949463,-104.9074478149414,-0.3849451541900635,-11.933233261108398,-10.651996612548828,-172.77035522460938,-61.82765197753906,84.27920532226562,-3.883893013000488,4.320659637451172,-2.5367956161499023,45.29566192626953,11.729637145996094,-36.54964065551758,0.3589212894439697,0.3951305150985718,-8.148162841796875,161.01568603515625,-72.41983795166016,117.21062469482422,-0.110249325633049,0.4514067769050598,-6.59526252746582
1445.7273199558258,-176.2928009033203,-72.87364196777344,-140.34486389160156,0.1265324652194976,-3.563699245452881,0.1176967620849609,-158.0232391357422,3.107208013534546,-105.20317840576172,-7.318011283874512,-16.24081039428711,15.518346786499023,-166.83688354492188,-64.11693572998047,68.85067749023438,-4.782286643981934,3.816545009613037,-3.602816581726074,59.27038192749024,6.86068058013916,-25.09297752380371,11.82892608642578,5.339919090270996,0.155252456665039,151.43240356445312,-71.4910659790039,124.81230926513672,-1.20459246635437,-0.5554152727127075,-4.353321075439453
1445.7316222190857,178.05984497070312,-67.3461685180664,-132.91123962402344,-0.8905022144317627,-0.1217780113220214,-0.4779481887817383,-157.27255249023438,2.943629503250122,-105.38761138916016,5.5219926834106445,-8.14443588256836,-11.903976440429688,-156.3507843017578,-65.88493347167969,48.88141632080078,-4.324217796325684,7.413989067077637,-5.318613052368164,58.326168060302734,-6.393192768096924,-10.91580581665039,22.81338119506836,-6.420748710632324,-2.937751293182373,144.77993774414062,-70.9344253540039,131.0854949951172,-2.585394382476806,-1.225816011428833,-2.818124771118164
1445.7568175792694,175.19189453125,-61.68611526489258,-127.94416809082033,2.290104389190674,1.8451752662658687,-1.629715919494629,-157.1063232421875,0.65672767162323,-105.60382843017578,-4.07029914855957,-20.86602783203125,-10.895450592041016,-141.58517456054688,-65.15176391601562,23.25629997253418,-9.71882438659668,13.962287902832031,-0.8361625671386719,55.01079559326172,-20.16781044006348,-0.3601193428039551,43.44560241699219,-4.717159271240234,17.393489837646484,139.5344696044922,-70.93849182128906,137.95021057128906,-1.7877068519592283,1.2063958644866943,-1.7234792709350586
1445.7871000766754,174.0312957763672,-56.95339584350586,-125.32916259765624,3.30919885635376,-2.197542190551758,-0.7801027297973633,-157.68943786621094,0.0185832399874925,-106.4749984741211,-12.732381820678713,-21.986011505126957,-4.98146915435791,-121.3512725830078,-60.22294616699219,-0.7947103381156921,-4.000787734985352,19.49551010131836,2.638242721557617,55.973880767822266,-19.71421813964844,-5.303271293640137,14.672657012939451,-3.868488311767578,-4.470736503601074,134.97877502441406,-71.41936492919922,143.7073516845703,3.3438191413879395,1.5666825771331787,1.4730024337768557
1445.8166053295135,174.20779418945312,-53.70641326904297,-124.76665496826172,0.1360556781291961,1.408050298690796,2.444827079772949,-158.48226928710938,3.271684408187866,-107.18101501464844,-16.53829574584961,-18.689632415771484,-8.513069152832031,-102.35699462890624,-49.14927673339844,-19.2859001159668,-0.1743984222412109,20.75898742675781,11.409952163696287,61.655399322509766,-14.16446018218994,-9.45256519317627,20.08453369140625,-7.657177925109863,-2.6992435455322266,133.05189514160156,-70.77540588378906,145.01820373535156,-0.5363922119140625,2.572648525238037,6.450468063354492
1445.8472983837128,174.9361572265625,-52.15239715576172,-124.42540740966795,0.5306956768035889,2.3793206214904785,1.814589500427246,-155.077392578125,7.250486850738525,-107.16159057617188,-16.478565216064453,-25.893611907958984,-10.264263153076172,-86.44820404052734,-34.5181770324707,-28.89471244812012,5.905040740966797,21.23965835571289,13.267518997192385,63.96671676635742,-13.598359107971191,-7.07809591293335,22.032638549804688,-9.3519287109375,-14.667488098144531,134.93875122070312,-69.46434020996094,141.91290283203125,-8.159343719482422,0.4463781714439392,13.432815551757812
1445.876652956009,175.91697692871094,-52.34877014160156,-124.76653289794922,0.162005990743637,0.9391213655471802,1.9988012313842771,-150.06068420410156,9.742347717285156,-107.27117156982422,-8.471973419189453,-15.161199569702148,-10.957403182983398,-69.8755111694336,-19.13550567626953,-32.62125396728516,10.719465255737305,15.489192962646484,13.531793594360352,76.4581527709961,-17.032712936401367,-2.9130938053131104,24.91324234008789,1.63482666015625,-6.77773380279541,136.52894592285156,-69.54031372070312,140.1551971435547,-4.442958831787109,-0.4210934638977051,9.39630889892578
1445.907116174698,177.4146728515625,-53.88661956787109,-125.5277328491211,-0.4275460839271545,2.0803542137146,2.8366565704345703,-153.51803588867188,11.648999214172363,-106.88639831542967,-7.415410995483398,-12.942682266235352,-7.145600318908691,-49.30888748168945,-5.568042278289795,-33.26338577270508,7.314418792724609,6.458404541015625,12.615684509277344,85.85453796386719,-23.38911437988281,0.7016171813011169,18.36456298828125,4.136458396911621,4.986370086669922,137.3728790283203,-70.02239227294922,140.0542449951172,-2.568244457244873,-0.2170534133911132,7.697235107421875
1445.936750650406,179.20025634765625,-56.79765319824219,-126.98777770996094,-0.4753633141517639,2.188157558441162,3.2767114639282227,-155.8958282470703,9.360556602478027,-107.4133071899414,3.174651622772217,-13.478387832641602,-5.595396995544434,-28.945043563842773,4.474113464355469,-32.875003814697266,1.6521267890930176,0.8485698699951172,6.590572357177734,90.48649597167967,-31.155351638793945,4.61052131652832,14.153327941894531,5.3163652420043945,3.449899673461914,139.4748077392578,-70.94287109375,139.26083374023438,-4.50515079498291,1.15669846534729,5.732032775878906
1445.9971075057983,-179.0503692626953,-61.24795913696289,-128.700927734375,-4.796338081359863,2.853914260864258,4.8327741622924805,-155.0989532470703,3.974246025085449,-109.4881820678711,6.542591094970703,-10.457544326782228,-5.003337860107422,-13.488557815551758,11.16811752319336,-33.166412353515625,0.0866714715957641,-2.6085023880004883,2.6576642990112305,98.51974487304688,-39.87633514404297,8.358532905578613,6.835821151733398,6.4437360763549805,4.54954719543457,143.87435913085938,-72.12051391601562,137.3377227783203,-4.234545707702637,-0.3043358922004699,3.4165802001953125
1446.027202129364,-178.96707153320312,-66.81206512451172,-126.25846862792967,-8.922683715820312,-0.895755410194397,6.49177360534668,-153.86399841308594,-2.5623292922973637,-112.951171875,4.524062156677246,-7.411589622497559,-4.560114860534668,-1.9034887552261357,16.14836311340332,-35.04130935668945,-3.7950315475463863,-3.4380674362182617,-1.6015739440917969,111.27496337890624,-48.84222030639648,10.25576877593994,0.8803145885467529,5.821508407592773,4.756204605102539,150.96766662597656,-73.38072967529297,133.51417541503906,-1.0596678256988523,0.5211942195892334,2.0294322967529297
1446.0569796562197,175.0326385498047,-71.89200592041016,-116.4479522705078,0.4312588572502136,-6.268106460571289,-0.1851224899291992,-153.30307006835938,-9.7417573928833,-117.3704071044922,3.397766590118408,-4.287441253662109,-4.694157600402832,6.992158889770508,20.43318748474121,-39.3933219909668,-3.807201862335205,3.081298828125,-6.486578941345215,125.54606628417967,-56.799049377441406,9.641615867614746,-6.792621612548828,2.697739124298096,1.8530235290527344,158.94921875,-74.37310028076172,128.77113342285156,-0.7738679647445679,1.1475458145141602,-5.5661468505859375
1446.087316989899,167.53811645507812,-72.52998352050781,-101.0537338256836,7.217990875244141,0.0585260838270187,-7.0688676834106445,-153.13473510742188,-17.32146453857422,-122.2232894897461,2.7832741737365723,0.3407548666000366,-3.5715126991271973,13.360319137573242,23.077980041503903,-50.0259895324707,2.8419761657714844,12.42527961730957,-11.248937606811523,135.69468688964844,-62.6042594909668,6.278167724609375,-9.112676620483398,-2.939502716064453,-4.706069946289063,163.74461364746094,-74.51506042480469,126.08112335205078,1.7225775718688965,3.011019229888916,-9.979045867919922
1446.1172304153442,161.93345642089844,-72.54706573486328,-89.1780014038086,3.89624547958374,-2.2150611877441406,-8.798267364501953,-151.24537658691406,-25.81095695495605,-128.23300170898438,-2.615388870239258,3.632457733154297,-2.08512544631958,12.824641227722168,22.354825973510746,-66.458984375,6.769294738769531,1.9061946868896484,-12.63724136352539,140.87550354003906,-65.64636993408203,1.7927933931350708,-4.392199516296387,-3.2551045417785645,-7.78422737121582,163.31849670410156,-75.28504180908203,127.36581420898438,2.7412309646606445,4.283578872680664,-7.768719673156738
1446.1467764377594,157.69277954101562,-73.73554992675781,-83.87007141113281,11.052726745605469,8.206981658935547,-8.17230224609375,-149.29087829589844,-33.58608627319336,-136.12109375,-14.95000457763672,5.6515302658081055,0.7960147857666016,4.984509944915772,16.589292526245117,-85.85855102539062,1.9450716972351076,-12.185213088989258,-15.95833969116211,144.89390563964844,-67.25613403320312,-1.187302589416504,-0.8890848159790039,-3.5435094833374023,-6.903219223022461,157.36544799804688,-77.48303985595703,133.95278930664062,1.0055453777313232,1.365734577178955,-8.25999641418457
1446.1770741939545,158.18280029296875,-73.15546417236328,-83.28973388671875,-0.0102747790515422,0.2833425402641296,-4.075701713562012,-150.3663787841797,-38.89107894897461,-143.4988250732422,-11.348249435424805,10.919784545898438,0.5262022018432617,-0.6796203851699829,6.007139205932617,-105.6529541015625,-11.668903350830078,-37.890419006347656,-15.30708122253418,148.68190002441406,-68.84629821777344,-2.038761854171753,0.2207359075546264,-5.257908821105957,-3.7623000144958496,150.46189880371094,-79.77428436279297,141.7821502685547,-2.996007442474365,-1.4265289306640625,-6.7757568359375
1446.2072196006775,157.0770263671875,-72.01655578613281,-83.02298736572266,-0.1050347685813903,-2.842726230621338,-2.1995620727539062,-149.9956817626953,-42.4106674194336,-146.89292907714844,-8.011880874633789,12.554330825805664,1.9330244064331052,-0.1063815280795097,5.303035259246826,-111.88927459716795,13.610475540161133,15.276275634765623,-28.918434143066406,152.12850952148438,-70.43599700927734,-1.9286253452301023,-1.5729620456695557,-4.398159980773926,-4.819155693054199,146.16575622558594,-81.66035461425781,146.34744262695312,-2.9778079986572266,-1.9439959526062007,-2.15285062789917
1446.2368822097778,156.22811889648438,-70.15032196044922,-81.17686462402344,-1.637450933456421,-2.564074993133545,2.7676734924316406,-152.0599822998047,-42.16693878173828,-146.12794494628906,-8.498470306396484,12.56753921508789,-1.618093490600586,-7.808186054229736,8.20870304107666,-103.32994079589844,-13.689550399780272,-7.400378227233887,-6.316222190856934,154.86892700195312,-70.5537338256836,-1.9841912984848025,1.417081356048584,-6.208656311035156,0.5171489715576172,140.3436737060547,-82.63036346435547,151.56243896484375,-3.743685245513916,-0.0272998698055744,-2.237489700317383
1446.297037601471,154.6483612060547,-67.90965270996094,-78.74617767333984,2.894896984100342,-1.3936653137207031,1.1298742294311523,-159.04312133789062,-36.941444396972656,-143.1025848388672,-13.667028427124023,-1.2956271171569824,0.3632020950317383,-9.595396995544434,11.109920501708984,-93.2101593017578,-5.948421478271484,-4.593402862548828,-13.85919189453125,157.1160888671875,-69.3827133178711,-1.1267558336257937,5.706796646118164,-6.1475982666015625,4.368425369262695,131.4823455810547,-83.00308227539062,159.73330688476562,-4.398618698120117,-0.677769660949707,-1.9019670486450195
1446.3270754814148,151.9619598388672,-65.91305541992188,-75.24113464355469,2.0314817428588867,-0.5150030851364136,2.71124267578125,-161.77891540527344,-32.87015914916992,-140.42886352539062,-11.79521369934082,-17.634891510009766,-11.124773025512695,-16.628341674804688,13.2147798538208,-77.73051452636719,-1.9130213260650637,-8.62578010559082,-12.144556045532228,158.9933624267578,-66.99775695800781,-0.1835224330425262,5.230100631713867,-9.073802947998049,0.8757038116455078,132.16845703125,-82.27315521240234,157.87802124023438,-3.548257827758789,-1.4422287940979004,3.544339179992676
