Timestamp,D4:22:CD:00:05:5D_EulerX,D4:22:CD:00:05:5D_EulerY,D4:22:CD:00:05:5D_EulerZ,D4:22:CD:00:05:5D_FreeAccX,D4:22:CD:00:05:5D_FreeAccY,D4:22:CD:00:05:5D_FreeAccZ,D4:22:CD:00:05:5E_EulerX,D4:22:CD:00:05:5E_EulerY,D4:22:CD:00:05:5E_EulerZ,D4:22:CD:00:05:5E_FreeAccX,D4:22:CD:00:05:5E_FreeAccY,D4:22:CD:00:05:5E_FreeAccZ,D4:22:CD:00:05:6B_EulerX,D4:22:CD:00:05:6B_EulerY,D4:22:CD:00:05:6B_EulerZ,D4:22:CD:00:05:6B_FreeAccX,D4:22:CD:00:05:6B_FreeAccY,D4:22:CD:00:05:6B_FreeAccZ,D4:22:CD:00:05:6E_EulerX,D4:22:CD:00:05:6E_EulerY,D4:22:CD:00:05:6E_EulerZ,D4:22:CD:00:05:6E_FreeAccX,D4:22:CD:00:05:6E_FreeAccY,D4:22:CD:00:05:6E_FreeAccZ,D4:22:CD:00:49:AA_EulerX,D4:22:CD:00:49:AA_EulerY,D4:22:CD:00:49:AA_EulerZ,D4:22:CD:00:49:AA_FreeAccX,D4:22:CD:00:49:AA_FreeAccY,D4:22:CD:00:49:AA_FreeAccZ
497.6570727825165,-171.52484130859375,-53.635555267333984,-101.35079193115234,1.3808283805847168,1.288083791732788,2.1185197830200195,-166.12362670898438,-77.2627182006836,1.158680081367493,3.8246445655822754,-3.1461849212646484,18.32093048095703,-62.38203048706055,-23.0422420501709,-83.17826843261719,5.828096389770508,6.992518424987793,24.829425811767575,172.9599151611328,-79.73091888427734,-3.980346202850342,4.680097579956055,14.01657485961914,8.881317138671875,127.0167007446289,-69.90386199951172,154.9930877685547,-5.994843482971191,-2.283320426940918,7.977727890014648
497.6720752716065,-165.63926696777344,-71.22502899169922,-135.85948181152344,1.6207242012023926,0.5698944330215454,-1.313629150390625,-150.15525817871094,-65.23262023925781,-7.287099838256836,8.988626480102539,3.930477619171143,4.677495002746582,-91.65754699707033,-18.934236526489254,-59.79962539672852,-0.1939943730831146,-0.4578741192817688,13.096477508544922,-108.98478698730467,-77.2840347290039,-66.44556427001953,-6.037981033325195,-5.33010196685791,13.204397201538086,-140.28688049316406,-74.60230255126953,58.39848709106445,3.422546863555908,0.5472255945205688,2.1147279739379883
497.7240688800812,-176.65463256835938,-55.71767425537109,-123.218994140625,-0.6225380897521973,1.431394100189209,1.0280838012695312,-4.666255474090576,-76.46389770507812,-142.46617126464844,-3.370816707611084,1.9883713722229004,4.857421875,-76.3216552734375,4.517003059387207,-57.69266128540039,7.633820533752441,-0.665668249130249,22.71273422241211,-34.32981872558594,-58.47259521484375,-176.1182403564453,-0.1776464283466339,1.4274115562438965,3.8387956619262695,174.81666564941406,-75.41043853759766,102.09227752685548,3.353179454803467,0.9591318368911744,9.221527099609377
497.7545771598816,-177.33921813964844,-54.37070846557617,-122.09750366210938,-0.7189713716506958,1.730539083480835,1.4588594436645508,-17.35047721862793,-70.54529571533203,-126.64832305908205,-3.081900119781494,-2.8222217559814453,-0.5237493515014648,-55.77064514160156,14.819891929626465,-49.70882034301758,7.953413963317871,-10.040285110473633,18.71532440185547,-26.727094650268555,-53.055152893066406,-167.6397705078125,-9.45758819580078,0.2172989547252655,3.329309463500977,158.4685516357422,-74.05382537841797,118.69831848144533,-2.658267974853516,0.2459844946861267,5.321525573730469
497.8140459060669,-177.22024536132812,-54.09236145019531,-121.47367095947266,1.1071767807006836,0.2602296471595764,1.169321060180664,-11.749777793884276,-67.41352081298828,-131.6654815673828,-2.241368770599365,-2.9483866691589355,-1.7534427642822266,-33.28374099731445,19.93348693847656,-38.56607437133789,4.838284492492676,-10.290565490722656,4.7684736251831055,-21.59065818786621,-54.829368591308594,-155.7691192626953,-14.538070678710938,-7.791110038757324,-0.6169528961181641,162.0654296875,-74.2488784790039,116.75171661376952,-3.749556541442871,0.6596078872680664,4.010222434997559
497.8440804481506,-176.57412719726562,-54.95594787597656,-120.86612701416016,1.030473232269287,0.771496057510376,1.2364263534545898,-2.3690693378448486,-61.43624877929688,-142.86184692382812,-3.393242359161377,-3.411785125732422,-0.7729339599609375,-15.73029613494873,20.920520782470703,-27.84518241882324,0.0301203727722167,-6.341913223266602,0.9541683197021484,-23.93811798095703,-58.22056579589844,-142.74826049804688,-10.334775924682615,-10.888439178466797,0.8126487731933594,172.76710510253906,-75.61227416992188,109.25096893310548,-2.713446617126465,0.6787258386611938,2.6925010681152344
497.8745536804199,-176.2926483154297,-56.77999877929688,-119.75791931152344,0.2236772179603576,1.0383944511413574,1.049717903137207,4.113070964813232,-52.17414474487305,-152.4259033203125,-8.968908309936523,-3.835517883300781,2.544529914855957,-1.8733668327331543,20.30789375305176,-21.16439247131348,-4.517283439636231,-8.004980087280273,-1.3292388916015625,-30.28162956237793,-59.93916702270508,-129.78387451171875,-4.989958763122559,-10.997425079345703,0.9757928848266602,-174.45191955566406,-76.5478286743164,100.42102813720705,-1.1364309787750244,1.5541586875915527,0.1194381713867187
497.9045534133911,-176.05752563476562,-59.44179916381836,-118.7988510131836,-1.840925693511963,1.7729260921478271,0.8314046859741211,6.14214563369751,-42.54401779174805,-157.6910400390625,-18.413368225097656,-8.912372589111328,-0.7024307250976562,9.376970291137695,20.43463897705078,-18.957313537597656,-6.134588241577148,-6.833918571472168,-5.032834053039551,-32.61830520629883,-60.19721221923828,-119.75607299804688,-2.382861614227295,-8.284008026123047,0.0805902481079101,-163.8257598876953,-76.68741607666016,93.244140625,0.0079411920160055,1.7691667079925537,-2.301485061645508
497.9347195625305,-175.5609893798828,-62.58370590209961,-118.76553344726562,-2.5248703956604004,1.0423486232757568,0.4040851593017578,2.63915491104126,-36.85319900512695,-160.4716339111328,-21.22528839111328,-18.034873962402344,-10.385198593139648,16.39422607421875,22.17233085632324,-19.85927391052246,-4.049050331115723,-2.806396484375,-7.270298004150391,-30.193134307861328,-59.8633041381836,-112.77681732177734,-1.9104368686676023,-8.421911239624023,-3.519573211669922,-156.5879364013672,-76.5182113647461,88.9594955444336,0.290287435054779,0.962095022201538,-2.6337075233459477
497.9942388534546,-174.43182373046875,-65.90298461914062,-120.27709197998048,-1.6930744647979736,0.3897817730903625,0.5176172256469727,-2.6773154735565186,-36.35118103027344,-162.34835815429688,-18.50469970703125,-1.4340369701385498,-17.767826080322266,19.499570846557617,24.964061737060547,-23.5898494720459,-2.264143466949463,-0.852503776550293,-9.333702087402344,-26.8866024017334,-60.0501823425293,-108.1788558959961,0.2098615169525146,-8.319944381713867,-6.313501358032227,-151.45062255859375,-76.79302978515625,86.23657989501953,-0.2840511798858642,0.0234351083636283,-3.086465835571289
498.0013828277588,-172.78761291503906,-69.24603271484375,-122.75543975830078,-0.3343505859375,-0.7179955244064331,0.6553516387939453,3.3758561611175537,-37.885040283203125,-162.22409057617188,-13.408214569091797,-1.4213132858276367,-25.482383728027344,20.490602493286133,28.49445343017578,-30.49461936950684,-0.3027134537696838,1.66882586479187,-8.714889526367188,-24.609378814697266,-61.1537971496582,-105.74603271484376,1.4286341667175293,-7.195816993713379,-7.597438812255859,-148.38221740722656,-77.67491149902344,84.48538970947266,-0.526984453201294,-0.4179466366767883,-4.602522850036621
498.0245254039765,-170.8393096923828,-72.38043212890625,-125.46488189697266,-0.6707873344421387,-0.4612520337104797,-0.4948339462280273,5.036383628845215,-45.37757873535156,-160.2239532470703,-3.634960174560547,-14.279348373413086,-16.868877410888672,17.97211265563965,32.11846160888672,-41.17802429199219,2.3177647590637207,5.153872489929199,-8.561361312866211,-22.98091697692871,-63.078983306884766,-105.03345489501952,1.8770196437835691,-5.897887229919434,-7.598464965820312,-147.59999084472656,-78.78361511230469,83.67991638183594,-1.06270170211792,-1.5237631797790527,-4.870046615600586
498.0550472736359,-169.64439392089844,-75.01665496826172,-128.1475830078125,-1.7506442070007324,-0.4600257277488708,-1.147165298461914,-5.849374294281006,-57.46814727783203,-159.05213928222656,-6.376839637756348,-10.891853332519531,-9.481809616088867,9.20936393737793,34.229393005371094,-57.72043991088867,2.593234062194824,1.3898439407348633,-10.452798843383787,-21.57345962524414,-65.51644897460938,-105.31884765625,2.8247079849243164,-5.118544578552246,-7.119144439697266,-148.60523986816406,-79.5214614868164,84.5264663696289,-1.3595912456512451,-2.916122436523437,-3.169897079467773
498.1142406463623,-171.19329833984375,-76.83631134033203,-127.35581970214844,1.236403465270996,-3.180561065673828,-2.366105079650879,-22.389049530029297,-70.53887176513672,-155.4855499267578,-12.798622131347656,-0.6153348684310913,-2.9712862968444824,-5.50148868560791,32.21314239501953,-78.02705383300781,3.136547088623047,-14.294305801391602,-19.51676177978516,-20.42372131347656,-68.19190979003906,-106.36540985107422,4.200717926025391,-4.377551078796387,-6.531783103942871,-149.19256591796875,-80.41948699951172,85.13992309570312,-0.2596749067306518,-1.8759050369262693,-0.6062469482421875
498.14440846443176,-175.03994750976562,-77.66967010498047,-122.09552001953124,0.4053293466567993,-1.0676186084747314,-1.7483911514282229,-36.28012466430664,-78.96417236328125,-145.3015594482422,9.540655136108398,5.860186576843262,5.339422225952148,-20.950170516967773,25.93336677551269,-95.23625946044922,-4.591337203979492,-16.28237533569336,-19.250732421875,-18.23040771484375,-71.06806945800781,-108.91582489013672,3.121600151062012,-3.620904445648194,-5.847437858581543,-150.00344848632812,-81.42980194091797,85.21227264404297,2.143379211425781,0.9029703140258788,-1.4824237823486328
498.1745619773865,178.4320068359375,-77.62846374511719,-114.93611907958984,1.4370851516723633,-0.9116102457046508,-2.2332730293273926,-38.16792297363281,-84.22898864746094,-140.09945678710938,1.149824619293213,-13.187456130981444,1.1414384841918943,-29.04363441467285,23.36347770690918,-97.54449462890624,5.703391075134277,6.365744590759277,-11.087371826171877,-14.573813438415527,-74.62093353271484,-112.35751342773438,2.506988525390625,-4.529144287109375,-1.1364831924438477,-154.68153381347656,-81.57715606689453,88.29795837402344,-1.6869688034057615,-1.6781394481658936,-2.4971566200256348
498.2042841911316,170.05450439453125,-76.9998550415039,-106.95834350585938,1.3356819152832031,-0.7874190807342529,0.2444257736206054,-150.5255584716797,-88.42829132080078,-31.97823905944824,3.7507848739624015,5.320845603942871,4.266628265380859,-32.57754898071289,24.016834259033203,-89.83060455322266,-12.409812927246094,-6.155365943908691,2.218512535095215,-12.758252143859863,-79.1686782836914,-113.4351806640625,6.822287559509277,-4.4105730056762695,2.6639623641967773,-162.01455688476562,-81.47313690185547,94.90406799316406,-3.95569372177124,-1.9528663158416748,1.388530731201172
498.2344090938568,161.14959716796875,-75.85965728759766,-98.42123413085938,-1.2883732318878174,-1.7748000621795654,1.7819747924804688,174.27439880371094,-84.18560791015625,-2.5920650959014893,-3.574544906616211,2.58469820022583,3.725852012634277,-25.429304122924805,25.07582664489746,-79.16824340820312,-11.27804946899414,-6.962827682495117,-6.539478302001953,-25.13030433654785,-83.80821990966797,-105.11798858642578,12.520368576049805,-4.674869537353516,3.357266426086426,-170.2171173095703,-80.8667984008789,101.81441497802734,-0.7311338186264038,-2.12264347076416,0.8520746231079102
498.264643907547,153.06524658203125,-74.02294921875,-90.13089752197266,-0.5077087879180908,0.3534284830093384,1.2047758102416992,168.21522521972656,-81.20906829833984,2.3606131076812744,-1.0960838794708252,8.890298843383789,1.805158615112305,-18.96815490722656,22.02318000793457,-63.99943161010742,-1.1135613918304443,-5.43912410736084,-10.29026222229004,-97.85662078857422,-88.4181137084961,-44.99974060058594,6.750725746154785,-3.901208877563477,3.040610313415528,-171.95358276367188,-80.30811309814453,102.92658233642578,0.0589736700057983,-2.226553440093994,0.969614028930664
498.2946217060089,145.51943969726562,-72.71012878417969,-82.72761535644531,-0.0367857590317726,2.763861656188965,1.5713863372802734,155.5765380859375,-78.83361053466797,14.795013427734377,-0.9315193891525269,-0.8925837278366089,0.3354091644287109,-19.611351013183597,14.252034187316896,-47.81798553466797,-11.301996231079102,-9.209911346435549,-6.116870880126953,148.31539916992188,-84.55471801757812,52.61803817749024,-0.0532878339290618,4.764133453369141,4.817131996154785,-166.2281036376953,-79.37173461914062,95.9850082397461,2.764504909515381,2.148040294647217,2.084808349609375
498.3236229419708,136.9167022705078,-72.61107635498047,-75.0751953125,1.736171007156372,1.7066173553466797,2.950874328613281,147.04762268066406,-76.93607330322266,23.90234375,-1.6114599704742432,-3.748652935028076,0.042947769165039,-18.43585586547852,3.682208776473999,-32.448524475097656,-3.1648106575012207,-6.342628479003906,-7.970663070678711,127.48883056640624,-80.14116668701172,64.92887878417969,-0.4991459846496582,9.927297592163086,2.9562301635742188,-162.43240356445312,-77.23320007324219,88.0541763305664,10.592077255249023,3.5134716033935547,2.5094146728515625
498.3544049263001,121.78717803955078,-74.24785614013672,-63.19131851196289,3.515379905700684,-0.598429799079895,6.609209060668945,142.5602569580078,-75.85885620117188,27.329532623291016,-1.3192274570465088,-1.6944010257720947,0.5679254531860352,-22.64562225341797,-6.6712260246276855,-16.441587448120117,4.22154712677002,5.102541923522949,-10.924715042114258,116.99119567871094,-77.9264144897461,73.6717300415039,0.5150684118270874,9.50735855102539,-0.1461877822875976,-164.7062225341797,-75.5561294555664,84.84093475341797,7.454052925109863,-1.1056158542633057,0.67596435546875
498.4145426750183,97.71858978271484,-75.87593078613281,-48.48002243041992,14.867706298828123,4.629958152770996,-3.794691562652588,138.8116912841797,-75.4955825805664,30.12533569335937,-0.4166740179061889,1.0689289569854736,0.6374177932739258,-38.22677230834961,-14.745946884155272,1.372883677482605,2.042301654815674,1.827110767364502,-3.1816463470458984,109.79754638671876,-76.75012969970703,80.3826904296875,-2.6541428565979004,4.034671783447266,-0.514887809753418,-167.5963592529297,-74.84406280517578,83.66590118408203,-3.36436128616333,0.1426884233951568,2.276765823364258
498.44424200057983,100.11219787597656,-75.66496276855469,-63.62406539916992,25.566192626953125,23.022178649902344,1.9026012420654297,134.44703674316406,-75.04428100585938,34.288333892822266,0.3674024939537048,0.6432309150695801,0.2813482284545898,-54.88643264770508,-19.107177734375,17.723941802978516,2.278733253479004,-0.795862078666687,0.8219127655029297,106.59724426269533,-75.47755432128906,84.98394012451172,-3.939310073852539,2.0267395973205566,-0.0611610412597656,-165.920166015625,-74.92543029785156,79.9338607788086,-0.696109414100647,3.016058444976806,0.1032085418701171
498.47399735450745,124.84527587890624,-68.09488677978516,-95.9851531982422,20.547630310058597,2.697259426116944,7.904491424560547,132.3973388671875,-74.26065826416016,36.88103866577149,0.6733193397521973,-0.7305810451507568,-0.8518486022949219,-61.46725845336914,-20.595277786254883,29.82177734375,-1.633125066757202,-1.5227668285369873,27.760967254638672,106.04730987548828,-74.09144592285156,90.18628692626952,-4.613593101501465,0.0391734391450881,-1.5346441268920898,-163.24391174316406,-74.90874481201172,76.24930572509766,7.635733604431152,1.2644054889678955,-0.518986701965332
498.50453639030457,140.48944091796875,-55.17035675048828,-114.13699340820312,7.23828125,-3.449979305267334,5.219292640686035,136.0397491455078,-73.09004211425781,34.06088638305664,1.0429322719573977,-1.0211429595947266,-1.0709295272827148,-49.46818923950195,-18.82280158996582,35.806583404541016,-0.3213152885437011,10.91697120666504,5.06832218170166,106.625244140625,-72.18466186523438,94.38572692871094,-2.7133188247680664,-2.187189102172852,-3.6013293266296387,-163.31753540039062,-74.76307678222656,74.74446868896484,5.140504837036133,0.0441995486617088,-1.8971624374389648
498.5377135276794,149.51736450195312,-41.93031692504883,-124.73570251464844,-0.900152325630188,-5.636324882507324,-1.0610694885253906,145.0034637451172,-71.04985809326172,25.104145050048828,-0.1260355114936828,-2.361682891845703,-3.045019149780273,-44.67704772949219,-17.65764045715332,37.258426666259766,-5.010357856750488,14.88650131225586,-11.33426284790039,106.11417388916016,-70.00211334228516,97.1809310913086,-1.2945363521575928,-2.487769603729248,-3.0347208976745605,-163.56869506835938,-75.06764221191406,73.44473266601562,-0.6176267862319946,0.0064883576706051,-3.524352550506592
498.56423234939575,156.00465393066406,-30.48992347717285,-131.89541625976562,-4.416847229003906,-5.371502876281738,-8.043952941894531,153.05374145507812,-68.13655090332031,15.22551441192627,-0.4548510909080505,-0.0193348750472068,-0.1570911407470703,-54.90171432495117,-20.421958923339844,39.22937774658203,0.0252562761306762,3.5448622703552246,-9.572237014770508,103.9622039794922,-67.32229614257812,99.96025848388672,-0.5473227500915527,-2.314912796020508,-3.056180000305176,-162.9598388671875,-75.22042083740234,71.86782836914062,-1.7462811470031738,-0.6123059988021851,-6.338509559631348
498.59423422813416,162.06793212890625,-22.47739028930664,-137.57662963867188,-2.804998874664306,-3.457101821899414,-9.485958099365234,160.4149169921875,-64.86112213134766,4.638258457183838,-1.4398090839385986,0.3668981194496155,-1.1293134689331057,-68.28680419921875,-27.278289794921875,44.06021118164063,4.844407081604004,4.993753433227539,4.925048828125,101.14095306396484,-63.06595993041992,102.29119873046876,-0.6111229658126831,-2.738480567932129,-2.9995551109313965,-160.14517211914062,-75.3830795288086,69.0702896118164,1.3008899688720703,0.1433770060539245,-6.230247497558594
498.624472618103,164.6082763671875,-19.02163314819336,-142.9042510986328,-6.262328147888184,-1.1249511241912842,-10.157690048217772,165.15797424316406,-61.70904541015625,-4.207149982452393,-1.5911481380462646,-4.150093078613281,0.5492057800292969,-72.28096771240234,-36.728275299072266,46.82584762573242,-0.7392053604125977,15.449687957763672,15.264972686767578,97.08180236816406,-56.7231559753418,104.39202880859376,2.742900848388672,-1.0924715995788574,2.0785837173461914,-157.06199645996094,-75.82229614257812,65.44747161865234,4.718832969665527,0.3224595189094543,-3.891475200653076
498.65429496765137,164.725830078125,-19.550678253173828,-146.82791137695312,-15.526823043823242,-3.519248008728028,-15.761362075805664,167.82774353027344,-59.35015106201172,-8.439167976379395,-0.7056609392166138,2.2615737915039062,1.600663185119629,-64.75286102294922,-45.26107025146485,43.68108749389648,6.644657135009766,12.713001251220703,10.682958602905272,93.81388092041016,-47.08092498779297,108.95203399658205,5.292624473571777,1.9466843605041504,8.504737854003906,-156.84275817871094,-75.48733520507812,62.761714935302734,1.6197452545166016,-1.812690258026123,-1.9053359031677248
498.7141854763031,167.10028076171875,-22.99797248840332,-148.1629180908203,-10.005409240722656,-2.5856194496154785,3.850691795349121,168.14492797851562,-57.795188903808594,-8.94894027709961,0.136128693819046,2.5474162101745605,2.0930747985839844,-57.16435241699219,-47.18444442749024,40.23442459106445,13.6312255859375,15.220239639282228,3.963442802429199,97.26148223876952,-33.89099884033203,115.23594665527344,9.21613883972168,2.50718355178833,13.208368301391602,-157.57736206054688,-75.3880386352539,60.93024063110352,-2.5066514015197754,1.2497100830078125,2.9469690322875977
498.74427008628845,172.4422149658203,-22.483436584472656,-146.74942016601562,-14.041143417358398,-11.10345458984375,-1.0745267868041992,166.8162841796875,-57.17595291137695,-7.611597061157227,-1.6878573894500732,-0.5377752780914307,1.3334732055664062,-54.08453369140625,-43.584903717041016,37.45431137084961,16.653446197509766,11.220731735229492,2.860336303710937,104.8502960205078,-18.58526992797852,120.66077423095705,9.21364402770996,-1.862891435623169,23.21288681030273,-157.05873107910156,-74.74498748779297,59.36402130126953,-1.115525722503662,2.4031453132629395,9.31790542602539
498.774462223053,173.22976684570312,-22.8587589263916,-147.1790008544922,-14.787212371826172,-7.986882209777832,5.0256853103637695,165.17660522460938,-57.85578918457031,-6.261433124542236,-1.459416389465332,-0.2957944869995117,1.0435848236083984,-57.2835578918457,-39.30783462524414,34.33512115478516,15.328136444091797,3.9253010749816895,3.1621170043945312,108.5334701538086,-1.9782520532608032,122.37413787841795,9.732534408569336,4.568775177001953,18.985008239746094,-159.13131713867188,-74.28775024414062,61.26233673095703,5.881726264953613,2.8198962211608887,9.271528244018556
498.8045182228088,168.91122436523438,-21.79714584350586,-149.57049560546875,-18.198490142822266,-10.03217315673828,7.630596160888672,162.3723907470703,-59.31765365600586,-3.89943265914917,0.3005932569503784,1.752584457397461,1.659505844116211,-63.443660736083984,-37.64173126220703,29.572370529174805,11.392803192138672,-0.6497001647949219,4.48171329498291,106.7802734375,14.656596183776855,120.7821807861328,6.221349716186523,7.584229469299316,12.260610580444336,-163.7813720703125,-73.79505157470703,64.95934295654297,2.307122707366944,2.7885541915893555,7.758380889892578
498.8345024585724,164.95669555664062,-19.189950942993164,-151.63768005371094,-24.111873626708984,-3.211110591888428,8.291130065917969,157.0784912109375,-61.39862823486328,1.5720837116241455,-1.220334529876709,1.7523126602172852,3.0495738983154297,-71.58197784423828,-40.23333740234375,23.85865974426269,4.500558853149414,-2.678499221801758,8.11026382446289,99.2822723388672,29.76873016357422,117.02384185791016,0.5292801856994629,7.310640335083008,6.482814788818359,-168.50267028808594,-73.33152770996094,68.20533752441406,1.060615301132202,0.5103780031204224,6.329017639160156
498.8642840385437,163.12429809570312,-16.57128143310547,-150.73324584960938,-18.73496627807617,-3.533586978912353,2.9428787231445312,148.9918212890625,-64.69037628173828,10.17884922027588,-0.7289553880691528,1.5020625591278076,4.394037246704102,-78.39445495605469,-46.45549774169922,17.421371459960938,0.007192313671112,-1.197484254837036,7.615547180175781,88.72982788085938,41.18671417236328,112.96863555908205,-6.98671817779541,2.599656581878662,4.153409004211426,-173.68675231933594,-73.48709106445312,72.05912780761719,3.5069470405578613,0.7312663793563843,4.805381774902344
498.8942832946777,162.24327087402344,-16.145009994506836,-148.9615020751953,-5.150698661804199,-4.081811904907227,2.4331932067871094,135.39859008789062,-69.96680450439453,30.02496910095215,6.986712455749512,4.507524490356445,2.762989997863769,-83.19740295410156,-55.1204719543457,9.398070335388184,-2.876251697540283,-2.19089937210083,6.563192367553711,75.62332916259766,49.24687957763672,108.5269546508789,-11.846620559692385,-1.708609104156494,0.8193321228027344,-179.337158203125,-73.68499755859375,76.19036865234375,3.2642059326171875,1.4689030647277832,3.839151382446289
498.92440366745,165.31216430664062,-18.43458747863769,-148.20269775390625,-4.436760902404785,-4.477334976196289,-4.827272415161133,132.05987548828125,-71.9812240600586,34.54228591918945,-0.3045784831047058,6.398005485534668,-2.293503761291504,-84.59033966064453,-65.56330108642578,-0.2141949832439422,-6.226422309875488,-0.9652950763702391,5.377224922180176,60.10676574707031,55.03849792480469,103.2752914428711,-3.4011950492858887,-5.253994941711426,-8.171337127685547,177.6865234375,-73.39934539794922,77.8568115234375,-0.8651719093322754,1.2411115169525146,-0.3468189239501953
498.9569568634033,162.19183349609375,-24.86625289916992,-148.78781127929688,-5.597643852233887,-0.2328681945800781,-6.469456672668457,134.1993865966797,-73.20808410644531,25.36939239501953,-1.5666639804840088,-1.0830085277557373,-6.122304916381836,-81.22223663330078,-76.22332763671875,-12.837970733642578,-7.756604194641113,-0.6025600433349609,-0.6250391006469727,51.31071472167969,58.72476577758789,100.9414520263672,6.1786088943481445,-4.745504379272461,-9.859195709228516,176.31752014160156,-72.67288208007812,79.11421203613281,0.3088006973266601,-1.64093279838562,-3.357588768005371
499.01413893699646,155.85519409179688,-35.70322799682617,-149.45130920410156,-6.952609062194824,-0.3906639814376831,-10.869318008422852,140.48313903808594,-73.18717193603516,10.544403076171877,-1.7144837379455566,-0.7433398962020874,-6.677759170532227,-61.80097961425781,-85.2713851928711,-41.65345764160156,-5.81256103515625,1.500044584274292,-5.684821128845215,51.03035736083984,60.88640213012695,103.27061462402344,3.38044548034668,-2.002200126647949,-8.146562576293945,174.27052307128906,-72.4654769897461,81.40550994873047,1.837372064590454,-1.2986881732940674,-5.475305557250977
499.0442254543304,150.79164123535156,-50.546669006347656,-149.4608154296875,-8.207391738891602,-2.27705717086792,-7.300671577453613,147.54930114746094,-72.29035949707031,-2.2534565925598145,-1.9802746772766116,-10.584022521972656,-7.93734073638916,50.45322799682617,-84.85136413574219,-163.3044891357422,-5.962128639221191,3.8780617713928223,-7.671099662780762,56.103397369384766,61.721168518066406,111.66403198242188,2.21990966796875,-0.2153144776821136,-8.026300430297852,171.98243713378906,-73.40641021728516,83.40504455566406,2.2665905952453613,0.2844278216361999,-9.312688827514648
499.0743923187256,148.77256774902344,-68.33538818359375,-148.49392700195312,-4.935386657714844,-4.13716983795166,4.647479057312012,148.9844207763672,-70.31099700927734,-10.234169006347656,-9.253902435302734,-7.974795341491699,-1.8374557495117188,66.76881408691406,-77.51605987548828,174.5123748779297,-4.981584548950195,4.964020729064941,-10.329269409179688,67.06719207763672,59.76990509033203,128.1451416015625,-2.862828254699707,0.4277799129486084,-10.959491729736328,169.75733947753906,-75.00090026855469,84.82044219970703,2.2382078170776367,0.7609710693359375,-11.730453491210938
499.1044719219208,136.4198760986328,-87.10064697265625,-133.4181365966797,1.9298133850097656,-1.9464974403381348,17.760902404785156,158.13302612304688,-66.4136962890625,-21.44153213500977,3.668667316436768,-3.743974208831787,1.082902908325195,72.09123992919922,-71.01002502441406,166.2897491455078,-2.781937599182129,4.010579109191895,-10.402692794799805,74.35946655273438,52.22249984741211,147.05450439453125,-17.982818603515625,-0.521207332611084,-17.427257537841797,166.5135955810547,-76.37273406982422,87.30361938476562,0.9932494163513184,0.1082981824874877,-8.91623306274414
499.1343350410461,-15.235193252563477,-75.33906555175781,23.13808822631836,14.591501235961914,6.450832366943359,10.14870262145996,166.18258666992188,-61.84235000610352,-30.316234588623047,4.634346008300781,7.343506813049316,1.4262723922729492,75.18103790283203,-65.83300018310547,160.94134521484375,-2.490687370300293,5.707444190979004,-7.913691520690918,64.69894409179688,41.75117874145508,161.20179748535156,-24.12749481201172,5.574065208435059,-19.891525268554688,163.82679748535156,-77.05854034423828,89.6471176147461,-1.708181619644165,-2.9478063583374023,-5.135749816894531
499.1639246940613,-11.33857536315918,-68.33560943603516,20.19815444946289,17.33985137939453,15.622913360595703,-25.55010223388672,170.14242553710938,-58.59973907470703,-36.150390625,0.259950578212738,-2.543325424194336,5.995293617248535,76.70957946777344,-61.288116455078125,157.96926879882812,-2.1816983222961426,7.106899261474609,-6.373405456542969,51.09146499633789,41.53621292114258,161.1516571044922,8.379463195800781,8.144926071166992,0.3725919723510742,165.2733154296875,-76.49269104003906,87.66077423095703,-2.6623191833496094,-1.4319944381713867,0.7066707611083984
499.1940448284149,-9.596480369567873,-69.0038070678711,17.02609634399414,16.080528259277344,-1.3743221759796145,-14.342523574829102,174.1085205078125,-56.82912826538086,-39.50459289550781,2.1753363609313965,1.779632568359375,5.682286262512207,76.24930572509766,-57.25750732421875,157.3996124267578,-2.949959278106689,5.528712272644043,-5.647422790527344,58.672828674316406,49.12775421142578,151.56349182128906,9.92241096496582,4.726445198059082,-16.451515197753906,159.2324676513672,-78.19032287597656,93.67491912841795,4.222235679626465,5.258332252502441,2.929471969604492
499.2241876125336,6.60452938079834,-73.84365844726562,7.094516754150391,13.751802444458008,4.894591331481934,-3.9657516479492183,177.0370635986328,-56.54496383666992,-42.44662094116211,0.1152504831552505,1.3978374004364014,4.261589050292969,73.97019958496094,-55.13366317749024,156.92539978027344,-6.855051040649414,5.113560676574707,-3.336890697479248,74.13497161865234,60.52828979492188,136.7875213623047,-17.15585708618164,-5.345023155212402,3.250912666320801,158.024658203125,-78.4160385131836,95.45795440673828,11.020374298095703,-0.5387325286865234,4.248105049133301
499.2542793750763,42.34647750854492,-79.53014373779297,-18.5894775390625,15.934598922729492,3.8879199028015137,-3.4235739707946777,179.50184631347656,-57.7627067565918,-45.60019302368164,-1.0871303081512451,-1.552598476409912,3.179546356201172,73.0195083618164,-55.402591705322266,154.2267608642578,-7.223160743713379,10.811847686767578,2.9857568740844727,54.13179397583008,67.79566955566406,102.3603744506836,-11.292165756225586,4.662069320678711,-7.367873191833496,161.0751495361328,-77.72351837158203,91.83026885986328,3.9127025604248047,-1.757598876953125,9.178827285766602
499.3143169879913,86.02449035644531,-81.27244567871094,-57.44087219238281,-13.184720993041992,2.193967342376709,6.288722991943359,-178.0004425048828,-60.03528594970703,-48.07086944580078,-0.9917714595794678,-2.8124728202819824,3.506476402282715,76.27608489990234,-57.33437728881836,150.9389190673828,-5.896411895751953,14.900428771972656,6.191671371459961,26.5782527923584,63.22945785522461,63.06871032714844,-4.735433578491211,1.145216464996338,-9.26072883605957,164.0658416748047,-77.56243133544922,89.46265411376953,1.8467676639556885,0.0195412896573543,4.498034477233887
499.3443274497986,105.02466583251952,-81.34392547607422,-77.69143676757812,-13.667377471923828,-17.896148681640625,19.59575653076172,-173.3579864501953,-64.60485076904297,-50.5132064819336,0.3188260197639465,-7.192594528198242,3.1511898040771484,85.57227325439453,-61.20873260498047,149.00180053710938,-4.778059005737305,10.806314468383787,7.055713653564453,18.940879821777344,52.56433868408203,42.52719497680664,-2.132603168487549,-1.7802419662475586,-7.730396270751953,166.6822509765625,-76.38389587402344,87.44103240966797,-1.1164867877960205,1.4796884059906006,4.353054046630859
499.3743913173676,129.31829833984375,-78.35018920898438,-97.0396957397461,-2.098292350769043,1.289994716644287,-1.4404945373535156,-162.182861328125,-68.71348571777344,-53.61320877075195,-13.304620742797852,-8.761356353759766,-0.2953786849975586,96.76200103759766,-66.50946044921875,148.9073944091797,-1.982242584228516,1.1664211750030518,5.568746566772461,20.936298370361328,41.497467041015625,31.213117599487305,-1.055734157562256,-4.328948020935059,-5.731266021728516,167.12954711914062,-75.91011047363281,90.13661193847656,-4.065516471862793,2.6643295288085938,2.2979612350463867
499.4043905735016,143.0469207763672,-76.43643951416016,-108.9176254272461,-0.993788480758667,3.157925605773926,-3.997803211212158,-146.39486694335938,-69.1336898803711,-51.81084442138672,-28.85052490234375,-4.965732574462891,2.1448326110839844,109.29793548583984,-71.13915252685547,141.99974060058594,3.7422280311584473,-4.192337989807129,1.1867456436157229,23.42243194580078,33.15685272216797,22.647388458251957,9.053106307983398,0.1675664186477661,2.9824037551879883,169.31044006347656,-76.04495239257812,94.28429412841795,-1.5976104736328125,-0.294123113155365,-2.867373466491699
499.43439745903015,155.257080078125,-75.18983459472656,-119.03824615478516,4.419865608215332,5.581035614013672,-2.626229763031006,-143.9263153076172,-63.63792419433594,-39.47316360473633,-17.398208618164062,-17.29741668701172,1.2321205139160156,125.54930114746094,-72.86595916748047,130.0533447265625,2.818105697631836,1.1737632751464844,-0.9690837860107422,34.38969421386719,30.198862075805664,20.45135307312012,9.329328536987305,-26.63152313232422,-1.915827751159668,173.4130401611328,-75.73013305664062,97.19318389892578,-1.5051419734954834,-3.254457473754883,-2.9538846015930176
499.46427059173584,163.6416778564453,-73.28604888916016,-125.11412048339844,-2.802003860473633,-3.1116762161254883,-0.4225606918334961,-152.5828399658203,-55.04854583740234,-23.2110595703125,-5.445345878601074,-15.539236068725586,-5.566851615905762,139.7085418701172,-72.67493438720703,120.44993591308594,1.4329791069030762,-0.2065715789794922,-3.605138301849365,59.78862762451172,27.23240089416504,25.67783737182617,-2.211369514465332,3.7240591049194336,-4.048519134521484,174.82911682128906,-75.0439224243164,101.86073303222656,-2.3831896781921387,1.2190508842468262,-1.880889892578125
499.4942560195923,171.5718994140625,-71.31829833984375,-130.49932861328125,-0.9957394599914552,0.0696327686309814,0.6084737777709961,-164.0782470703125,-45.897857666015625,-8.797085762023926,2.4949121475219727,-6.91983699798584,-9.510696411132812,148.54034423828125,-72.13899230957031,115.74021911621094,0.9254136085510254,-3.876690864562988,-0.7079029083251953,75.3204116821289,20.731727600097656,32.28908920288086,-2.7033658027648926,6.70638370513916,5.44224739074707,169.88198852539062,-74.96175384521484,109.33657836914062,-0.634597897529602,0.0366617143154144,0.0758028030395507
499.52425622940063,175.1276092529297,-69.89439392089844,-133.04530334472656,1.659019947052002,-2.099992275238037,0.7405023574829102,-175.33697509765625,-38.05195236206055,2.209723234176636,4.279417991638184,-3.175405502319336,-9.273174285888672,151.40972900390625,-71.88658142089844,113.70661163330078,-1.0133543014526367,-4.432638168334961,0.7546758651733398,77.68159484863281,9.421324729919434,37.49536895751953,-0.5985633134841919,3.2627758979797363,0.3222713470458984,164.13258361816406,-75.06082916259766,116.70777130126952,-1.3716471195220947,1.28155255317688,-0.4412088394165039
499.5532782077789,177.05584716796875,-69.03217315673828,-133.6307830810547,-1.093184471130371,0.031298741698265,0.2233562469482422,173.27182006835938,-32.864437103271484,11.605520248413086,5.065898895263672,0.9373960494995116,-4.6386823654174805,149.49429321289062,-72.15599060058594,113.0460433959961,-1.059734344482422,-2.324002265930176,-0.3805885314941406,74.12770080566406,-6.418186664581299,40.976295471191406,6.829886436462402,3.6103439331054688,-4.164914131164551,158.15806579589844,-75.26044464111328,124.18031311035156,-2.471057891845703,1.634144306182861,-1.4452438354492188
499.61399841308594,178.93557739257812,-68.3670654296875,-134.09877014160156,-2.054577350616455,0.6049424409866333,0.0672245025634765,166.97613525390625,-31.586917877197266,20.684633255004883,12.601409912109377,7.8810224533081055,-9.348644256591797,145.3499298095703,-72.86869049072266,112.03435516357422,-1.5637974739074707,0.9613417387008668,-2.7286739349365234,70.84923553466797,-25.441659927368164,46.49440383911133,19.68532943725586,10.903350830078123,4.706324577331543,151.86892700195312,-75.57014465332031,131.2045135498047,-0.656163215637207,0.269874095916748,-4.360139846801758
499.6442632675171,179.63156127929688,-67.26472473144531,-134.44761657714844,-1.3080565929412842,-2.270102977752685,-1.0640344619750977,164.48037719726562,-34.539344787597656,29.17693519592285,13.450368881225586,14.191085815429688,-9.139032363891602,141.467529296875,-74.0517349243164,110.31002807617188,-2.2461276054382324,2.7796010971069336,-4.780001640319824,69.3893814086914,-42.85441207885742,57.094974517822266,20.960189819335938,25.383712768554688,22.351058959960938,144.95677185058594,-75.32662200927734,137.73483276367188,0.9295727014541626,0.5663589239120483,-5.001477241516113
499.6746263504028,179.6165771484375,-65.3502426147461,-132.6053466796875,-0.5743263959884644,-2.0353922843933105,-1.2407817840576172,171.50318908691406,-38.51305770874024,35.2009162902832,-1.414273738861084,15.135889053344728,24.78720474243164,139.40658569335938,-76.26358032226562,107.6446762084961,-3.074775218963623,4.073638916015625,-4.376461029052734,83.12930297851562,-48.07366561889648,59.51752471923828,4.460548400878906,-10.837018966674805,0.5640993118286133,138.73800659179688,-74.87991333007812,143.05255126953125,1.6511805057525637,0.809959888458252,-4.639561653137207
499.70464968681335,179.3338623046875,-62.56279373168945,-130.82125854492188,-1.2527742385864258,-2.0857930183410645,-0.8823623657226562,171.70225524902344,-38.83226013183594,33.848411560058594,9.573938369750977,16.44940185546875,0.1631679534912109,143.38731384277344,-81.03038787841797,99.79812622070312,-5.670145034790039,3.659367561340332,-0.2731714248657226,95.34170532226562,-45.3961296081543,55.16634368896485,1.818903923034668,-3.0774168968200684,-3.2469382286071777,133.7452392578125,-73.64157104492188,145.88433837890625,2.9218263626098637,1.5412681102752686,-4.651477813720703
499.7340443134308,178.84780883789062,-59.35122299194336,-128.0780487060547,0.1217774599790573,0.1888933479785919,-0.3479118347167969,170.4925079345703,-37.92262268066406,30.03634452819824,14.347208023071287,11.629899978637695,8.792745590209961,-125.23690032958984,-85.72689819335938,3.3863892555236816,-9.264808654785156,8.19536018371582,7.680366516113281,100.06031799316406,-38.62377166748047,55.180450439453125,3.316038131713867,4.003274917602539,8.61380386352539,129.50990295410156,-71.40982055664062,148.306396484375,-5.43137264251709,-0.4420576691627502,2.390984535217285
499.7645680904389,178.40423583984375,-56.6533088684082,-125.82891845703124,-2.846705436706543,-0.1299001276493072,-0.5661516189575195,172.12472534179688,-34.77648162841797,24.79970359802246,13.064992904663086,10.706985473632812,9.54534912109375,-79.91043090820312,-73.35675048828125,-47.82036209106445,-6.581814765930176,15.430557250976562,9.975961685180664,97.20797729492188,-31.1519775390625,57.60234451293945,7.285863876342773,13.31334114074707,3.741965293884277,127.6039581298828,-70.23019409179688,151.0043182373047,-5.968391418457031,-1.3935062885284424,3.6686601638793945
499.7942771911621,178.35633850097656,-53.22706985473633,-123.54976654052734,-1.634375810623169,-0.3220208883285522,0.0509681701660156,175.37741088867188,-30.896224975585938,21.14535903930664,13.326963424682615,2.686361789703369,4.546326637268066,-65.93262481689453,-60.19731903076172,-57.12141036987305,0.6504964828491211,11.56961441040039,6.7905120849609375,93.16350555419922,-25.526180267333984,61.21421051025391,16.428356170654297,15.698945999145508,-1.2188634872436523,126.47771453857422,-70.54914855957031,153.47860717773438,3.863767147064209,2.2969837188720703,5.538424491882324
499.82427859306335,179.08380126953125,-50.01118469238281,-122.73458099365234,-0.046633742749691,-0.5403828620910645,1.0351448059082031,-178.2093963623047,-30.127336502075195,20.04232788085937,11.035123825073242,9.930185317993164,-0.224029541015625,-67.27947998046875,-44.94098663330078,-54.50212478637695,-2.5154619216918945,25.305328369140625,12.08732795715332,94.99449157714844,-23.906543731689453,66.84941864013672,7.774752616882324,12.010137557983398,-3.1674513816833496,128.1125946044922,-70.88835144042969,152.34007263183594,1.9910125732421875,1.5822207927703855,6.363492965698242
