Timestamp,D4:22:CD:00:05:5D_EulerX,D4:22:CD:00:05:5D_EulerY,D4:22:CD:00:05:5D_EulerZ,D4:22:CD:00:05:5D_FreeAccX,D4:22:CD:00:05:5D_FreeAccY,D4:22:CD:00:05:5D_FreeAccZ,D4:22:CD:00:05:5E_EulerX,D4:22:CD:00:05:5E_EulerY,D4:22:CD:00:05:5E_EulerZ,D4:22:CD:00:05:5E_FreeAccX,D4:22:CD:00:05:5E_FreeAccY,D4:22:CD:00:05:5E_FreeAccZ,D4:22:CD:00:05:6B_EulerX,D4:22:CD:00:05:6B_EulerY,D4:22:CD:00:05:6B_EulerZ,D4:22:CD:00:05:6B_FreeAccX,D4:22:CD:00:05:6B_FreeAccY,D4:22:CD:00:05:6B_FreeAccZ,D4:22:CD:00:05:6E_EulerX,D4:22:CD:00:05:6E_EulerY,D4:22:CD:00:05:6E_EulerZ,D4:22:CD:00:05:6E_FreeAccX,D4:22:CD:00:05:6E_FreeAccY,D4:22:CD:00:05:6E_FreeAccZ,D4:22:CD:00:49:AA_EulerX,D4:22:CD:00:49:AA_EulerY,D4:22:CD:00:49:AA_EulerZ,D4:22:CD:00:49:AA_FreeAccX,D4:22:CD:00:49:AA_FreeAccY,D4:22:CD:00:49:AA_FreeAccZ
2361.7833774089813,173.50799560546875,-59.74094009399414,-97.41449737548828,4.870901107788086,0.8952188491821289,1.6146736145019531,173.45565795898438,-55.85977554321289,-44.26360702514648,-3.5011234283447266,-9.883230209350586,11.558977127075195,-83.90323638916016,-55.64302444458008,-64.5954818725586,6.862610816955566,14.698736190795898,5.25284481048584,99.54621887207033,-40.84750747680664,14.77169132232666,16.23922348022461,3.1984682083129883,-0.2435979843139648,149.89076232910156,-72.40692901611328,134.7628936767578,0.0829237550497055,1.581136703491211,3.0293502807617188
2361.78737783432,173.30740356445312,-56.277225494384766,-96.51638793945312,2.655332565307617,0.8680235147476196,1.1525697708129885,-178.38449096679688,-54.41238021850586,-44.93269348144531,5.489622116088867,-6.4217023849487305,19.045928955078125,-77.38701629638672,-49.86437225341797,-72.76396179199219,0.4017457962036133,19.75667953491211,9.063835144042969,104.34719848632812,-34.942996978759766,16.274778366088867,12.669347763061523,7.021676063537598,7.551261901855469,144.86483764648438,-72.73060607910156,141.2803955078125,-3.818333625793457,-0.611616849899292,6.455686569213867
2361.86612868309,-165.23875427246094,-75.79656219482422,-108.48424530029295,-2.226984977722168,1.2760543823242188,0.7472333908081055,-135.94410705566406,-68.2086181640625,-68.8283462524414,-4.91213321685791,-11.960147857666016,19.284637451171875,163.353271484375,-58.0357780456543,-45.080684661865234,27.85560607910156,-6.070978164672852,-1.744211196899414,-45.90925979614258,-64.22087860107422,-162.86572265625,-5.672677040100098,-0.3195359110832214,10.44325828552246,170.46014404296875,-71.80542755126953,113.0383758544922,-0.6911815404891968,-2.2356653213500977,1.0095243453979492
2361.895136833191,178.1938934326172,-70.30799865722656,-90.66905975341795,-0.8431597948074341,4.350927352905273,-1.8685145378112795,-178.1080780029297,-68.22239685058594,-31.985506057739254,5.167824745178223,-1.7025442123413086,22.56504440307617,-140.66775512695312,-73.26229858398438,-97.9791488647461,20.06163024902344,-6.506402969360352,4.497162818908691,-32.752403259277344,-71.08506774902344,-169.9740753173828,-6.956278800964356,3.244563102722168,12.744503021240234,176.4057159423828,-68.49813842773438,108.16421508789062,0.6798704862594604,-1.0062713623046875,7.102701187133789
2361.925150871277,171.96156311035156,-64.4990463256836,-82.78844451904297,3.0609354972839355,4.419743537902832,-1.017499923706055,-175.93319702148438,-67.80731964111328,-33.48542404174805,-1.4762005805969238,0.6992522478103638,10.142650604248049,-80.59759521484375,-59.24384689331055,-150.08888244628906,7.846932411193848,-3.482822895050049,10.84084701538086,-14.151906967163086,-81.49076843261719,-175.49124145507812,-12.786579132080078,-3.0172815322875977,12.196649551391602,176.00918579101562,-66.51840209960938,109.61448669433594,1.9672927856445312,-1.237987756729126,5.626622200012207
2361.985687971115,171.84841918945312,-59.92214584350586,-81.29399108886719,2.516285896301269,4.000052452087402,-0.6497287750244141,-170.9976348876953,-66.14398193359375,-38.73125076293945,-0.4601898193359375,2.770581722259521,-3.226496696472168,-72.66027069091797,-35.717872619628906,-154.7787322998047,8.982612609863281,8.552242279052734,18.165283203125,84.91224670410156,-81.56793212890625,90.85514831542967,-6.276787757873535,-3.16530179977417,18.176002502441406,176.1370086669922,-66.2541732788086,111.19210815429688,0.459581971168518,0.931633234024048,8.41328239440918
2362.015679836273,173.22433471679688,-56.97743988037109,-81.50665283203125,-2.188089370727539,0.0295090749859809,3.642921447753906,-166.3678741455078,-67.65357208251953,-45.119441986083984,-0.0591507479548454,3.1397857666015625,-9.475921630859377,-67.17808532714844,-10.95397663116455,-148.75921630859375,-4.543487548828125,-2.6961798667907715,20.67047119140625,91.67955017089844,-71.39969635009766,88.21060180664062,-1.6637492179870603,0.9295746088027954,16.582958221435547,177.9686279296875,-67.86170196533203,111.78590393066406,0.0745366513729095,3.475799083709717,9.948112487792969
2362.045229911804,174.35601806640625,-55.54369735717773,-81.47152709960938,-0.1510922908782959,2.547855854034424,3.5191125869750977,-158.1522674560547,-72.62739562988281,-55.388282775878906,2.652705192565918,4.530983924865723,-12.253366470336914,-57.556427001953125,8.925976753234863,-141.00411987304688,-15.872344970703123,-11.22734832763672,10.52402687072754,86.90550994873047,-67.57870483398438,100.95387268066406,-2.1042351722717285,-1.969527006149292,3.850620269775391,-179.46542358398438,-70.4143295288086,110.2713851928711,1.3734633922576904,5.1870880126953125,10.595207214355469
2362.075231313705,175.01341247558594,-56.13758087158203,-81.88032531738281,0.2103527188301086,2.246157646179199,4.453866004943848,-127.01561737060548,-79.12523651123047,-84.98741912841797,3.5764236450195312,4.438297271728516,-9.613155364990234,-43.49010467529297,21.36660385131836,-135.81336975097656,-15.163719177246094,-12.556215286254885,2.425009727478028,81.29927825927734,-70.51563262939453,116.63329315185548,3.0182547569274902,-8.966064453125,-6.245151519775391,-177.0533447265625,-73.4618148803711,108.54475402832033,-1.221501350402832,3.237198829650879,7.7144012451171875
2362.1052300930023,174.86607360839844,-58.64250183105469,-81.00628662109375,1.1756439208984375,-0.8881479501724243,8.569696426391602,-64.96863555908203,-78.81329345703125,-144.87274169921875,-0.4750792384147644,2.021353244781494,-8.76357650756836,-27.74479484558105,30.1065731048584,-134.00840759277344,-13.352584838867188,-3.9619274139404297,1.283246994018555,61.05772399902344,-76.79652404785156,143.6670684814453,4.380246162414551,-8.748668670654297,-9.28984260559082,-172.80152893066406,-76.47518157958984,105.09455871582033,-4.058743476867676,-0.0354817882180213,3.147416114807129
2362.135763406753,173.3509063720703,-62.11941146850586,-79.3543701171875,2.2718472480773926,-5.537690162658691,7.333850860595703,-33.23423767089844,-71.79383087158203,-176.7831573486328,-4.663202285766602,-1.0103108882904053,-9.55811882019043,-11.669800758361816,38.713172912597656,-133.34323120117188,-13.70367431640625,2.4727020263671875,-5.262363433837891,13.997777938842772,-79.69979858398438,-165.23081970214844,3.978715896606445,-3.263534545898437,-11.636507034301758,-164.724365234375,-77.83243560791016,98.34341430664062,-0.7785038948059082,1.901914119720459,-3.446348190307617
2362.165779352188,168.6656951904297,-67.87715148925781,-77.59613037109375,0.783786416053772,-3.828951358795166,-1.4046611785888672,-21.635915756225582,-63.93238830566406,167.90585327148438,-8.022085189819336,0.1476963460445404,-7.959443092346191,3.0372538566589355,47.94725799560547,-130.89942932128906,-11.584186553955078,4.425893783569336,-12.053756713867188,-28.19207763671875,-76.27871704101562,-120.03495025634766,2.551614761352539,-0.2665554881095886,-12.799600601196287,-156.16769409179688,-78.79422760009766,90.96247100830078,2.66786527633667,1.3115997314453125,-11.073942184448242
2362.1959846019745,159.8970947265625,-71.61847686767578,-76.91960906982422,2.4664669036865234,3.824407577514648,-7.429344177246094,-21.060827255249023,-57.06888961791992,158.73550415039062,-11.484060287475586,1.563805103302002,-8.584136962890625,17.616374969482422,56.35223388671875,-124.04550170898438,-3.834414482116699,2.301715850830078,-12.813793182373049,-52.49768829345703,-69.31143951416016,-92.00949096679688,0.3873162269592285,-0.4247028231620788,-9.464824676513672,-148.27484130859375,-80.37884521484375,83.35555267333984,-0.4166728258132934,0.1305069327354431,-11.407991409301758
2362.2252428531647,159.0615997314453,-73.2518310546875,-73.84915924072266,8.905858993530273,-5.102294921875,-9.134033203125,-26.225135803222656,-51.46777725219727,153.835205078125,-13.072507858276367,7.823201179504394,-6.357823371887207,31.61115837097168,62.22929382324219,-113.66666412353516,0.0690534114837646,2.0584030151367188,-10.389768600463867,-63.99104690551758,-59.25204086303711,-74.76570129394531,2.23237419128418,-5.740405082702637,-5.702567100524902,-137.8388671875,-82.45018005371094,73.5682144165039,-1.774139642715454,-0.659153938293457,-7.994206428527832
2362.285781621933,164.97129821777344,-77.06187438964844,-71.81542205810547,5.632807731628418,-2.8041024208068848,-10.097900390625,-26.999135971069336,-47.652610778808594,150.61911010742188,-16.967857360839844,7.405019760131836,-13.367332458496094,39.80638122558594,64.56216430664062,-104.06945037841795,0.7310127019882202,1.70235013961792,-7.947185516357422,-68.05611419677734,-47.48550415039063,-64.9172134399414,7.288736343383789,-10.435541152954102,-4.778111457824707,-124.6383285522461,-83.87567901611328,61.17766952514648,-1.6506307125091553,-2.953859329223633,-11.470104217529297
2362.315860271454,172.05126953125,-80.186767578125,-72.92691040039062,-14.120365142822266,16.933597564697266,-3.6730031967163086,-24.620777130126957,-48.36092376708984,147.5530548095703,-15.062307357788086,2.8379101753234863,-18.347713470458984,39.08086013793945,65.4240951538086,-101.00852966308594,-1.5831563472747805,3.12994384765625,-9.998235702514648,-67.98348236083984,-36.53837203979492,-60.13847732543945,9.47035026550293,-9.662513732910156,-6.14851188659668,-111.56134033203124,-84.12290954589844,49.46352005004883,-1.2529330253601074,-0.5748833417892456,-6.035067558288574
2362.345403432846,167.29376220703125,-77.63753509521484,-67.86869812011719,-3.319478988647461,6.553617477416992,-2.040703296661377,-27.796497344970703,-54.29008102416992,147.36380004882812,-14.507137298583984,14.682657241821287,-16.01787567138672,31.505033493041992,67.8746109008789,-108.95526885986328,-2.797396183013916,3.7427902221679688,-13.658830642700195,-64.91986083984375,-28.93337821960449,-57.451393127441406,8.962444305419922,-8.740659713745117,-9.881534576416016,-95.61177825927734,-84.3188705444336,33.77069091796875,-1.2224178314208984,1.7840430736541748,-1.155634880065918
2362.375403881073,165.3388214111328,-74.45194244384766,-59.95055770874024,-5.113579750061035,-4.018355369567871,0.8082675933837891,-34.816925048828125,-61.40155792236328,152.23033142089844,-7.484439849853516,-11.03032684326172,8.19515609741211,15.272662162780762,70.36282348632812,-129.73597717285156,0.558172345161438,2.501617431640625,-13.41139793395996,-62.213645935058594,-25.801572799682617,-55.29110336303711,10.410791397094728,-4.807285308837891,-11.021242141723633,-86.70085144042969,-84.47884368896484,24.29667282104492,0.1812866628170013,-2.454030513763428,-0.8390712738037109
2362.4054040908813,161.8586883544922,-71.73123931884766,-51.60097122192383,-0.7385048866271973,-2.321627140045166,2.4558353424072266,-41.80686569213867,-66.62516021728516,156.07176208496094,-4.003145217895508,-1.19228196144104,10.851579666137695,-7.385378837585449,69.26095581054688,-160.3448486328125,4.655130386352539,-0.621256947517395,-7.9851531982421875,-58.17531204223633,-26.160633087158203,-54.99187088012695,8.176046371459961,-4.787270545959473,-8.779487609863281,-82.4319076538086,-84.57404327392578,19.05990600585937,-1.2522497177124023,-1.2832298278808594,5.454852104187012
2362.4354174137115,157.5996856689453,-69.26886749267578,-43.50522232055664,1.922015190124512,-0.1719026863574981,3.4792585372924805,-48.51886367797852,-70.31708526611328,161.69296264648438,-0.4790570735931396,5.211373329162598,9.526449203491213,-23.081892013549805,62.4864387512207,170.46060180664062,-0.6001367568969727,3.3182945251464844,-7.6403608322143555,-52.93606185913086,-28.23583030700684,-55.00902557373047,7.50556755065918,-6.320919036865234,-9.641307830810549,-75.97483825683594,-84.60594940185547,9.35482120513916,0.8040122985839844,-1.3854749202728271,3.2347564697265625
2362.465877532959,152.2762451171875,-67.08267974853516,-35.92500686645508,0.7944917678833008,-0.1353408992290496,2.395713806152344,-56.01668930053711,-73.51217651367188,167.28591918945312,-5.0205583572387695,5.031057357788086,1.492422103881836,-26.41686248779297,54.0693244934082,154.55088806152344,-2.9147777557373047,1.2181720733642578,-7.095889091491699,-50.77657699584961,-31.501731872558597,-53.89768600463867,11.281845092773438,-5.024844169616699,-8.740598678588867,-68.8614501953125,-84.56963348388672,-1.5915169715881348,0.4392959475517273,-1.621778964996338,1.6998176574707031
2362.4960157871246,146.07493591308594,-65.5213851928711,-30.482967376708984,0.5637220144271851,-0.6196415424346924,5.508125305175781,-57.84266662597656,-76.0789794921875,167.96495056152344,-6.316557884216309,3.8609261512756343,-3.522622585296631,-30.013486862182617,50.12172317504883,150.76968383789062,7.918302536010742,-6.787360191345215,-5.642327308654785,-53.28453826904297,-35.49822235107422,-51.94892501831055,9.921102523803713,-4.300749778747559,-5.519904136657715,-66.94171142578125,-84.2591552734375,-6.959251403808594,-1.4175353050231934,-1.4243357181549072,3.8170957565307617
2362.526030302048,138.42210388183594,-64.60624694824219,-26.68636131286621,2.2878894805908203,-1.5491304397583008,4.77402400970459,-51.850830078125,-77.73371887207031,161.86924743652344,-6.021913528442383,4.472004890441895,0.1248912811279296,-36.66650390625,52.62171173095703,161.7164764404297,-4.728769302368164,3.4905500411987305,1.7627220153808594,-58.21200180053711,-39.17096328735352,-48.86869430541992,11.198738098144531,-4.847460746765137,-1.4813928604125977,-77.90330505371094,-84.33096313476562,0.6338438987731934,4.468628883361816,-1.1058979034423828,2.1338882446289062
2362.5855453014374,127.69295501708984,-65.02576446533203,-23.55859375,5.802064895629883,-1.9953744411468504,4.654199600219727,-44.79206085205078,-78.25712585449219,153.78121948242188,-5.045644760131836,3.918346405029297,0.6831350326538086,-27.016508102416992,55.18470001220703,-175.48292541503906,-9.28316879272461,10.232295989990234,-6.6155853271484375,-63.52667999267578,-42.64176559448242,-46.23147201538086,12.92649269104004,-3.455410957336426,0.3252735137939453,-91.03776550292967,-84.77910614013672,10.121789932250977,7.781040191650391,0.0959677100181579,-1.347731590270996
2362.615549325943,121.70934295654295,-63.12897491455078,-25.874408721923828,9.11556625366211,12.581493377685549,2.4960508346557617,-34.39810943603516,-78.00289916992188,142.7537841796875,-3.74027156829834,3.914595127105713,1.3206815719604492,-8.649731636047363,49.26087188720703,-149.97885131835938,-6.910802841186523,5.709159851074219,-9.206724166870115,-70.66172790527344,-46.67607879638672,-44.39670181274414,9.111156463623049,-3.8571486473083496,0.0050134658813476,-113.78125762939452,-85.15180206298828,30.861373901367188,1.1707885265350342,1.1561224460601809,0.8562459945678711
2362.6451003551483,130.7852325439453,-56.79188537597656,-36.97482681274414,9.345132827758787,17.654930114746094,7.963220596313477,-21.367107391357425,-76.92701721191406,130.40127563476562,-3.331083297729492,3.253458976745605,0.929840087890625,1.6681780815124512,36.03287506103516,-134.47950744628906,1.64668607711792,4.136148452758789,-5.232251167297363,-79.2734603881836,-50.985469818115234,-43.257118225097656,3.397454261779785,-6.784554481506348,4.9675493240356445,-134.03353881835938,-84.03057861328125,52.387020111083984,-0.060909517109394,1.744886875152588,3.2720603942871094
2362.6750996112823,140.70269775390625,-49.01591491699219,-49.41829681396485,7.260946273803711,7.878395080566406,4.544523239135742,-7.568949222564697,-74.87950134277344,119.29602813720705,-3.1727771759033203,1.330254316329956,1.2454719543457031,4.429845333099365,19.48126983642578,-124.05642700195312,5.675067901611328,5.753808975219727,-7.609279632568359,-84.32843017578125,-54.90887451171875,-43.114742279052734,0.5186747312545776,-5.022154808044434,7.853727340698242,-146.5962677001953,-81.96720123291016,67.46481323242188,7.623668670654297,2.2182416915893555,3.290136337280273
2362.705099344253,145.86473083496094,-40.93518829345703,-59.707664489746094,2.115051746368408,0.0940078645944595,-2.195174217224121,10.42403507232666,-70.7686538696289,110.14662170410156,0.3592424392700195,-0.1665977835655212,-6.0917158126831055,3.277974843978882,0.702171266078949,-113.56088256835938,2.476557731628418,1.5440070629119873,-8.945114135742188,-82.20719146728516,-58.35905075073242,-44.2109260559082,0.0936005115509033,-4.193692207336426,3.8345890045166016,-152.67381286621094,-81.27015686035156,74.93224334716797,7.065964698791504,0.1221355199813842,2.021204948425293
2362.7356293201447,150.20712280273438,-33.554813385009766,-67.34707641601562,-2.7046704292297363,-2.3490538597106934,-8.798999786376953,13.31976318359375,-71.83448791503906,110.1661376953125,-6.00246524810791,0.2758804559707641,-6.45656681060791,-2.8450207710266118,-16.408388137817383,-100.46968841552734,2.83260440826416,-2.733893394470215,-8.625078201293945,-76.93292236328125,-60.159915924072266,-44.42330551147461,-1.533691167831421,-2.2314600944519043,-1.83784294128418,-152.7814178466797,-81.5926284790039,74.67481231689453,2.0368871688842773,-0.7469677925109863,-1.2939720153808594
2362.7656383514404,155.3056640625,-27.625133514404297,-73.27702331542969,-3.6602001190185542,-1.494699001312256,-12.247329711914062,15.059026718139648,-73.13519287109375,112.9443817138672,2.002249240875244,0.3417677283287048,-6.853580474853516,-16.151636123657227,-26.92206573486328,-86.19756317138672,-4.143682479858398,0.7535547018051147,4.262321472167969,-70.33113861083984,-60.5682258605957,-44.18267440795898,0.4724297523498535,-4.375469207763672,-5.028535842895508,-149.0489044189453,-81.65367126464844,70.46261596679688,-0.4207580089569092,-0.5736420154571533,-3.3514575958251958
2362.795646905899,159.2589874267578,-24.33585929870605,-78.50363159179688,-5.458020210266113,-2.002175807952881,-11.115821838378906,12.523375511169434,-75.6159439086914,116.44393157958984,-18.497608184814453,9.852378845214844,-11.848278045654297,-20.294872283935547,-27.03830909729004,-77.97149658203125,-1.0101988315582275,2.3326516151428223,9.220014572143556,-66.33381652832031,-60.663330078125,-43.79979705810547,2.678865909576416,-5.251919746398926,-6.097247123718262,-148.24378967285156,-81.29878997802734,70.26000213623047,0.3181024193763733,-0.5800318717956543,-6.766330718994141
2362.8552045822144,161.70469665527344,-23.286888122558597,-83.32275390625,-4.831976890563965,-1.7951529026031494,-10.371904373168944,-0.6177518963813782,-80.1213607788086,124.25989532470705,-10.683582305908203,-2.628835678100586,-1.9341144561767576,-17.327186584472656,-21.910419464111328,-78.05674743652344,2.930019855499268,4.7579851150512695,-1.0687036514282229,-64.87837982177734,-61.26709747314453,-43.669803619384766,3.276176929473877,-2.657182216644287,-5.157660484313965,-152.14385986328125,-80.65435028076172,74.81791687011719,1.4585886001586914,0.9052127599716188,-9.806068420410156
2362.8853027820587,163.87124633789062,-23.914419174194336,-87.93572998046875,-1.0548624992370603,-1.524327039718628,-9.32514762878418,-23.23874855041504,-84.35028076171875,146.17034912109375,-0.5835845470428467,6.339357376098633,-0.0123109817504882,-17.092674255371094,-18.49761962890625,-83.11333465576172,0.3614259958267212,3.6313652992248535,-7.629941940307617,-61.56635665893555,-62.9443588256836,-45.07137298583984,3.164989471435547,0.7889569997787476,-6.389913558959961,-160.2880401611328,-80.32659149169922,82.63909149169922,2.7588982582092285,2.6354689598083496,-8.48126220703125
2362.915785074234,166.5653839111328,-26.2089900970459,-92.8289794921875,-3.6688642501831055,-2.083603858947754,-8.525472640991211,-82.47774505615234,-85.78690338134766,-155.3854522705078,-5.197789192199707,1.9384739398956297,6.277059555053711,-22.66589736938477,-23.42323875427246,-89.38224029541016,-1.4977083206176758,-5.479068756103516,-10.53420066833496,-55.13969421386719,-65.42089080810547,-48.92706298828125,5.286525726318359,0.593265175819397,-6.634944915771484,-169.47715759277344,-80.10350036621094,90.4518585205078,1.1823084354400637,1.6865050792694092,-2.411424160003662
2362.945911884308,167.07302856445312,-29.25912094116211,-98.26187896728516,-4.664834022521973,5.992242813110352,19.105098724365234,-111.3876953125,-85.23243713378906,-125.29244232177734,-4.354948997497559,5.700156211853027,-4.118138313293457,-32.75724029541016,-39.72924041748047,-95.91947174072266,-12.308340072631836,-24.39448547363281,2.919900894165039,-46.49931716918945,-67.29133605957031,-54.60590744018555,6.319862365722656,-2.116344928741455,-4.260564804077148,-170.36398315429688,-79.61289978027344,90.9813995361328,-1.58189058303833,-2.7054848670959477,1.9453153610229488
2362.9754819869995,162.0774688720703,-26.560827255249023,-101.16387176513672,-2.8831729888916016,-9.97215461730957,4.0566911697387695,-121.11925506591795,-85.3934326171875,-115.61132049560548,-5.516742706298828,4.404221534729004,1.2535247802734375,-19.890249252319336,-52.87497329711914,-109.76917266845705,-11.670793533325195,-12.456445693969728,61.25862884521485,-40.713623046875,-68.19603729248047,-60.59939193725586,15.36186981201172,-9.496469497680664,-4.422472953796387,-171.44952392578125,-79.6255111694336,93.11735534667967,4.999069213867188,2.15480899810791,6.314216613769531
2363.005479812622,160.3775634765625,-25.356821060180664,-102.18731689453124,-9.222858428955078,-12.751977920532228,-0.0829839706420898,-118.3851547241211,-86.09886932373047,-119.11490631103516,-5.270249366760254,4.984040260314941,-0.6448698043823242,-1.151810884475708,-51.43518829345703,-110.00128936767578,17.04132843017578,-26.331073760986328,1.9490842819213867,-37.53221893310547,-70.11074829101562,-70.77336883544922,19.437206268310547,-12.713220596313477,3.352029800415039,-177.31268310546875,-79.81719207763672,97.87615203857422,4.593533515930176,0.7318446636199951,6.042656898498535
2363.0345842838287,160.16696166992188,-23.35972213745117,-100.38260650634766,-9.741357803344728,-15.033243179321287,6.556522369384766,-102.9808120727539,-87.1114730834961,-136.34768676757812,-4.90159797668457,5.0745954513549805,0.1291761398315429,-23.189889907836918,-43.5797004699707,-89.29469299316406,-11.39781379699707,-29.081138610839844,23.26036071777344,-19.287567138671875,-72.6280288696289,-102.75736236572266,18.591297149658203,-14.919530868530272,19.51886367797852,179.2427978515625,-78.5842514038086,99.8834228515625,1.8144571781158447,0.8500707149505615,8.135379791259766
2363.0652923583984,161.77439880371094,-20.51785087585449,-96.06273651123048,-11.229806900024414,-12.563100814819336,13.750288009643556,-31.04140281677246,-86.65485382080078,150.2116241455078,-5.951267242431641,5.409489631652832,2.3437700271606445,-29.80986976623535,-31.58464241027832,-82.30855560302734,-1.7927799224853516,-19.960205078125,1.5658693313598633,18.05428695678711,-66.45246887207031,-146.09878540039062,15.518058776855469,-4.967409133911133,15.328218460083008,177.7991943359375,-76.20109558105469,100.25057220458984,0.3574736714363098,-1.182720422744751,8.681018829345703
2363.0952858924866,160.3490447998047,-16.387964248657227,-90.62097930908205,0.3287285566329956,-13.733285903930664,11.82143211364746,-3.7041263580322266,-81.25543212890625,121.94944763183594,-3.3811287879943848,5.835916519165039,7.363193511962891,-38.27559661865234,-22.497859954833984,-83.45848846435547,-5.233922004699707,-6.04702091217041,-6.841893196105957,38.72185897827149,-52.58644485473633,-164.6451873779297,17.80795669555664,-3.532783508300781,4.259271621704102,174.89959716796875,-74.59557342529297,102.32264709472656,3.66520881652832,1.6328675746917725,11.426998138427734
2363.125584602356,160.1345977783203,-12.059120178222656,-87.40552520751953,0.6031094789505005,-6.863880157470703,7.910758972167969,7.536068916320801,-71.96546173095703,115.38269805908205,4.139103889465332,0.928575038909912,3.189380645751953,-47.03898620605469,-20.62380790710449,-89.68717193603516,-7.631590843200684,5.875619888305664,-3.546648502349853,45.50862884521485,-36.82159805297852,-174.7386474609375,13.53897476196289,-1.247042179107666,0.9605035781860352,170.83544921875,-74.33529663085938,104.44029998779295,4.906027793884277,1.3233537673950195,7.294139862060547
2363.1861810684204,159.78851318359375,-9.25490951538086,-87.0693588256836,2.0534744262695312,-2.1600985527038574,0.1164064407348632,6.192587375640869,-68.92425537109375,119.03501892089844,-3.401388168334961,1.8033971786499023,-7.112408638000488,-50.73943328857422,-26.158763885498047,-99.6725616455078,-2.575644016265869,5.980195999145508,-3.0251736640930176,43.31338882446289,-21.60922241210937,177.6962890625,7.436379432678223,4.14317512512207,0.3304519653320312,167.29994201660156,-74.21527099609375,106.10885620117188,0.7534384727478027,0.2038871645927429,2.7797813415527344
2363.2151803970337,159.20388793945312,-9.215238571166992,-88.04531860351562,-0.3182876706123352,-1.5801167488098145,-8.008255004882812,-4.884846210479736,-69.58606719970703,126.8715591430664,-6.9424896240234375,7.294087409973144,-11.078008651733398,-54.48164749145508,-35.14670944213867,-110.9242172241211,-2.689309597015381,5.717255592346191,-5.902364730834961,35.35268020629883,-8.530052185058594,171.91513061523438,5.761964797973633,0.1018590927124023,-2.04921817779541,163.9949493408203,-74.10799407958984,108.67784881591795,1.2652716636657717,0.5602625608444214,-2.4137191772460938
2363.245720624924,158.06076049804688,-12.802902221679688,-89.23365020751953,-3.669033050537109,-2.915488719940185,-18.463401794433597,-21.449552536010746,-70.72805786132812,138.46507263183594,-1.0869674682617188,-4.670122146606445,-9.590736389160156,-57.80046463012695,-44.93359375,-121.80093383789062,-3.73374605178833,7.070148468017578,-7.731017112731934,27.193925857543945,0.9054142832756042,166.0565643310547,4.791975021362305,-1.8576714992523196,-3.388784885406494,160.4482421875,-73.384033203125,111.5283203125,2.595645904541016,0.2327328622341156,-6.646370887756348
2363.275726556778,156.49183654785156,-20.476709365844727,-89.82706451416016,-6.46942138671875,-5.052593231201172,-19.745376586914062,-35.39175033569336,-69.95446014404297,146.32577514648438,1.6893701553344729,7.277332305908203,-11.7840576171875,-59.10539627075195,-53.88738250732422,-131.63363647460938,0.1630682945251464,5.769630432128906,-6.369117736816406,22.959861755371094,7.4490437507629395,160.11302185058594,5.353041648864746,-4.307069778442383,-5.425754547119141,156.1554412841797,-73.18399047851562,114.35755920410156,0.7318265438079834,-0.1458165347576141,-10.719106674194336
2363.305723428726,153.9685821533203,-31.75929069519043,-89.27861022949219,-5.70748233795166,-7.680829048156738,-16.937740325927734,-43.222599029541016,-70.82002258300781,152.42379760742188,-2.821009635925293,4.003772735595703,-0.1344594955444336,-58.57077026367188,-61.192832946777344,-140.69825744628906,2.986110210418701,7.569313049316406,-4.405989646911621,22.96430778503418,11.49984645843506,155.9057159423828,4.5397491455078125,-5.983932495117188,-5.938071250915527,150.56130981445312,-73.30564880371094,117.10523223876952,-0.2357767820358276,1.2942945957183838,-10.15126609802246
2363.334825515747,151.3350830078125,-46.086727142333984,-87.34513854980469,-2.8642916679382324,-7.516218185424805,-7.719199180603027,-52.07537078857422,-72.14722442626953,161.69740295410156,-9.710077285766602,-7.722945213317871,-4.047720909118652,-52.74107360839844,-66.82809448242188,-150.4879608154297,4.628044128417969,4.725040435791016,-4.580373764038086,25.227275848388672,14.3915433883667,155.79241943359375,1.426011562347412,0.2317435443401336,-6.058343887329102,144.1023712158203,-73.90959167480469,119.99242401123048,-0.509361982345581,0.3231050372123718,-10.01801300048828
2363.36535859108,147.12403869628906,-62.83090972900391,-83.06680297851562,0.1152607053518295,-5.557947158813477,4.925824165344238,-68.46751403808594,-72.88298034667969,176.0113067626953,-8.084432601928711,0.8875300884246826,0.258427619934082,-49.94125747680664,-69.58531951904297,-158.44834899902344,2.16387939453125,1.434783697128296,-6.175932884216309,32.75113296508789,16.968048095703125,161.1280059814453,-0.402190089225769,0.1338513493537902,-9.99793815612793,138.30979919433594,-74.20854187011719,122.61840057373048,0.2522764205932617,0.1579305231571197,-9.248210906982422
2363.395354986191,131.73826599121094,-78.70814514160156,-65.18632507324219,5.112494468688965,4.917961120605469,12.810911178588867,-77.377197265625,-71.7430419921875,-175.9592742919922,-3.1449460983276367,6.452038764953613,5.21550178527832,-53.064849853515625,-70.00404357910156,-162.64007568359375,6.620294570922852,3.517024040222168,-3.0412511825561523,40.314598083496094,18.163105010986328,172.09031677246094,-5.966492652893066,-6.622078895568848,-16.013797760009766,136.27938842773438,-74.1763916015625,122.33159637451172,-0.649657130241394,-1.436148166656494,-5.012420654296875
2363.425369977951,55.6108512878418,-82.91795349121094,18.575498580932617,4.693982124328613,16.061256408691406,8.688484191894531,-77.94564056396484,-70.17643737792969,-175.91702270507812,-6.508475303649902,4.367623329162598,8.370328903198242,-55.03596878051758,-70.49783325195312,-163.93800354003906,8.666984558105469,1.7886221408843994,-1.2399587631225586,41.746559143066406,16.922327041625977,-172.7459259033203,-23.4138298034668,-20.548328399658203,-17.636581420898438,139.2072296142578,-74.49560546875,119.80583953857422,-1.489840745925903,-0.5833184719085693,1.0678510665893557
2363.485897064209,36.23686599731445,-78.7328872680664,40.53939437866211,-4.603364944458008,32.37681579589844,-10.526273727416992,-72.91023254394531,-68.64912414550781,179.40084838867188,-7.448711395263672,2.8160786628723145,5.987245559692383,-60.34651947021485,-71.86962127685547,-160.0048065185547,7.671003341674805,0.4145200252532959,0.3800506591796875,34.683345794677734,18.55333137512207,-160.50082397460938,-21.985183715820312,-0.9389539957046508,-14.745927810668944,146.213623046875,-74.90888214111328,114.4450225830078,6.69705867767334,-0.1394917368888855,10.27680778503418
2363.514991044998,52.30642318725586,-79.50480651855469,20.721933364868164,13.841926574707031,8.423328399658203,-0.9570188522338868,-61.40694808959961,-66.5286636352539,171.08169555664062,-7.15986442565918,-1.0163178443908691,6.208890914916992,-70.44481658935547,-73.13776397705078,-150.89242553710938,4.454636573791504,-4.751033782958984,10.012718200683594,55.48378372192383,22.4746208190918,-165.2464141845703,21.79747772216797,-2.576222896575928,-7.363987922668457,152.1922149658203,-75.33592224121094,108.64291381835938,10.920051574707031,0.0408572182059288,9.622907638549805
2363.54553604126,88.41806030273438,-80.15118408203125,-15.756929397583008,10.102899551391602,-4.835108757019043,7.368810653686523,-47.43798828125,-62.871429443359375,164.04684448242188,-8.314153671264648,-1.5044779777526855,-5.170146942138672,-77.76245880126953,-74.4607925415039,-142.3463897705078,1.7262868881225586,-12.714962005615234,13.98114776611328,66.64543151855469,24.73316764831543,-179.46624755859375,-12.59921646118164,-12.24229621887207,-2.5630788803100586,157.47509765625,-75.69529724121094,103.63035583496094,0.7154626846313477,1.8920540809631348,5.213781356811523
2363.575689315796,112.19032287597656,-79.56681060791016,-39.64818572998047,5.525802612304688,-10.884611129760742,2.4665403366088867,-42.886837005615234,-61.386837005615234,167.47279357910156,-21.35342788696289,14.690153121948242,-12.158672332763672,-82.85535430908203,-76.52154541015625,-135.09500122070312,-1.43072772026062,-8.980207443237305,8.319345474243164,63.95595169067383,23.637067794799805,163.87710571289062,-10.63519287109375,-7.8994951248168945,-10.239887237548828,163.1935577392578,-75.44695281982422,100.5750732421875,-2.8370189666748047,0.1858898997306823,2.718785285949707
2363.6056892871857,125.8635025024414,-79.85631561279297,-54.020263671875,-8.553955078125,2.8145923614501958,6.479001998901367,-50.7787971496582,-64.48629760742188,-177.66329956054688,-29.52855682373047,11.726783752441406,-10.15023422241211,-88.29364776611328,-78.25102233886719,-125.09262084960938,-0.2628073096275329,-2.0733156204223637,3.544164657592773,61.18097686767578,18.756149291992188,149.96713256835938,0.0002664553467184,-8.932245254516602,-5.429426193237305,168.90213012695312,-75.19964599609375,99.84988403320312,-1.8654139041900637,-2.8836259841918945,-1.8426218032836916
2363.635704278946,141.53343200683594,-79.05853271484375,-66.91009521484375,-2.8165202140808105,-1.2709832191467283,0.3186330795288086,-70.65311431884766,-68.72518920898438,-152.39537048339844,-18.433082580566406,3.8902668952941895,-6.500811576843262,-91.34828186035156,-78.23828125,-115.88114166259766,-3.425401210784912,2.292318820953369,-2.2353687286376958,58.07509231567383,10.490065574645996,138.13320922851562,2.5259451866149902,-8.37266731262207,-12.878110885620115,173.4907684326172,-74.25045776367188,100.47473907470705,-1.7493903636932373,-0.62312912940979,-6.311347961425781
2363.6652388572693,156.43801879882812,-78.08001708984375,-79.58609008789062,2.1824121475219727,-0.0017485418356955,-0.7214937210083008,-94.29840850830078,-70.193603515625,-122.736328125,-7.270812034606934,0.0457000136375427,-9.97321319580078,-91.37873077392578,-76.45999145507812,-110.74696350097656,-6.540596961975098,4.749247550964356,-5.402261734008789,55.93880462646485,-0.1503787487745285,126.794677734375,2.5600357055664062,-2.5076966285705566,-12.138288497924805,175.19985961914062,-72.94145202636719,102.6396942138672,-0.7696285247802734,1.195940017700195,-4.57666015625
2363.6952390670776,165.3346710205078,-76.05297088623047,-86.0851821899414,2.4995274543762207,0.2801830768585205,0.6694421768188477,-119.11514282226562,-68.47328186035156,-94.7744598388672,-1.4619390964508057,-0.3902952075004577,-13.845785140991213,-90.55901336669922,-75.1927490234375,-109.6667938232422,-7.237580299377441,4.176523208618164,-3.8696694374084473,59.20112991333008,-9.658913612365724,115.16055297851562,13.745006561279297,8.41435432434082,-13.69017219543457,175.05335998535156,-72.11951446533203,104.7619171142578,0.2930183410644531,1.8753530979156492,2.163968086242676
2363.725253343582,170.9363250732422,-73.72456359863281,-87.99384307861328,-0.8126295804977417,0.7742716073989868,0.6003608703613281,-140.3099822998047,-65.01139068603516,-74.30278015136719,-0.4099463820457458,-0.2757880687713623,-13.532442092895508,-90.83493041992188,-75.00537872314453,-111.07688903808594,-6.603160858154297,5.952640533447266,-1.6866073608398438,80.25275421142578,-17.37868881225586,105.30113983154295,9.465167999267578,4.236379623413086,-20.41593170166016,175.7223358154297,-71.16975402832031,105.87299346923828,-4.418296813964844,4.121866226196289,4.367958068847656
2363.7857723236084,175.73468017578125,-72.00836181640625,-90.20236206054688,-1.1198980808258057,0.5522028207778931,1.140376091003418,-157.9772186279297,-62.457763671875,-59.73231506347656,1.3429138660430908,-1.0588386058807373,-9.834220886230469,-91.961181640625,-74.93130493164062,-112.37689971923828,-4.349234580993652,5.044803619384766,0.3366298675537109,106.9004364013672,-25.27384757995605,95.53700256347656,-4.515978813171387,-9.243764877319336,14.357782363891602,175.8024444580078,-70.20909881591797,106.688232421875,-1.7259669303894043,2.2329797744750977,2.696488380432129
2363.815772771836,179.49435424804688,-71.24678039550781,-93.08583068847656,-1.171720027923584,0.7260266542434692,0.8977279663085938,-174.90794372558594,-62.205223083496094,-46.805938720703125,1.2546439170837402,-0.897850513458252,-4.771854400634766,-92.28561401367188,-74.04747772216797,-114.81732177734376,-1.3380842208862305,2.701025009155273,2.8473424911499023,120.7883758544922,-29.993453979492188,82.8973617553711,9.759103775024414,-5.811318397521973,2.1180553436279297,174.88711547851562,-69.97429656982422,108.0280532836914,-1.0230355262756348,1.2721529006958008,-1.3971443176269531
2363.845321655273,-177.47927856445312,-71.01344299316406,-96.37804412841795,-0.0661763697862625,-0.9150159358978271,0.0663175582885742,169.5248260498047,-64.80304718017578,-32.326175689697266,9.137306213378906,-3.594069004058838,0.622502326965332,-89.91847229003906,-71.89192199707031,-120.64325714111328,-1.2263762950897217,2.767299175262451,0.6906642913818359,138.7190399169922,-34.413818359375,68.29855346679688,7.3384599685668945,-0.0562202110886573,1.809321403503418,171.4328155517578,-69.85813903808594,111.03396606445312,-1.1936790943145752,1.324641227722168,-4.046600341796875
2363.875321626663,-174.87791442871094,-70.53070068359375,-99.37351989746094,-0.5892744064331055,-1.459072828292847,-0.5457086563110352,159.6380157470703,-68.98096466064453,-15.48792552947998,-24.451045989990234,44.72799682617188,30.771678924560547,-86.36426544189453,-69.00472259521484,-129.47235107421875,-0.954430103302002,-5.034795761108398,-2.946551322937012,156.3310089111328,-40.08295822143555,51.35930633544922,19.405235290527344,-3.5051631927490234,9.71906852722168,166.62110900878906,-69.41534423828125,114.31878662109376,-0.2405564785003662,0.8563028573989868,-4.547654151916504
2363.9053213596344,-174.76914978027344,-69.04129791259766,-100.53044891357422,0.9863369464874268,-2.1953487396240234,-0.8424148559570312,157.8343048095703,-70.49382019042969,-11.834839820861816,17.42925262451172,-10.934576034545898,-6.676019668579102,-79.22615814208984,-65.88951873779297,-140.3020477294922,0.5396252870559692,-0.8257441520690918,-4.696086883544922,164.8347930908203,-47.62941360473633,31.070858001708984,15.784801483154297,3.4903836250305176,12.856592178344728,162.72560119628906,-69.29190063476562,116.39130401611328,0.193039983510971,0.1937120854854583,-4.107490539550781
2363.935343503952,-177.74984741210938,-66.28628540039062,-98.71312713623048,2.843231678009033,-3.952142238616944,-0.8290739059448242,152.58612060546875,-71.9799575805664,-9.715510368347168,8.30211067199707,0.0069139264523983,12.664533615112305,-75.97222137451172,-61.40319061279297,-148.1009521484375,3.3621301651000977,1.5183498859405518,-1.5299396514892578,164.75341796875,-52.99592971801758,11.348586082458496,17.58694076538086,-3.528965950012207,14.491277694702148,159.72117614746094,-70.0999526977539,117.55157470703124,2.000847816467285,1.3453640937805176,-3.2731337547302246
2363.9658823013306,178.5403594970703,-62.490821838378906,-94.47472381591795,-1.3169450759887695,0.9422105550765992,-1.675006866455078,152.25894165039062,-72.8932113647461,-13.899225234985352,9.12371826171875,4.036250114440918,14.416839599609377,-72.22590637207031,-55.51133728027344,-155.2329864501953,3.5653982162475586,-1.365363836288452,2.5814905166625977,153.65475463867188,-53.542083740234375,7.124871730804443,18.537353515625,23.478553771972656,-7.877763748168945,155.66404724121094,-71.71631622314453,120.47288513183594,-3.2121477127075195,0.9509637355804444,1.2565078735351562
2363.9958736896515,175.84335327148438,-58.312747955322266,-90.43753814697266,-1.8479349613189695,-1.1946229934692385,1.5643863677978516,159.18836975097656,-72.12042236328125,-20.52254676818848,-5.988048553466797,-8.6943359375,16.5562744140625,-70.04740142822266,-47.43922424316406,-161.31179809570312,4.417648315429688,-2.507991313934326,8.567642211914062,160.01707458496094,-54.743743896484375,9.49708652496338,11.931669235229492,10.075664520263672,3.7476511001586914,150.5143585205078,-72.81645965576172,126.48780822753906,-6.488716125488281,0.3948155045509338,2.413330078125
