Timestamp,D4:22:CD:00:05:5D_EulerX,D4:22:CD:00:05:5D_EulerY,D4:22:CD:00:05:5D_EulerZ,D4:22:CD:00:05:5D_FreeAccX,D4:22:CD:00:05:5D_FreeAccY,D4:22:CD:00:05:5D_FreeAccZ,D4:22:CD:00:05:5E_EulerX,D4:22:CD:00:05:5E_EulerY,D4:22:CD:00:05:5E_EulerZ,D4:22:CD:00:05:5E_FreeAccX,D4:22:CD:00:05:5E_FreeAccY,D4:22:CD:00:05:5E_FreeAccZ,D4:22:CD:00:05:6B_EulerX,D4:22:CD:00:05:6B_EulerY,D4:22:CD:00:05:6B_EulerZ,D4:22:CD:00:05:6B_FreeAccX,D4:22:CD:00:05:6B_FreeAccY,D4:22:CD:00:05:6B_FreeAccZ,D4:22:CD:00:05:6E_EulerX,D4:22:CD:00:05:6E_EulerY,D4:22:CD:00:05:6E_EulerZ,D4:22:CD:00:05:6E_FreeAccX,D4:22:CD:00:05:6E_FreeAccY,D4:22:CD:00:05:6E_FreeAccZ,D4:22:CD:00:49:AA_EulerX,D4:22:CD:00:49:AA_EulerY,D4:22:CD:00:49:AA_EulerZ,D4:22:CD:00:49:AA_FreeAccX,D4:22:CD:00:49:AA_FreeAccY,D4:22:CD:00:49:AA_FreeAccZ
2282.582094669342,-178.8994903564453,-62.04511642456055,-127.53803253173828,-0.9687560796737672,1.2982547283172607,1.031452178955078,-141.2131805419922,26.818538665771484,81.10233306884766,9.223777770996094,16.055644989013672,-8.499643325805664,-36.21921157836914,0.735902726650238,-153.80458068847656,-6.511521339416504,-2.8687291145324707,15.236766815185549,47.899662017822266,-51.18952178955078,-111.46475219726562,-5.621273994445801,-16.20233917236328,8.779064178466797,141.2851104736328,-73.0400619506836,140.3318634033203,-0.5482596158981323,-2.4033236503601074,3.806556701660156
2282.5850944519043,-177.9109344482422,-61.13199615478516,-128.01077270507812,0.7053353786468506,0.1948995888233184,0.9026174545288086,-140.5439910888672,31.00469398498535,81.32227325439453,1.1995532512664795,7.7706403732299805,-7.266490936279297,-19.85602569580078,17.143259048461914,-152.2870330810547,-11.724437713623049,4.303108215332031,7.169771194458008,47.94319534301758,-42.312347412109375,-105.27072143554688,2.620894432067871,-12.211339950561523,-0.276432991027832,139.36312866210938,-72.63619232177734,141.80307006835938,0.078304186463356,0.4656228423118591,4.772823333740234
2282.665791511536,-154.273193359375,-67.05081939697266,-148.34689331054688,1.1182456016540527,2.3772940635681152,0.7070884704589844,-132.03094482421875,-81.22114562988281,-40.07632446289063,-1.7363381385803225,0.1677114367485046,6.046320915222168,-81.21644592285156,12.640609741210938,-82.24374389648438,3.099123001098633,-0.8298016786575317,23.96521759033203,125.80233001708984,-67.56990814208984,16.880205154418945,-2.55924129486084,-2.0531530380249023,6.072481155395508,-112.19100952148438,-61.821136474609375,22.602922439575195,5.379025459289551,-1.2264344692230225,0.1558971405029297
2282.696791410446,-161.4988555908203,-64.47305297851562,-140.46263122558594,-1.0661702156066897,2.6242265701293945,0.7279777526855469,-154.1405487060547,-78.39510345458984,-16.220375061035156,-0.8314163684844971,0.7489831447601318,0.4074916839599609,-65.2004165649414,30.67093086242676,-73.57907104492188,5.529274940490723,-14.638324737548828,17.761474609375,119.39176177978516,-63.2768669128418,26.995269775390625,-2.0043845176696777,-2.382600784301758,3.396134376525879,-129.99656677246094,-70.09273529052734,41.0880126953125,10.13807487487793,-1.235157489776611,3.5835886001586914
2282.725790977478,-166.7707977294922,-63.13715744018555,-134.71319580078125,-1.6503231525421145,2.335082530975342,0.8230314254760742,-153.29537963867188,-76.87788391113281,-19.719470977783203,-0.1401336193084716,1.627882957458496,-3.624326229095459,-46.8886833190918,35.826454162597656,-58.18404006958008,1.6769280433654783,-14.612239837646484,10.099393844604492,110.08990478515624,-57.86904525756836,42.3209228515625,-0.8986274003982544,-1.7016305923461914,-3.1518921852111816,-170.4044189453125,-74.77400207519531,80.89292907714844,2.778944492340088,2.5950498580932617,3.0577878952026367
2282.786333799362,-170.22169494628906,-62.93072128295898,-130.7684783935547,-0.319328248500824,1.8055729866027832,1.137650489807129,-143.4534149169922,-78.04905700683594,-33.41060256958008,0.3820664882659912,1.987506866455078,-4.842822074890137,-31.895307540893555,35.668052673339844,-42.13139343261719,-4.746167182922363,-14.251235961914062,4.464836120605469,103.80364990234376,-57.9947395324707,55.09241485595703,-1.5043375492095947,-2.29482650756836,-5.5789079666137695,170.29412841796875,-75.28622436523438,100.0823974609375,-3.0394182205200195,2.5444588661193848,4.236764907836914
2282.8163347244263,-172.6428680419922,-63.87710571289063,-127.71540069580078,0.444867193698883,1.6630558967590332,1.3138046264648438,-108.81184387207033,-80.88611602783203,-68.86500549316406,0.3471924066543579,2.446920871734619,-4.381918907165527,-19.63032531738281,34.593746185302734,-31.18195533752441,-9.198186874389648,-11.380250930786133,-4.070889472961426,96.56966400146484,-61.84580612182617,69.14051055908203,-2.00129508972168,-3.7770180702209473,-4.883237838745117,171.13201904296875,-76.56863403320312,100.74852752685548,-4.017825126647949,2.557145595550537,2.877621650695801
2282.84588599205,-174.73556518554688,-65.78450012207031,-124.97615051269533,0.6006320714950562,1.3252298831939695,0.9184675216674804,-48.22715759277344,-78.15686798095703,-126.52678680419922,-3.463541984558105,-0.6356456279754639,-6.395431518554688,-10.837945938110352,34.27305603027344,-25.420143127441406,-10.153209686279297,-7.668395042419434,-8.026559829711914,83.55241394042969,-67.44181823730469,88.17002868652344,-3.0737099647521973,-4.7517194747924805,-3.915365695953369,-177.95777893066406,-78.01468658447266,93.12418365478516,-1.6041772365570068,2.108903408050537,0.66143798828125
2282.876155614853,-176.20944213867188,-68.28111267089844,-122.63864135742188,-1.1397578716278076,1.078143835067749,0.3453493118286133,-20.094125747680664,-70.2567367553711,-151.7268829345703,-7.983099937438965,-3.1719741821289062,-7.672967910766602,-3.379242420196533,35.98173141479492,-24.161357879638672,-7.215641975402832,-3.827014923095703,-11.44634246826172,61.39508819580078,-72.70369720458984,115.10796356201172,-2.803257942199707,-4.746561050415039,-4.597630500793457,-165.2600555419922,-78.95785522460938,84.01421356201172,0.585106372833252,1.7392332553863523,-1.4444427490234375
2282.9065165519714,-176.9114990234375,-71.0448226928711,-121.57102966308594,-2.549971103668213,1.410122632980347,0.0729475021362304,-14.316472053527832,-63.44683074951172,-161.8489990234375,-11.074443817138672,-6.949406623840332,-8.150236129760742,2.9114089012146,39.4835205078125,-27.06644630432129,-3.4048638343811035,0.4888882637023926,-12.718194961547852,30.01568984985352,-75.42269134521484,150.86553955078125,-2.32771635055542,-6.656365394592285,-3.770158290863037,-156.0569610595703,-79.6753158569336,77.85547637939453,1.165538311004639,1.3529314994812012,-3.2595415115356445
2282.936532020569,-177.3972930908203,-74.04034423828125,-122.00465393066406,-1.5337185859680176,-0.1348033249378204,-0.5341167449951172,-19.695037841796875,-60.04071807861328,-167.80870056152344,-18.69673538208008,-6.829615592956543,-11.327459335327148,6.980045318603516,43.645416259765625,-33.60074996948242,-2.098905563354492,0.5378667116165161,-11.372434616088867,2.252008438110352,-75.24177551269531,-177.91665649414062,-2.245205879211426,-10.289239883422852,-4.260002136230469,-149.21359252929688,-80.48704528808594,73.22320556640625,0.2224973142147064,1.096282958984375,-4.054697036743164
2282.966070413589,-177.1000213623047,-77.17243957519531,-123.2788543701172,-1.3710360527038574,0.3230767846107483,-0.07537841796875,-30.360410690307617,-61.77214813232422,-167.3243865966797,-28.7811279296875,4.357248306274414,-14.62046241760254,8.653275489807129,47.347129821777344,-43.909786224365234,0.0253602266311645,4.276527404785156,-11.944604873657228,-18.35871124267578,-74.95384979248047,-156.69505310058594,-0.8674125671386719,-9.660507202148438,-6.89317512512207,-142.07830810546875,-81.57725524902344,67.81478881835938,-1.494307279586792,0.3435538411140442,-4.066596031188965
2282.9960696697235,-176.0639190673828,-80.72982025146484,-126.11279296875,-0.9494054317474364,1.352884292602539,0.905487060546875,-37.84967803955078,-68.543212890625,-164.32611083984375,-10.719688415527344,-14.76585578918457,-5.950351715087891,0.31543630361557,48.62778472900391,-57.75590133666992,10.399682998657228,12.453094482421877,-10.244993209838867,-35.69261932373047,-74.89334106445312,-139.5043182373047,0.4642181992530823,-6.895389556884766,-5.083257675170898,-133.7986297607422,-82.63531494140625,60.91917419433594,-1.468862533569336,-0.050505094230175,-4.605466842651367
2283.0558478832245,-178.2403564453125,-83.90497589111328,-125.40060424804688,3.2790169715881348,-5.0087080001831055,-5.037840843200684,-32.94135665893555,-74.33104705810547,-168.61489868164062,0.3101959228515625,-6.156414031982422,1.3643312454223633,-24.94744682312012,45.39307403564453,-74.59938049316406,2.491779327392578,1.524320363998413,-17.909866333007812,-47.696720123291016,-73.74740600585938,-125.39895629882812,0.8257839679718018,-6.347869873046875,-3.10994815826416,-128.0382537841797,-83.35272979736328,55.773414611816406,-0.6787991523742676,-1.3162624835968018,-3.679751873016357
2283.0859208106995,165.92776489257812,-84.4183349609375,-109.05303955078124,-2.087442398071289,-3.451171875,0.2690801620483398,-24.9825439453125,-79.75957489013672,-176.32208251953125,-1.2879524230957031,-4.913057327270508,1.8114604949951167,-45.49210739135742,36.85824966430664,-90.8860855102539,-10.636100769042969,-14.86223030090332,-15.10549545288086,-53.20426559448242,-71.00769805908203,-115.11188507080078,0.556064248085022,-8.065601348876953,-0.3217391967773437,-125.9504623413086,-84.19566345214844,52.63093566894531,0.4450254440307617,-0.2601543068885803,4.41190242767334
2283.115920305252,150.82225036621094,-83.69398498535156,-94.65593719482422,-0.6324964761734009,1.8418376445770264,0.7461452484130859,-20.64708137512207,-85.0300064086914,176.97808837890625,1.2950425148010254,0.9069168567657472,5.231967926025391,-44.75396347045898,25.25723648071289,-101.95974731445312,-1.410862684249878,-4.497425079345703,-5.966331481933594,-54.80150604248047,-68.57865905761719,-108.19644927978516,2.223902702331543,-10.702741622924805,0.0910453796386718,-120.95785522460938,-85.82908630371094,44.61784744262695,0.5016522407531738,-2.2638750076293945,1.6846389770507812
2283.146464586258,133.92503356933594,-82.73104858398438,-78.46871948242188,0.7396177053451538,0.1271571815013885,-0.3048048019409179,76.6454086303711,-89.37568664550781,77.66693878173828,-0.7081133127212524,2.75394058227539,3.718164443969727,-43.7706298828125,21.33074188232422,-102.5200653076172,6.551717758178711,1.164794683456421,-5.235906600952148,-56.190677642822266,-68.66471099853516,-103.55209350585938,4.076277732849121,-8.14790153503418,0.068368911743164,-117.2680892944336,-86.26897430419922,39.07915496826172,-2.004077434539795,-2.2897915840148926,-2.965534210205078
2283.176465034485,121.22345733642578,-80.96076202392578,-66.24673461914062,-0.8524219989776611,-0.6856350898742676,0.3475074768066406,141.60191345214844,-85.47126007080078,10.93895149230957,-4.837728500366211,-0.6501245498657227,-1.4552688598632812,-39.12030792236328,24.06859397888184,-95.10397338867188,-8.9306640625,-9.848114013671877,9.619802474975586,-61.04047775268555,-70.03479766845703,-98.41804504394533,4.578150749206543,-8.338178634643555,1.991596221923828,-119.2584228515625,-86.25383758544922,39.84489059448242,-1.153244972229004,-1.9728374481201167,0.0665884017944336
2283.206464529037,112.81507110595705,-78.65115356445312,-59.43600463867188,0.1174198389053344,-1.317920207977295,1.3117799758911133,137.1199493408203,-82.24723815917969,14.927812576293944,-1.693446159362793,1.444542407989502,2.3477907180786133,-25.399065017700195,28.614885330200195,-82.63218688964844,-2.3061985969543457,-9.22291374206543,-4.71370792388916,-68.84740447998047,-71.5985107421875,-94.54254913330078,2.1592750549316406,-5.8788042068481445,2.177396774291992,-128.13511657714844,-85.74329376220703,46.91875457763672,2.365072250366211,-1.6096413135528564,-0.2728176116943359
2283.236475944519,109.26873016357422,-76.01006317138672,-57.94652557373047,-1.2970962524414062,-3.253530979156494,4.147238731384277,134.35072326660156,-79.62599182128906,17.505573272705078,-1.9241087436676023,1.248084306716919,0.7898530960083008,-16.070249557495117,30.56576538085937,-65.57392120361328,-7.469954490661621,-8.202341079711914,2.560344696044922,-75.84968566894531,-72.78009796142578,-92.54872131347656,1.69405198097229,1.3798813819885254,0.674957275390625,-140.63710021972656,-84.30099487304688,57.52730941772461,3.614866256713867,0.398074746131897,-2.2217884063720703
2283.2662518024445,108.59657287597656,-73.4097900390625,-60.05720520019531,0.083021655678749,-5.508235931396484,4.813286781311035,132.63623046875,-77.79727935791016,18.776145935058597,-2.2493338584899902,-0.0850091278553009,0.3679475784301758,-1.7795711755752563,28.6550235748291,-49.0369758605957,-7.494863510131836,-3.205350399017334,-1.3485393524169922,-77.3158950805664,-73.55516815185547,-93.5199203491211,0.7549763917922974,0.8485453128814697,-0.8772897720336914,-150.9797821044922,-82.95539093017578,66.63286590576172,2.5177788734436035,1.023841381072998,0.3346128463745117
2283.2962510585785,113.98739624023438,-69.73798370361328,-67.71060943603516,12.687255859375,10.380075454711914,6.377309799194336,131.593505859375,-77.20960998535156,19.35458374023437,-2.1914072036743164,-0.058605320751667,0.2913484573364258,15.710627555847168,24.190404891967773,-32.91317367553711,4.643071174621582,3.6795148849487305,-5.23398494720459,-74.51347351074219,-74.46698760986328,-97.3476791381836,-4.4068603515625,-2.424297332763672,1.8170232772827148,-155.72732543945312,-81.75059509277344,71.46951293945312,0.1400482952594757,0.2222894430160522,4.472614288330078
2283.355798721313,127.33712005615234,-62.06161880493164,-81.98001098632812,18.870769500732425,11.07984733581543,6.868265151977539,131.30165100097656,-77.13267517089844,18.988712310791016,-1.5153093338012695,0.6387039422988892,-0.2655725479125976,24.03694725036621,18.312074661254883,-16.932069778442383,9.91456413269043,15.356952667236328,-1.0100431442260742,-70.3992691040039,-75.73688507080078,-102.21006774902344,-5.373871803283691,-2.431333065032959,2.65908145904541,-154.9579315185547,-81.80106353759766,72.5638656616211,1.8282220363616943,0.5544064044952393,2.51919174194336
2283.385797023773,138.3567657470703,-52.53270721435547,-95.8302230834961,9.765851974487305,4.889355659484863,2.624988555908203,130.85775756835938,-77.0356674194336,19.04762458801269,-0.8786071538925171,1.4165279865264893,-0.0695161819458007,22.479381561279297,12.213533401489258,-2.2327256202697754,1.087942600250244,14.899227142333984,-0.802668571472168,-64.2922134399414,-77.23407745361328,-107.43807220458984,-3.781484603881836,-1.175971508026123,0.449589729309082,-154.00636291503906,-82.44680786132812,73.57250213623047,5.412137985229492,2.266509532928467,1.1453895568847656
2283.4157960414886,142.88638305664062,-42.8175163269043,-106.8011703491211,1.287057638168335,-0.3228666186332702,-4.241512298583984,130.51768493652344,-76.69920349121094,19.355270385742188,-0.7127653360366821,0.9472362995147704,-0.2295503616333007,13.425049781799316,6.542893409729004,10.055120468139648,-4.439604759216309,14.050893783569336,-6.421712875366211,-55.23546600341797,-78.9024658203125,-113.24510955810548,-3.688483238220215,-1.647296905517578,-1.067397117614746,-156.31182861328125,-82.75345611572266,76.82562255859375,3.879525184631348,2.1295604705810547,0.0252771377563476
2283.4463455677032,145.51792907714844,-33.90819549560547,-114.4463348388672,-2.500344753265381,-0.3384609818458557,-9.063695907592772,132.2205352783203,-76.17210388183594,18.08063507080078,-1.354527235031128,-0.0954484045505523,-0.8467559814453125,-1.4047954082489014,1.402568817138672,18.60623550415039,-4.944578170776367,7.228269577026367,-11.36802101135254,-44.660736083984375,-80.48058319091797,-119.87071990966795,-3.227468013763428,-1.6383075714111328,-2.6629152297973637,-160.09327697753906,-83.01809692382812,80.95928192138672,1.205068826675415,0.6636247634887695,-1.6165781021118164
2283.476344347,148.81752014160156,-26.578977584838867,-120.21134185791016,-0.3603862524032593,-0.108058825135231,-11.013639450073242,136.9557647705078,-75.38237762451172,14.028446197509766,-1.0808355808258057,-0.1672527194023132,-0.5897445678710938,-15.09029769897461,-2.2259953022003174,23.30289649963379,0.8425798416137695,-6.4206743240356445,-8.009475708007812,-34.10528564453125,-81.62468719482422,-127.18383026123048,-1.4119961261749268,-2.000826835632324,-3.477659225463867,-162.21270751953125,-82.98295593261719,83.56529235839844,0.9281612634658812,0.2398504018783569,-1.0672941207885742
2283.5063445568085,153.57620239257812,-21.17291641235352,-125.16944885253906,-1.2616527080535889,-0.1897622048854828,-9.530866622924805,143.03805541992188,-74.26341247558594,8.579139709472656,-2.343847274780273,-0.2886661887168884,-0.7116928100585938,-22.726133346557617,-5.06623649597168,25.02436637878418,-1.830841064453125,-4.145855903625488,-6.729138374328613,-23.45670318603516,-82.26447296142578,-135.3953094482422,0.1498193144798278,-2.26370620727539,-3.4607577323913574,-163.79884338378906,-83.19403839111328,86.13587188720703,2.568216323852539,0.4877936244010925,-1.0309524536132812
2283.5363597869878,157.80648803710938,-18.622900009155277,-129.3453369140625,-2.360102653503418,-1.3611736297607422,-8.616851806640625,149.42098999023438,-72.97315216064453,2.285243034362793,-1.8333003520965576,-0.7130080461502075,-0.3867177963256836,-30.102338790893555,-9.55390167236328,24.37265014648437,-2.9252257347106934,-2.399360656738281,-9.53173828125,-12.792886734008787,-82.44617462158203,-143.9477081298828,0.6398206949234009,-2.926797866821289,-2.730656623840332,-167.25889587402344,-83.5225601196289,90.1841812133789,3.6762499809265137,1.0981166362762451,-3.126598834991455
2283.5658898353577,160.98190307617188,-19.471832275390625,-133.07275390625,-5.843701362609863,-3.062386512756348,-7.773906707763672,154.87448120117188,-71.55147552490234,-3.0856659412384038,-1.58050274848938,0.0945769399404525,0.0475997924804687,-39.01430892944336,-18.02654838562012,23.6175594329834,1.3150501251220703,-2.0597147941589355,-9.786581039428713,-4.069314956665039,-82.27008056640625,-150.54566955566406,1.9672398567199707,-3.1863503456115723,-1.0231361389160156,-174.87600708007812,-83.68128204345703,97.53914642333984,3.61713981628418,0.9725281000137328,-1.879811763763428
2283.5958828926086,161.62892150878906,-23.447492599487305,-136.05845642089844,-11.096012115478516,-4.478791236877441,-5.546355247497559,158.46685791015625,-70.21664428710938,-6.270025730133057,-2.05312728881836,1.0330407619476318,0.2682676315307617,-50.14304733276367,-31.797607421875,23.85459899902344,9.009737014770508,-2.141181945800781,-3.3194870948791504,3.8134264945983887,-81.53754425048828,-155.0564422607422,4.348520278930664,-4.911601066589356,0.714808464050293,176.6852264404297,-83.70783233642578,104.20975494384766,4.673192977905273,-0.3151100277900696,-0.7717485427856445
2283.6564116477966,162.0413818359375,-28.495458602905277,-137.21481323242188,-9.126720428466797,0.4269754290580749,18.80197525024414,159.80198669433594,-69.34109497070312,-7.1051836013793945,-1.9061639308929443,0.752754807472229,0.8053979873657227,-57.578121185302734,-51.403846740722656,22.70548820495605,21.72052383422852,8.687036514282227,40.71900939941406,13.556845664978027,-79.8855209350586,-163.4163360595703,6.564074516296387,-11.775409698486328,5.075228691101074,173.8173828125,-83.5035171508789,104.15446472167967,1.7769100666046145,-1.3655436038970947,-1.579880714416504
2283.6864099502563,163.358642578125,-27.86866950988769,-135.9588623046875,-9.906190872192385,-4.453222274780273,12.398536682128906,159.1145477294922,-68.93933868408203,-5.951158046722412,-1.859156847000122,1.5331323146820068,0.9287900924682616,-29.506319046020508,-65.00221252441406,2.9989326000213623,16.503955841064453,10.052572250366213,37.46147918701172,35.41604232788086,-75.5415267944336,173.2040252685547,5.838743209838867,-9.310049057006836,12.480182647705078,169.90191650390625,-82.7818603515625,106.83428192138672,-8.16273307800293,-0.2106126844882965,1.7764778137207031
2283.7164120674133,162.88095092773438,-25.42557907104492,-134.12408447265625,-11.163009643554688,-4.640325546264648,7.728038787841797,156.6325225830078,-69.21977233886719,-3.0261776447296143,-2.485379695892334,0.9289335012435912,1.0001726150512695,-31.18511390686035,-63.20610809326172,4.6929192543029785,13.16518211364746,29.40502166748047,-1.750406265258789,49.7640495300293,-65.55559539794922,147.50204467773438,2.88715934753418,-16.382427215576172,23.25888061523437,164.1493377685547,-82.61536407470703,112.92683410644533,-3.7057833671569824,-3.0842113494873047,3.529879570007324
2283.745953798294,161.3070068359375,-20.132272720336918,-133.3391571044922,-11.061416625976562,-7.708130836486816,11.71021842956543,153.03639221191406,-70.32144165039062,0.8493635654449463,-2.828100204467773,0.2284187078475952,1.0794620513916016,-51.618255615234375,-51.10846328735352,14.787734031677246,11.40751838684082,-2.64232873916626,24.84786605834961,45.73507690429688,-49.705108642578125,132.5298309326172,6.171431541442871,-0.9693076610565186,25.44198608398437,167.397705078125,-82.20999145507812,111.41542053222656,4.007405281066895,1.723884105682373,5.026364326477051
2283.776954889297,158.63436889648438,-13.710905075073242,-133.51841735839844,-12.101940155029297,-5.144722938537598,9.305126190185549,147.99610900878906,-72.23029327392578,5.463709354400635,-2.62352991104126,0.355005145072937,1.7386884689331057,-48.0002326965332,-39.9627571105957,13.37898063659668,15.051315307617188,5.343673706054688,0.0279874801635742,38.31465530395508,-31.445566177368164,124.640380859375,-4.11784553527832,-4.381250381469727,16.275917053222656,169.08895874023438,-81.35455322265625,111.12469482421876,5.010119438171387,3.1252846717834477,4.099196434020996
2283.805954694748,156.05288696289062,-7.584320068359375,-133.5609588623047,-6.702807426452637,-3.3384337425231934,-0.4508733749389648,139.71653747558594,-74.50505828857422,13.59619426727295,-1.2275505065917969,-0.1415914297103881,3.655828475952149,-52.95182418823242,-31.980857849121094,11.297179222106934,5.878297805786133,-2.6014699935913086,-6.712368965148926,27.75922203063965,-14.448101043701172,117.73445892333984,-2.5669283866882324,4.322381019592285,3.8073501586914062,165.31326293945312,-81.24229431152344,114.57808685302734,1.6971383094787598,0.8117817640304565,5.038722038269043
2283.83596110344,155.2030792236328,-3.948536157608032,-133.218017578125,-5.190649032592773,1.260972023010254,-7.2336883544921875,127.60222625732422,-76.1862564086914,27.89580726623535,1.2734622955322266,1.9929068088531492,4.105609893798828,-58.89350509643555,-29.21134376525879,8.30794620513916,-3.013458728790283,-6.927898406982422,-4.00531005859375,16.505035400390625,-0.1669505536556244,112.28968048095705,0.3368480205535888,1.7659225463867188,-2.5388317108154297,162.98825073242188,-81.20672607421875,116.18025207519533,2.4343361854553223,0.3767228126525879,4.252996444702148
2283.8665041923523,154.54701232910156,-3.98006534576416,-132.3536376953125,-3.0253639221191406,3.266049385070801,-12.600555419921877,115.14271545410156,-77.35015869140625,42.81055068969727,0.2028743326663971,1.9575624465942385,-0.2662630081176758,-60.00724792480469,-31.71712875366211,4.776117324829102,-3.8689446449279785,-1.8777308464050293,-7.624963760375977,6.007505893707275,10.810192108154297,108.65117645263672,-1.0293049812316897,-2.354339122772217,-4.967352867126465,160.99952697753906,-81.58797454833984,117.80904388427734,2.501328945159912,1.2168591022491455,1.1510639190673828
2283.8965034484863,153.4894256591797,-8.181312561035156,-131.1512451171875,-3.8262839317321777,3.635995388031006,-16.526264190673828,100.9377670288086,-78.30877685546875,58.27512741088867,-1.6974689960479736,-0.655951976776123,-1.592698097229004,-62.56663131713867,-37.444618225097656,1.8234859704971316,-2.209505558013916,0.1334688067436218,-7.529295921325684,-4.621798038482666,18.530744552612305,106.05682373046876,-4.48936653137207,-7.591493606567383,-6.965998649597168,158.249755859375,-82.04814147949219,119.9743194580078,1.708364486694336,0.5689513683319092,-0.9707231521606444
2283.9560494422917,151.36959838867188,-16.28864288330078,-129.381103515625,-4.840909957885742,2.1166625022888184,-14.702728271484377,85.22572326660156,-78.82291412353516,74.71324157714844,-3.0000929832458496,-1.9556005001068115,-2.7749667167663574,-68.8273696899414,-44.96297836303711,-0.1863850653171539,-2.3639278411865234,-0.0656015872955322,-4.313140869140625,-14.471933364868164,23.851436614990234,106.6737060546875,2.3975234031677246,-3.281970977783203,-5.655411720275879,157.06971740722656,-82.38990783691406,120.5580825805664,1.131047248840332,-0.4897937774658203,-1.501230239868164
2283.9860424995422,146.99423217773438,-27.382516860961918,-126.86767578125,-3.722600936889648,-0.1017804145812988,-10.080299377441406,71.05014038085938,-78.63798522949219,90.61206817626952,-3.495992660522461,-0.2745519280433655,-4.499151229858398,-73.59403228759766,-53.83623123168945,-1.696078538894653,-4.041208267211914,1.2703042030334473,-2.873218059539795,-15.761143684387209,28.48339462280273,110.37507629394533,-3.9160985946655273,-2.456884860992432,-8.356884002685547,156.54637145996094,-82.81378936767578,121.07035064697266,1.1022849082946775,-0.0769071131944656,-2.7524490356445312
2284.0161340236664,141.47569274902344,-40.34084701538086,-122.8498992919922,-1.495292901992798,-2.9929895401000977,-5.006866455078125,61.495731353759766,-78.57650756835938,101.86750793457033,-3.237309455871582,-0.5151180028915405,-4.950794219970703,-78.88878631591797,-63.10021209716797,-1.996193051338196,-0.1362935304641723,3.122135162353516,-4.158631324768066,-14.756885528564451,32.927978515625,117.97469329833984,-2.234799385070801,1.585944652557373,-7.431597709655762,153.10911560058594,-83.16889953613281,124.08253479003906,1.666059494018555,0.4230559468269348,-4.63630485534668
2284.046684741974,132.63429260253906,-56.5177001953125,-115.07949829101562,-1.7385516166687012,-7.081317901611328,2.234556198120117,55.81729888916016,-79.30889129638672,107.36656951904295,-1.2866246700286863,-0.5887572765350342,-2.265963077545166,-91.06402587890624,-71.35667419433594,0.8318368196487427,-3.212268829345703,2.97660493850708,-1.783966064453125,-5.498523235321045,36.44644546508789,129.50827026367188,-3.4972567558288574,4.1072845458984375,-12.734228134155272,149.5373077392578,-83.40641021728516,127.07070922851562,1.0655789375305176,-0.3386089205741882,-4.613297462463379
2284.07568359375,112.8037338256836,-72.93575286865234,-95.20001983642578,8.108999252319336,-5.097824096679688,14.70253562927246,52.236602783203125,-80.9684066772461,109.35955047607422,0.323279321193695,0.1888675987720489,-0.6044416427612305,-107.9569854736328,-78.89949035644531,11.003584861755373,-4.163121223449707,3.729813098907471,-2.770404815673828,13.66706085205078,37.47646331787109,144.5611572265625,-14.354864120483398,7.595816612243652,-19.973751068115234,144.3601531982422,-83.87382507324219,132.28575134277344,-0.0310866832733154,-1.1101582050323486,-5.516667366027832
2284.1066839694977,63.96035003662109,-80.42443084716797,-41.74752807617188,15.035686492919922,8.794315338134766,12.694618225097656,47.68901824951172,-83.24273681640625,112.08259582519533,-0.6775522232055664,-0.0719869285821914,1.9691400527954104,-151.23080444335938,-83.8807373046875,50.14630126953125,-2.419707775115967,4.249147415161133,-3.616426467895508,40.94233703613281,36.665565490722656,156.0166778564453,-9.651357650756836,0.1823939383029937,-20.748031616210938,142.21119689941406,-84.4246597290039,135.5497283935547,0.5076555013656616,-2.5305428504943848,-6.476609230041504
2284.135698080063,45.62172317504883,-80.28150939941406,-16.31089210510254,16.960803985595703,10.375049591064451,-10.4293212890625,35.27182388305664,-85.60185241699219,123.90623474121094,-0.9780707359313964,-3.172668933868408,3.2276973724365234,150.50990295410156,-81.63975524902344,104.32416534423828,-1.6679582595825195,4.80214786529541,-1.4996223449707031,72.59353637695312,40.62837219238281,155.0933837890625,9.242076873779297,-3.8278770446777344,-8.297273635864258,148.20867919921875,-84.12710571289062,130.7147216796875,3.5894813537597656,-2.190804481506348,0.051243782043457
2284.166226863861,81.0821304321289,-80.59003448486328,-43.57577896118164,2.4403328895568848,2.8590312004089355,-2.319546222686768,-3.807807445526123,-87.51793670654297,163.1622314453125,0.7735874652862549,-3.385213851928711,4.314601898193359,129.97454833984375,-76.41099548339844,119.90410614013672,-3.424405097961426,5.458064079284668,2.95119571685791,82.9548568725586,44.627777099609375,147.5363311767578,-3.773245334625244,-5.743331909179688,2.9624481201171875,152.11441040039062,-83.4758071899414,125.60323333740234,2.800783157348633,-0.5790458917617798,1.2746362686157229
2284.196227788925,112.5118637084961,-79.49649810791016,-71.02641296386719,-3.46497106552124,-10.354768753051758,3.46929931640625,-72.81114196777344,-87.09916687011719,-126.44342803955078,-2.357754707336426,-7.335227966308594,4.206602096557617,123.85896301269533,-72.6524429321289,121.3008804321289,-4.240815162658691,7.7700700759887695,4.873881340026856,77.0115737915039,47.835968017578125,128.98280334472656,-7.422201156616211,-2.2141823768615723,-15.192174911499023,157.80726623535156,-82.80860137939453,119.06546783447266,0.6136738061904907,-2.29681396484375,0.4247331619262695
2284.255776166916,132.70521545410156,-76.92864990234375,-87.7367935180664,1.0833163261413574,-1.013838291168213,3.5843868255615234,-100.3348617553711,-85.59851837158203,-96.08051300048828,-13.015707015991213,-8.158697128295898,-1.453394889831543,128.2191162109375,-72.2335205078125,117.02425384521484,-5.077207565307617,9.828100204467772,4.056824684143066,69.34371185302734,46.62334060668945,106.40999603271484,-11.97934913635254,1.8413450717926023,-8.770191192626953,167.64590454101562,-81.22635650634766,109.9146728515625,-0.7124658823013306,-2.528534412384033,1.6983156204223633
2284.285777568817,145.38528442382812,-74.41507720947266,-98.45904541015624,0.417947769165039,-0.2998980283737182,4.311220169067383,-140.77098083496094,-81.63568878173828,-53.66713333129883,-21.822742462158203,-0.9617178440093994,3.857996940612793,146.7085418701172,-74.71131134033203,106.9552001953125,-3.652199268341065,5.233965873718262,5.092720985412598,58.85503005981445,40.50437545776367,86.51114654541016,-9.904096603393556,0.9592453241348268,-7.062413215637207,175.59640502929688,-79.9141845703125,103.85934448242188,-6.028714179992676,-0.9551794528961182,2.959312438964844
2284.3157773017883,154.5896453857422,-73.03649139404297,-104.42887115478516,-0.8054829835891724,3.17830753326416,0.7035322189331055,-161.6370086669922,-73.92327117919922,-32.134334564208984,-10.970956802368164,-2.006075382232666,1.4433088302612305,179.96002197265625,-77.1104507446289,84.43638610839844,0.7996256351470947,-0.1700332462787628,2.079797744750977,51.283485412597656,31.62342071533203,70.78324127197266,4.088255882263184,-1.6007225513458252,-8.129142761230469,-178.4518585205078,-79.01576232910156,100.73212432861328,-6.299293518066406,2.222179412841797,-1.7705364227294922
2284.3463196754456,162.8024444580078,-71.6214370727539,-107.97286987304688,-0.914603352546692,-2.271735191345215,2.4382619857788086,-169.34461975097656,-65.96051025390625,-21.534128189086918,-4.522665977478027,-0.266924500465393,-1.6837272644042969,-148.0087127685547,-75.84577941894531,59.22020721435547,2.0202531814575195,-0.2062658071517944,-0.7039604187011719,51.87952423095703,23.2818660736084,58.261112213134766,7.577425003051758,-4.237778663635254,-3.911364555358887,-174.42774963378906,-76.9742202758789,98.30096435546876,0.2053359746932983,2.7221717834472656,0.9106512069702148
2284.376319885254,168.3182830810547,-70.39860534667969,-112.29627227783205,1.4983234405517578,0.5193873643875122,0.502619743347168,-172.687744140625,-59.07985305786133,-13.427051544189451,-1.0835013389587402,1.2212543487548828,-6.551913261413574,-134.5038299560547,-73.43669128417969,47.7073860168457,-0.6202826499938965,-2.161216259002685,-1.744339942932129,58.56303405761719,16.618791580200195,48.40645980834961,7.493564605712891,-4.930379867553711,0.29412841796875,-173.84658813476562,-75.92644500732422,97.37725830078124,2.43021821975708,1.464876651763916,4.335694313049316
2284.406320333481,172.48806762695312,-69.86956787109375,-114.77326965332033,2.4540839195251465,-0.5255240201950073,0.6172504425048828,-176.15420532226562,-53.36345291137695,-5.411840915679932,-1.7758374214172363,0.7931698560714722,-8.497369766235352,-130.6954803466797,-72.79924011230469,44.60726165771485,-2.252309799194336,-2.5162510871887207,0.4634599685668945,69.52373504638672,10.524401664733888,41.647403717041016,7.027727127075195,-9.763189315795898,-3.657524108886719,-174.50038146972656,-75.71086883544922,97.46692657470705,-2.939037799835205,2.422515869140625,1.0030317306518557
2284.4363338947296,175.02847290039062,-69.8987045288086,-115.68702697753906,-2.5293188095092773,1.991450309753418,1.4098033905029297,-179.35133361816406,-48.86481094360352,3.3908514976501465,1.5836400985717771,2.563301086425781,-8.276330947875977,-128.2742919921875,-73.35169982910156,42.93066787719727,-0.049595296382904,-2.1087589263916016,1.004863739013672,81.55601501464844,3.147583484649658,37.17727279663086,-0.1469921767711639,1.0586516857147217,4.576655387878418,-173.6875,-75.74150085449219,96.4384307861328,-5.21915340423584,0.950809121131897,1.5581588745117188
2284.46587061882,177.24769592285156,-70.22085571289062,-117.58143615722656,-1.1183927059173584,1.6454575061798096,0.9281177520751952,179.347900390625,-45.83908081054688,11.51003360748291,3.038886070251465,3.7582039833068848,-7.631379127502441,-127.4256362915039,-73.41594696044922,40.09450912475586,0.1411218345165252,0.287132203578949,0.5985088348388672,85.83880615234375,-5.758615970611572,31.95259094238281,4.844725608825684,-3.342528820037842,0.8573427200317383,-173.4459686279297,-76.4067153930664,96.27033996582033,-1.0580437183380127,0.8762596845626831,0.6614809036254883
2284.4958670139317,179.74765014648438,-70.98072052001953,-120.75252532958984,-0.4797558188438415,0.82227623462677,0.4781084060668945,177.79515075683594,-44.3847770690918,18.451696395874023,4.171452522277832,3.87960433959961,-7.549343109130859,-125.72277069091795,-73.78279113769531,35.09685516357422,3.094984531402588,4.494585990905762,0.2685041427612304,91.00670623779295,-16.057222366333008,28.168901443481445,6.473854064941406,-3.0844712257385254,-3.325002670288086,-177.77674865722656,-77.36773681640625,100.2434539794922,1.1921286582946775,0.771930456161499,-0.4955339431762695
2284.556505918503,-177.4585418701172,-71.80435180664062,-124.40987396240234,-0.0438921302556991,-0.7464933395385742,-0.1981515884399414,175.518798828125,-45.529632568359375,24.661720275878903,6.824606895446777,5.575199127197266,-6.251804351806641,-122.2967529296875,-74.98153686523438,26.524219512939453,2.1070852279663086,1.8401870727539065,-1.91304349899292,96.34772491455078,-28.39946937561035,26.658052444458008,4.895874977111816,1.6325523853302002,2.071499824523926,173.1997528076172,-78.5549087524414,107.83798217773438,-1.480870008468628,0.5229531526565552,-2.495126247406006
2284.585646629333,-174.9520263671875,-72.19403839111328,-126.81906127929688,0.9241435527801514,-1.5620989799499512,-0.5514163970947266,174.81600952148438,-50.38045120239258,30.4946403503418,9.875080108642578,8.502429962158203,-4.765682220458984,-118.1795425415039,-75.70995330810547,15.145136833190918,-2.456000804901123,0.7715533971786499,-2.758395195007324,97.66111755371094,-42.7568244934082,26.598806381225582,3.2180418968200684,2.450612068176269,6.839900970458984,159.96092224121094,-79.52296447753906,119.35945892333984,-2.512847900390625,0.1813507974147796,-3.664228916168213
2284.6158323287964,-174.26705932617188,-71.7632064819336,-127.23577117919922,0.1869609951972961,-2.688701629638672,-1.0728302001953125,176.27633666992188,-54.6778564453125,33.18891906738281,-13.252294540405272,-1.7628049850463867,33.465919494628906,-109.27413940429688,-75.83566284179688,1.586872100830078,-4.365187644958496,1.3424198627471924,-2.374082565307617,91.2746353149414,-57.70621871948242,28.623933792114254,1.9418907165527344,0.628902792930603,19.31757354736328,148.19288635253906,-79.83047485351562,130.3068084716797,-2.546210289001465,1.130223512649536,-3.8009285926818848
2284.646374464035,-175.0130615234375,-70.33820343017578,-125.9421157836914,0.0100618824362754,-1.5781102180480957,-0.8325023651123047,172.48333740234375,-54.5469856262207,29.2633113861084,11.17446517944336,6.617332458496094,3.590587615966797,-101.2922134399414,-74.87512969970703,-10.53271484375,-3.3747806549072266,0.8611067533493042,-2.046209812164306,69.7863998413086,-67.59056854248047,36.9705696105957,0.0046624802052974,-1.968705654144287,20.556442260742188,140.359130859375,-80.10063934326172,137.74549865722656,-1.7508411407470703,0.9280886650085448,-2.023662567138672
2284.676375389099,-177.37924194335938,-68.35113525390625,-123.77338409423828,0.0536024272441864,-0.7206282615661621,-0.6849212646484375,171.5578155517578,-53.34917068481445,23.454486846923828,12.156272888183594,5.744808197021484,9.637218475341797,-94.97571563720705,-71.88674926757812,-21.333984375,-7.69222354888916,6.504097938537598,5.748690605163574,54.640811920166016,-67.96353912353516,37.23260498046875,17.744155883789062,-3.897287845611572,3.44146728515625,133.23988342285156,-80.58040618896484,144.68370056152344,0.5072983503341675,-0.2775321006774902,-1.7167119979858398
2284.7063744068146,179.86431884765625,-65.51596069335938,-121.21737670898438,-0.4229367971420288,0.1270809769630432,-0.1896343231201172,171.65611267089844,-50.69791030883789,17.867637634277344,11.01222801208496,5.881511688232422,11.676530838012695,-88.66802215576172,-64.70993041992188,-31.91748809814453,-2.272722721099853,4.502973556518555,8.861833572387695,65.97637176513672,-61.61659240722656,30.988859176635746,18.716571807861328,0.9837031364440918,6.189775466918945,133.17503356933594,-80.55631256103516,144.72073364257812,-0.6592040061950684,-0.0314630195498466,-1.0539274215698242
2284.736483812332,178.15863037109375,-62.62981796264648,-119.46883392333984,1.400303602218628,-0.6906346082687378,-0.0486679077148437,177.16616821289062,-48.76165771484375,13.133245468139648,6.834785461425781,0.8091833591461182,8.536811828613281,-89.88819885253906,-52.57448196411133,-38.034969329833984,-11.967779159545898,17.12493896484375,13.018522262573242,80.95116424560547,-53.28984832763672,32.34941864013672,2.3116626739501958,10.72706413269043,9.05126953125,138.57168579101562,-80.48841094970703,139.83058166503906,-2.174180507659912,-0.2462605237960815,4.240845680236816
2284.766010284424,177.75860595703125,-60.5655632019043,-118.50139617919922,0.3729119300842285,1.81780219078064,1.471491813659668,-177.84291076660156,-47.28358459472656,8.694064140319824,5.238627433776856,3.488533973693848,3.206409454345703,-87.64362335205078,-37.91416549682617,-40.412139892578125,1.1107778549194336,17.133514404296875,7.452840805053711,86.59521484375,-43.13332748413086,37.97911834716797,5.220633506774902,10.248449325561523,8.848617553710938,144.68292236328125,-79.91328430175781,134.4350128173828,0.0366771295666694,0.7684686183929443,5.692841529846191
2284.7961795330048,177.72972106933594,-59.71467208862305,-117.79840087890624,0.1395234763622284,1.6264629364013672,1.723928451538086,-175.26756286621094,-47.0100212097168,4.477491855621338,2.7640299797058105,2.63992691040039,-2.6227927207946777,-85.17288970947266,-19.768217086791992,-40.92396545410156,6.749434471130371,14.688203811645508,7.401700973510742,92.95603942871094,-32.43839645385742,47.0450439453125,3.79811429977417,9.966438293457031,1.6911144256591797,150.4974822998047,-78.9314956665039,128.60418701171875,-0.8613406419754028,0.8866112232208252,5.96027946472168
2284.856056213379,177.82362365722656,-60.35491943359375,-116.98835754394533,0.1411035060882568,1.2621121406555176,1.80731201171875,-173.21258544921875,-48.82012939453125,0.0013949122512713,1.6309902667999268,3.505073070526123,-7.06270694732666,-79.67236328125,-1.2694621086120603,-39.92922592163086,10.271720886230469,6.765162467956543,3.277157783508301,99.37220001220705,-25.190582275390625,57.81900024414063,-3.3139901161193848,3.047534942626953,1.4076433181762695,154.9748992919922,-78.24836730957031,123.9958038330078,-3.2538857460021973,1.0714423656463623,5.077579498291016
