Timestamp,D4:22:CD:00:05:5D_EulerX,D4:22:CD:00:05:5D_EulerY,D4:22:CD:00:05:5D_EulerZ,D4:22:CD:00:05:5D_FreeAccX,D4:22:CD:00:05:5D_FreeAccY,D4:22:CD:00:05:5D_FreeAccZ,D4:22:CD:00:05:5E_EulerX,D4:22:CD:00:05:5E_EulerY,D4:22:CD:00:05:5E_EulerZ,D4:22:CD:00:05:5E_FreeAccX,D4:22:CD:00:05:5E_FreeAccY,D4:22:CD:00:05:5E_FreeAccZ,D4:22:CD:00:05:6B_EulerX,D4:22:CD:00:05:6B_EulerY,D4:22:CD:00:05:6B_EulerZ,D4:22:CD:00:05:6B_FreeAccX,D4:22:CD:00:05:6B_FreeAccY,D4:22:CD:00:05:6B_FreeAccZ,D4:22:CD:00:05:6E_EulerX,D4:22:CD:00:05:6E_EulerY,D4:22:CD:00:05:6E_EulerZ,D4:22:CD:00:05:6E_FreeAccX,D4:22:CD:00:05:6E_FreeAccY,D4:22:CD:00:05:6E_FreeAccZ,D4:22:CD:00:49:AA_EulerX,D4:22:CD:00:49:AA_EulerY,D4:22:CD:00:49:AA_EulerZ,D4:22:CD:00:49:AA_FreeAccX,D4:22:CD:00:49:AA_FreeAccY,D4:22:CD:00:49:AA_FreeAccZ
399.2880837917328,173.8329315185547,-50.25643539428711,-75.1631088256836,-0.3982976078987121,-0.6844873428344727,0.7673006057739258,148.08837890625,13.86772918701172,-17.65285873413086,19.23098373413086,-2.8643174171447754,-10.941743850708008,-91.02730560302734,-31.415712356567383,-30.106067657470703,1.7537846565246582,12.326826095581056,25.818012237548828,82.41981506347656,-37.835716247558594,-174.51878356933594,-17.343883514404297,-11.475652694702148,5.721268653869629,161.38516235351562,-71.77860260009766,153.60064697265625,-1.695706844329834,1.5329961776733398,8.42745590209961
399.29843187332153,175.3424530029297,-49.77153015136719,-74.60095977783203,-0.0630017071962356,0.3608795404434204,1.86968994140625,151.6887969970703,11.001927375793455,-18.652942657470703,14.763107299804688,-1.3628580570220947,-7.988094329833984,-85.427490234375,-14.059727668762209,-25.82120132446289,13.160707473754885,6.6519775390625,25.45709991455078,84.16907501220703,-33.86347198486328,-164.20343017578125,-2.445603370666504,-8.554685592651367,-1.857853889465332,163.1485137939453,-72.77586364746094,152.0672607421875,-6.256522178649902,-2.2060370445251465,8.942317962646484
399.3555011749268,170.2759552001953,-58.0377082824707,-113.46495819091795,0.1499749422073364,-0.2585586309432983,0.2518749237060547,136.44839477539062,-72.0328369140625,-17.486127853393555,7.970112800598144,-1.1326828002929688,0.1106224060058593,-173.88119506835938,-71.58824157714844,-14.318133354187012,3.0315961837768555,-0.3434087038040161,-1.2069177627563477,-10.61956787109375,9.373446464538574,-162.85650634765625,0.248174637556076,-21.00927352905273,-24.260608673095703,-166.64013671875,-76.05044555664062,98.47175598144533,-0.7520986795425415,0.7069581747055054,-1.407607078552246
399.38549852371216,169.46609497070312,-57.9876708984375,-113.97920989990234,1.412856101989746,-0.924268364906311,-0.5759735107421875,23.229101181030277,-82.7552490234375,100.0599594116211,4.878297805786133,17.624149322509766,1.5769262313842771,-173.72547912597656,-74.75630187988281,-18.7332763671875,3.84091854095459,2.331174373626709,-4.355716705322266,16.067476272583008,-12.954551696777344,-137.73519897460938,-10.266321182250977,-10.919740676879885,-2.984757900238037,-168.82122802734375,-79.04016876220703,100.85525512695312,-0.2118542790412902,0.2806127071380615,-2.753359317779541
399.4147579669952,169.12515258789062,-57.28145217895508,-114.89229583740234,-0.3027652502059936,-0.93815815448761,0.0841426849365234,-88.52935028076172,-77.73297882080078,-143.5235595703125,-1.2525479793548584,9.709144592285156,8.380598068237305,-161.83558654785156,-77.21199798583984,-32.242637634277344,7.718759536743164,3.9769821166992183,-4.057258605957031,2.6086244583129883,-49.599910736083984,-107.97229766845705,-2.566835403442383,-35.70928192138672,44.877716064453125,-174.34596252441406,-80.66356658935547,106.55850219726562,-0.2185625731945037,-0.8331255912780762,-1.9434785842895508
399.4749217033386,168.48878479003906,-56.03290939331055,-114.69998168945312,-0.694401741027832,-1.218384027481079,0.3729143142700195,-117.71204376220705,-65.99876403808594,-118.22979736328124,-1.937006950378418,-9.463356018066406,9.56395149230957,-130.02723693847656,-78.09813690185547,-61.5363655090332,8.531986236572266,4.982387542724609,1.964132308959961,10.160941123962402,-79.4351577758789,-119.49427032470705,17.645267486572266,3.585075855255127,-4.415940284729004,178.54515075683594,-81.45380401611328,114.1877212524414,0.4816129803657532,-2.198798656463623,-1.268686294555664
399.5043706893921,168.34608459472656,-54.49552154541016,-113.45152282714844,-1.8947947025299072,0.723307728767395,0.7239980697631836,-126.29695892333984,-62.39085006713867,-115.42166137695312,0.2172085344791412,-3.1973609924316406,19.05910873413086,-91.30150604248048,-70.4519271850586,-97.85653686523438,6.111754417419434,4.1786956787109375,17.261280059814453,91.58989715576172,-65.96818542480469,157.1796875,1.8565351963043213,3.857412338256836,25.862228393554688,169.68482971191406,-81.87646484375,123.41461944580078,1.8920903205871584,1.9527075290679927,-2.556880474090576
399.5348997116089,169.08152770996094,-52.55657577514648,-111.47450256347656,-0.7366620302200317,0.5018014907836914,0.7025794982910156,-130.21954345703125,-60.66849899291992,-112.35227966308594,-6.925693511962891,-7.947385787963867,15.08624267578125,-79.86622619628906,-54.7273063659668,-108.3862533569336,7.730504989624023,9.816753387451172,21.50790786743164,92.97563934326172,-47.30561447143555,153.63125610351562,-15.128589630126951,13.11784553527832,19.16419219970703,163.50189208984375,-81.16580200195312,129.3470916748047,0.3475237488746643,0.6226818561553955,1.5870485305786133
399.56489849090576,170.64305114746094,-50.73555755615234,-109.89393615722656,4.603973388671875,-1.311722755432129,-0.3349008560180664,-127.93944549560548,-61.59142303466797,-110.58411407470705,-5.024027824401856,-3.830088615417481,12.70945167541504,-74.56159973144531,-36.15511703491211,-106.32855987548828,5.668160438537598,1.2932615280151367,15.43059539794922,92.84971618652344,-36.52070617675781,156.92628479003906,-14.612646102905272,5.204461097717285,9.13847541809082,167.81666564941406,-79.61077117919922,125.57299041748048,2.0545992851257324,-1.7162103652954102,4.434628486633301
399.595053434372,172.468994140625,-50.49081802368164,-111.42584991455078,1.279083013534546,0.2215942144393921,0.5226593017578125,-134.54933166503906,-61.3861083984375,-105.99253845214844,-8.916851043701172,-3.3925790786743164,6.186089515686035,-69.10694885253906,-17.169845581054688,-99.5424575805664,4.740116119384766,-7.649942398071289,15.618993759155272,93.5242156982422,-33.49360656738281,162.0441131591797,-7.436771392822266,-3.836430072784424,-0.7319850921630859,172.25286865234375,-78.05654907226562,121.31454467773438,3.8728275299072266,1.1528143882751465,8.530454635620117
399.62477564811707,174.55572509765625,-51.640174865722656,-113.337646484375,-0.1844216585159301,0.5001698732376099,2.643805503845215,-134.91162109375,-64.13762664794922,-104.98030853271484,1.2248539924621582,-0.4880868792533874,4.865422248840332,-57.92673110961914,-1.8212708234786987,-92.04354095458984,5.331816673278809,-16.540164947509766,6.439922332763672,94.41740417480467,-37.400421142578125,168.5377655029297,-2.331674098968506,-5.672351837158203,-8.975061416625977,176.28619384765625,-76.70292663574219,117.29695892333984,-1.0358622074127195,-0.40491783618927,9.133275985717772
399.654855966568,176.20912170410156,-54.191200256347656,-115.67578125,0.5210944414138794,1.0503172874450684,2.987673759460449,-128.84066772460938,-68.25597381591797,-111.07129669189452,-0.3405940532684326,1.2223942279815674,-1.1732988357543943,-46.16450119018555,7.757878303527832,-86.55404663085938,-0.8613486289978027,-10.10371208190918,3.745149612426758,95.28063201904295,-46.666263580322266,176.28939819335938,2.911447525024414,-6.347268104553223,-10.672365188598633,-178.30685424804688,-76.60679626464844,112.73683166503906,-4.052501678466797,0.0132762212306261,9.109153747558594
399.68485403060913,178.12794494628906,-58.62447738647461,-117.47265625,2.9312334060668945,0.3022793531417846,3.803599357604981,-111.1780242919922,-73.88288116455078,-128.943603515625,3.266571521759033,1.914750337600708,-4.164159774780273,-32.861698150634766,12.696163177490234,-84.4586410522461,-9.881715774536133,-4.884818077087402,3.6102828979492183,92.80553436279295,-59.76407241821289,-174.629150390625,4.312789916992188,-3.767162322998047,-11.339895248413086,-169.46185302734375,-77.49298095703125,105.96646881103516,-1.835604190826416,0.4899452924728393,6.379987716674805
399.7178087234497,-179.97686767578125,-65.32987213134766,-119.90190887451172,-2.866833209991455,1.113471269607544,7.190616607666016,-69.33651733398438,-76.1312026977539,-170.3267364501953,1.5083930492401123,2.4254708290100098,-5.625120162963867,-16.739742279052734,17.97026252746582,-85.41265869140625,-10.748254776000977,-6.731625556945801,-1.6098546981811523,84.48204803466797,-74.65991973876953,-158.80931091308594,1.8200318813323972,0.0313699319958686,-7.887346267700195,-158.69976806640625,-77.48639678955078,98.3186492919922,0.1544045209884643,0.9490386247634888,3.1755189895629883
399.77500438690186,-178.4524383544922,-74.15476989746094,-126.65050506591795,-6.98330020904541,-8.610843658447266,6.693000793457031,-38.12406921386719,-70.5106430053711,155.9574432373047,-2.7792530059814453,5.475031852722168,-7.045437812805176,-0.1119415983557701,25.9445858001709,-87.49498748779297,-6.138144493103027,-4.437686920166016,-11.881038665771484,9.897515296936035,-84.03925323486328,-74.11813354492188,9.466560363769531,2.392061710357666,-4.088576316833496,-149.00778198242188,-76.28974914550781,91.64794158935548,-0.4547200798988342,0.3066057562828064,-2.626399517059326
399.8050036430359,175.1645050048828,-79.41545104980469,-124.62445068359376,0.0159188136458396,1.641676664352417,-6.151849746704102,-28.45759391784668,-62.33797454833984,141.4022674560547,-5.911710739135742,8.92198371887207,-9.307353973388672,10.541720390319824,34.63359451293945,-88.84535217285156,-0.4719456434249878,-2.786576747894287,-11.63870620727539,-45.29913330078125,-73.81198120117188,-10.764732360839844,7.134910583496094,1.9327423572540283,-2.797502040863037,-142.86257934570312,-74.98059844970703,87.2990493774414,1.0067312717437744,0.8028802871704102,-6.997687339782715
399.83517265319824,164.58447265625,-80.15953063964844,-109.66729736328124,14.151927947998049,1.2327601909637451,-7.654088973999023,-28.408334732055664,-54.43157196044922,135.1983642578125,-6.908507347106934,10.462575912475586,-10.48060417175293,15.438780784606934,43.49781036376953,-90.27617645263672,-0.6134158372879028,-3.2849655151367188,-10.703289031982422,-44.746524810791016,-63.651023864746094,2.695392847061157,7.606135368347168,2.2759408950805664,-2.6428446769714355,-138.63040161132812,-74.90348052978516,83.7673110961914,-0.91301691532135,1.2179086208343506,-11.973819732666016
399.8651578426361,162.45338439941406,-78.10784149169922,-99.8058853149414,3.809528350830078,0.5638656616210938,-9.821565628051758,-30.717512130737305,-48.370723724365234,132.7305145263672,-7.321769714355469,10.102216720581056,-15.065216064453123,14.555112838745115,51.77180099487305,-93.99685668945312,3.6089696884155273,-0.9078609943389891,-9.68398666381836,-38.35237503051758,-56.21147155761719,9.473352432250977,9.545476913452148,7.793940544128418,-7.875279426574707,-134.34812927246094,-75.6971206665039,80.9024658203125,-0.4076846837997436,0.0467320457100868,-9.777877807617188
399.8953034877777,163.3574981689453,-78.7773666381836,-99.30413818359376,0.7473932504653931,2.5214285850524902,-6.741907119750977,-31.759004592895508,-45.24913787841797,130.8882598876953,-6.3759965896606445,8.291814804077148,-14.131053924560549,4.18017578125,58.62866973876953,-106.25543212890624,5.931068420410156,-2.4403672218322754,-7.433520317077637,-35.228275299072266,-51.98168182373047,13.08423900604248,5.224735260009766,6.725220680236816,-7.86695384979248,-127.96060180664062,-76.47696685791016,76.39122772216797,-2.4195666313171387,-1.999422550201416,-7.075364112854004
399.9249241352081,161.72772216796875,-77.48097229003906,-99.67272186279295,-1.658818006515503,-4.5931396484375,-4.951851844787598,-32.11091613769531,-44.85879898071289,129.66477966308594,-6.954608917236328,10.00834846496582,-17.598262786865234,-19.43573570251465,61.11602020263672,-135.9822235107422,6.348664283752441,0.0487053394317626,-11.693887710571287,-30.957204818725582,-50.65460968017578,13.890669822692873,4.388409614562988,6.330992698669434,-6.775306701660156,-118.24481201171876,-76.77387237548828,69.83346557617188,-1.033341884613037,-1.4214134216308594,-5.881548881530762
399.95428943634033,159.7654266357422,-74.36653137207031,-95.49594116210938,-8.134588241577148,-3.864814758300781,-0.4449338912963867,-34.951194763183594,-47.32511138916016,131.1412811279297,-6.42691707611084,11.93079948425293,-14.114784240722656,-48.83390045166016,52.2719841003418,-166.691650390625,-9.771333694458008,6.281787872314453,-27.24448776245117,-26.045839309692383,-51.328033447265625,13.053101539611816,4.420001029968262,8.715160369873047,-5.708569526672363,-115.62645721435548,-76.83242797851562,69.75984954833984,1.4029524326324463,0.5916780233383179,-3.617709636688232
399.9843068122864,155.6232147216797,-69.5245590209961,-89.05597686767578,2.3616628646850586,-6.829350471496582,1.3186407089233398,-42.85773849487305,-52.35242462158203,135.7503662109375,-6.171313285827637,11.409183502197266,-7.795438766479492,-59.1941032409668,38.17491149902344,175.9272003173828,-31.14697265625,13.03145980834961,-17.857784271240234,-24.238357543945312,-52.9129524230957,12.408340454101562,3.156148910522461,9.929191589355469,-4.162996292114258,-119.5196533203125,-77.24567413330078,72.73516845703125,2.936967372894287,0.5929388999938965,-1.2255496978759766
400.01490330696106,154.64520263671875,-64.42314910888672,-85.50198364257812,3.238513469696045,0.5900764465332031,4.236912727355957,-49.92839431762695,-57.93414306640625,141.728271484375,-4.495102882385254,4.5599870681762695,3.0078067779541016,-69.98998260498047,39.87239074707031,177.70542907714844,17.21688461303711,5.25177001953125,-12.068334579467772,-27.456588745117188,-54.608795166015625,13.050256729125977,2.7126564979553223,7.072732925415039,-1.6918468475341797,-121.9295883178711,-77.958984375,72.96359252929688,0.7612247467041016,0.2065637409687042,0.2027959823608398
400.0740878582001,152.5794677734375,-61.04645538330078,-84.8683090209961,0.4258397817611694,4.9216413497924805,-0.9708213806152344,-51.94796752929688,-62.15108108520508,146.11776733398438,-9.942638397216797,-5.812816619873047,5.888463020324707,-73.88011932373047,52.94325256347656,-163.0280303955078,-43.108734130859375,5.490629196166992,-1.945744514465332,-33.87390899658203,-56.53981018066406,14.880005836486816,4.547396659851074,9.091510772705078,2.3152647018432617,-123.74036407470705,-79.12393188476562,72.98251342773438,-4.382774353027344,-2.081111431121826,2.6726551055908203
400.1042847633362,149.89283752441406,-60.24613571166992,-83.34532165527344,1.845719575881958,2.3998727798461914,-0.4353828430175781,-58.29427337646485,-66.42691802978516,152.94107055664062,-10.08845329284668,-0.4028517007827759,9.342031478881836,-49.06101608276367,59.27019119262695,-131.0160369873047,-13.104530334472656,0.2876248359680176,-19.424392700195312,-45.36306381225586,-58.45003509521485,17.068988800048828,5.96779727935791,9.16302490234375,3.0562314987182617,-126.9122543334961,-80.86685943603516,74.6728744506836,-5.725155830383301,0.2958484292030334,3.4860239028930664
400.1352055072784,146.54371643066406,-60.481258392333984,-79.16646575927734,2.4334073066711426,-7.070925712585449,6.599477767944336,-71.80769348144531,-70.33826446533203,163.8932342529297,-3.76089859008789,5.550973892211914,0.9356956481933594,-31.20015335083008,56.857051849365234,-104.58457946777344,-0.6739075183868408,3.673420429229736,2.4722213745117188,-55.7772216796875,-60.2759017944336,17.415363311767578,4.60215950012207,2.453794479370117,6.837076187133789,-129.29806518554688,-82.17228698730469,76.34510803222656,0.0038314587436616,-1.134822130203247,2.6322555541992188
400.16565132141113,143.0674591064453,-59.84867858886719,-74.01885986328125,-0.7163960933685303,-2.040577888488769,6.328165054321289,-86.91458129882812,-72.9922103881836,175.74281311035156,-4.058742523193359,4.264759063720703,1.914463996887207,-26.368331909179688,49.359130859375,-89.03602600097656,-2.448821544647217,5.903467178344727,13.106578826904297,-63.88574981689453,-62.98054504394531,16.822702407836914,4.716826438903809,3.237548828125,1.559382438659668,-139.16708374023438,-81.748046875,86.11497497558594,1.6435742378234863,-1.754997730255127,5.493023872375488
400.1942298412323,138.06167602539062,-59.32416915893555,-69.98863220214844,4.026102066040039,-5.384496688842773,9.103475570678713,-100.06668853759766,-74.4466552734375,-172.47703552246094,0.4102763533592224,4.025460243225098,1.7365140914916992,-22.39099884033203,40.86319732666016,-78.04132843017578,8.006244659423828,5.803577423095703,11.507415771484377,-71.92850494384766,-65.8972396850586,14.640741348266602,-2.466256618499756,-4.422328948974609,2.8396434783935547,-144.15318298339844,-80.27300262451172,88.9805679321289,4.34793758392334,-0.2649666666984558,0.5206832885742188
400.22474694252014,130.2527313232422,-60.74629592895508,-67.93379211425781,16.534523010253906,2.724832534790039,-2.8567657470703125,-112.7374267578125,-75.50775909423828,-160.44200134277344,-2.426269054412842,3.632688045501709,-0.4627103805541992,-30.339061737060547,32.85468292236328,-66.93478393554688,3.700192451477051,7.724811553955078,0.8488559722900391,-73.0438232421875,-67.75445556640625,11.330967903137209,-2.5848960876464844,-6.855281829833984,-1.1025238037109375,-146.74649047851562,-78.6645736694336,87.46285247802734,9.361597061157228,1.8014445304870603,-3.1413283348083496
400.2547519207001,130.66761779785156,-59.51841354370117,-77.53250885009766,19.96699905395508,25.041996002197266,3.446988105773926,-123.43087768554688,-76.06733703613281,-150.12855529785156,-2.9286932945251465,3.4594926834106445,-0.3792123794555664,-38.6630859375,25.372041702270508,-57.34955978393555,-2.6731534004211426,-7.983055114746094,10.564428329467772,-72.53022003173828,-68.99752807617188,8.385384559631348,1.3369359970092771,-6.822907447814941,0.3897590637207031,-151.73130798339844,-77.9382095336914,86.98580932617188,5.302122116088867,1.4677653312683103,2.525514602661133
400.2847483158112,137.67105102539062,-53.11456298828125,-92.5038604736328,19.275314331054688,10.713741302490234,0.4575157165527344,-132.5096435546875,-76.49810028076172,-141.39224243164062,-1.7375502586364746,2.821638584136963,0.0475568771362304,-36.38286590576172,18.162755966186523,-51.50476837158203,1.8069798946380613,-0.3268921375274658,0.7188005447387695,-68.59217834472656,-69.91780853271484,5.147064685821533,-0.6068820953369141,-7.954694747924805,1.5013151168823242,-154.4562530517578,-78.1043701171875,86.78136444091797,-3.137889862060547,1.6584539413452148,1.402109146118164
400.3143095970154,146.12625122070312,-43.06040573120117,-107.07615661621094,6.428613662719727,2.641648769378662,-1.786895751953125,-140.82386779785156,-76.7432861328125,-133.0664825439453,-3.069209098815918,2.407198429107666,-0.424692153930664,-42.95456314086914,11.046855926513672,-47.10176467895508,1.3297529220581057,0.8264760971069336,-5.504507064819336,-61.67802810668945,-70.64189910888672,2.786120653152466,4.130396842956543,-5.590680122375488,0.5876083374023438,-152.33685302734375,-77.72503662109375,84.29403686523438,0.0806986838579177,2.5058765411376958,-0.7632894515991211
400.3745164871216,153.30633544921875,-31.826824188232425,-117.39693450927734,-3.7028074264526367,-0.0246471092104911,-6.942618370056152,-145.94297790527344,-76.34750366210938,-127.36846923828124,-3.8556199073791504,2.055325508117676,-0.7813606262207031,-48.66978454589844,2.8611762523651123,-43.35694122314453,-3.743509292602539,-11.148250579833984,8.880010604858398,-55.963775634765625,-71.43498992919922,1.658441185951233,5.905532836914063,-2.2377266883850098,0.1132946014404296,-148.4674072265625,-77.10099029541016,81.35830688476562,4.774908065795898,4.063400268554688,3.489674568176269
400.4045171737671,161.39427185058594,-21.853633880615234,-123.65990447998048,-4.849313735961914,0.3285975456237793,-8.241180419921875,-148.5538787841797,-75.0018081665039,-124.35601043701172,-3.2124738693237305,2.588928699493408,-2.2762022018432617,-38.81266784667969,-7.715282917022705,-42.796669006347656,1.0691301822662354,-4.239692687988281,-6.462685585021973,-51.259220123291016,-72.87855529785156,0.569198489189148,4.548445701599121,0.6227824687957764,-1.235762596130371,-147.02395629882812,-77.45055389404297,80.19977569580078,3.764083385467529,2.7423758506774902,0.060347557067871
400.4345073699951,168.27296447753906,-16.442733764648438,-127.3465805053711,-9.69745635986328,-1.8103060722351076,-8.148548126220703,-149.5618896484375,-72.99884033203125,-123.3940200805664,-3.0756492614746094,2.272663116455078,-2.358938217163086,-31.44945526123047,-20.12757110595703,-45.555320739746094,8.097469329833984,-5.340938568115234,-7.325445175170898,-43.92257690429688,-74.76228332519531,-3.4267964363098145,2.170356750488281,2.8017444610595703,-2.646449565887451,-146.92237854003906,-78.36264038085938,79.62944793701172,1.460840940475464,1.3077988624572754,-4.48607349395752
400.4645998477936,171.16993713378906,-16.667373657226562,-128.9904022216797,-11.457839965820312,-3.2478251457214355,-13.10272216796875,-150.5331268310547,-71.0129623413086,-123.09703063964844,-1.0941433906555176,2.7702670097351074,0.0503482818603515,-25.9675235748291,-33.47079086303711,-53.44852066040039,10.994892120361328,-12.306352615356444,5.29599666595459,-30.313934326171875,-76.08025360107422,-13.162299156188965,0.8227498531341553,3.787618637084961,-3.498828887939453,-147.16075134277344,-78.45868682861328,79.54414367675781,1.1836082935333252,0.9861469268798828,-3.923982620239258
400.49477791786194,170.53143310546875,-21.54059600830078,-130.19717407226562,-9.254791259765623,-0.9873827695846558,4.197173118591309,-152.7190399169922,-69.22357177734375,-121.71917724609376,-1.9336774349212649,1.9858617782592771,0.7352237701416016,-15.867073059082031,-43.903053283691406,-67.58213806152344,11.966545104980469,-22.83812713623047,21.606739044189453,-10.019145965576172,-75.91808319091797,-28.084796905517575,0.0203012339770793,2.502422332763672,-1.244550704956055,-146.29421997070312,-78.34080505371094,78.65591430664062,2.32995080947876,0.8280420303344727,-1.1470375061035156
400.5244057178497,169.66372680664062,-24.095338821411133,-130.51541137695312,-17.99114990234375,-15.597185134887695,6.586956024169922,-155.72349548339844,-68.3426513671875,-119.1727294921875,-4.288654327392578,3.0195417404174805,-0.9475917816162108,-10.95317554473877,-44.03231048583984,-73.82208251953125,9.2257080078125,-18.63385391235352,2.1702795028686523,21.114303588867188,-72.52649688720703,-49.46714782714844,9.476428985595703,7.0232343673706055,2.4826622009277344,-145.13575744628906,-78.3033447265625,77.20209503173828,-1.456526756286621,0.785293698310852,-1.0571680068969729
400.5546751022339,171.2338409423828,-25.96456527709961,-129.16909790039062,-17.623493194580078,-19.01944351196289,4.108994483947754,-158.36904907226562,-68.24409484863281,-117.00099182128906,-2.6828808784484863,2.745120048522949,0.2695159912109375,-27.012113571166992,-36.48025894165039,-61.97221374511719,7.766910552978516,-25.405445098876957,13.92836570739746,54.78406524658203,-64.23397827148438,-72.1606674194336,7.526567459106445,16.882503509521484,18.84439849853516,-145.33509826660156,-78.24947357177734,77.52006530761719,1.7181262969970703,-3.851508617401123,2.898678779602051
400.5898103713989,171.5066375732422,-24.65115547180176,-126.9166259765625,-24.158740997314453,-10.287132263183594,9.517641067504885,-160.4985809326172,-68.53933715820312,-115.58287811279295,-2.742602825164795,3.4069266319274902,0.0786981582641601,-38.59382629394531,-23.980457305908203,-54.26856231689453,5.400697708129883,-25.3794059753418,0.8970632553100586,82.68328094482422,-49.1378288269043,-85.95215606689453,13.737884521484377,18.863658905029297,17.614421844482422,-151.68536376953125,-77.52176666259766,83.02326202392578,1.206608772277832,-1.7250542640686035,5.28902530670166
400.61454916000366,166.97071838378906,-20.35229110717773,-124.77728271484376,-9.024858474731444,-14.760507583618164,11.135320663452148,-162.0376434326172,-69.83834838867188,-114.67993927001952,-1.6884126663208008,3.803925514221192,1.484600067138672,-47.54307556152344,-12.953072547912598,-54.50391006469727,-2.9583773612976074,-11.361553192138672,-5.73861026763916,92.37078857421876,-31.11505699157715,-97.09537506103516,7.21549129486084,17.22433853149414,15.766498565673828,-153.95591735839844,-77.70350646972656,85.26355743408203,-1.3538813591003418,0.793515682220459,3.981996536254883
400.6746492385864,163.47232055664062,-15.754579544067385,-124.21625518798828,-9.630714416503906,-9.012025833129885,9.078754425048828,-164.2229461669922,-72.59942626953125,-113.584228515625,-1.821554183959961,4.519264221191406,2.5354766845703125,-54.01673889160156,-8.527503967285156,-61.390663146972656,-10.822397232055664,-0.6460700035095215,-4.50604248046875,97.14540100097656,-8.640271186828613,-109.1007843017578,14.701913833618164,-1.1921107769012451,31.93109130859375,-157.60577392578125,-78.6397705078125,89.3986587524414,3.694505214691162,3.4297876358032227,5.705130577087402
400.7046511173248,160.82354736328125,-13.172103881835938,-124.58226776123048,-3.145400047302246,-2.0045418739318848,0.0605535507202148,-165.45957946777344,-77.34619903564453,-113.52838897705078,-2.931061267852783,4.034946441650391,4.792167663574219,-58.64569854736328,-11.903995513916016,-71.58351135253906,-10.129230499267578,2.223626613616944,-1.6305694580078125,91.59468841552734,15.56470012664795,-122.1737289428711,2.8563432693481445,-22.76409149169922,11.020652770996094,-164.77223205566406,-79.46832275390625,95.51358032226562,7.109222412109375,3.979759693145752,7.200824737548828
400.73464846611023,161.5201416015625,-14.119762420654297,-125.36515808105467,1.084420680999756,1.2100353240966797,-7.746541976928711,-151.8751983642578,-86.54962921142578,-124.28085327148438,-3.15229606628418,-12.2750244140625,15.151323318481444,-62.02117156982422,-20.75974464416504,-82.38532257080078,-8.169694900512695,5.428928375244141,1.8674640655517576,82.11910247802734,35.9576301574707,-137.27569580078125,-4.31938362121582,-19.01323699951172,-2.924294948577881,-172.08966064453125,-79.671875,100.9607162475586,4.577985763549805,3.0808119773864746,6.804847717285156
400.7647597789765,162.9596405029297,-19.64309883117676,-125.77193450927734,-0.0508484169840812,3.7467808723449703,-11.621068954467772,-48.74324035644531,-87.76034545898438,137.9205322265625,-1.061185598373413,1.137174129486084,-4.011496543884277,-60.96424865722656,-32.09949493408203,-93.26554870605467,-4.241344451904297,4.937254905700684,2.5047569274902344,66.25885772705078,49.61213684082031,-154.3790740966797,-5.369921684265137,-8.781978607177734,-9.770273208618164,-176.66207885742188,-79.89078521728516,104.04068756103516,2.294365406036377,2.042182445526123,3.850893974304199
400.7943305969238,160.8745880126953,-29.48823547363281,-125.56685638427734,-4.287050247192383,3.35629940032959,-11.921775817871094,-70.95696258544922,-85.91534423828125,157.73284912109375,-1.1561670303344729,3.38402795791626,-8.309297561645508,-53.90695571899414,-43.693843841552734,-105.44217681884766,-2.347377300262451,3.024050712585449,-1.186849594116211,50.21636199951172,56.78227996826172,-169.41424560546875,-3.1452884674072266,4.815793991088867,-11.233612060546877,179.15625,-79.94727325439453,106.84454345703124,2.73394775390625,0.6646130084991455,-2.166868209838867
400.8250577449799,156.45826721191406,-42.05335235595703,-124.04621887207033,-3.653972148895264,0.4193357825279236,-10.693090438842772,-89.83173370361328,-83.41793060302734,170.07669067382812,-6.467132568359375,0.0507691800594329,-10.117290496826172,-52.20128631591797,-52.675662994384766,-117.25470733642578,-3.220961093902588,1.3064560890197754,-2.7055201530456543,42.90122985839844,60.01747512817383,-175.1074676513672,-0.1923003792762756,6.46251106262207,-7.878391265869141,173.5408477783203,-79.5804214477539,111.04132080078124,0.6298331022262573,-0.9616180658340454,-6.136447906494141
400.8550601005554,152.196533203125,-55.93771362304688,-121.46199035644533,-4.798023223876953,-0.8930175304412842,-6.9066362380981445,-101.01927185058594,-82.34163665771484,174.8326416015625,-4.0244903564453125,10.875246047973633,-5.470024108886719,-53.143775939941406,-58.92347717285156,-128.67755126953125,-0.9713801145553588,5.010318756103516,-2.698972702026367,44.65187454223633,61.11776351928711,-169.43865966796875,0.4476494789123535,1.7904367446899414,-8.802885055541992,166.53053283691406,-79.62316131591797,116.8921356201172,-1.4614315032958984,1.3246228694915771,-9.526529312133787
400.88505601882935,145.29608154296875,-71.5990982055664,-115.2643051147461,-1.995077848434448,-3.394493103027344,1.9768199920654297,-103.18364715576172,-81.9906997680664,175.29872131347656,-3.59475040435791,5.008477210998535,-5.934845924377441,-49.51571273803711,-63.20607376098633,-140.5961151123047,1.780465602874756,4.148772239685059,-6.290574073791504,53.079139709472656,59.39714813232422,-153.653076171875,0.6185867786407471,-0.3616172075271606,-10.518793106079102,159.95814514160156,-80.19332122802734,121.20681762695312,-0.1530787646770477,4.2547760009765625,-10.258352279663086
400.9149653911591,78.57865142822266,-86.21338653564453,-46.49349594116211,7.107685089111328,2.9943575859069824,15.604318618774414,-104.58349609375,-81.69489288330078,176.5277862548828,-1.5830342769622805,0.2718695402145386,-1.486795425415039,-44.95901107788086,-66.5059814453125,-151.76490783691406,2.223849296569824,2.726092338562012,-7.508460998535156,61.88193893432617,52.64104080200195,-133.16665649414062,0.3873669505119324,-8.240135192871094,-13.354949951171877,151.0279998779297,-81.343017578125,126.79044342041016,1.4941651821136477,1.7233984470367432,-7.22199821472168
400.9749615192413,11.003164291381836,-76.7744140625,30.085620880126957,14.203372955322266,18.66973114013672,2.3858652114868164,-116.00497436523438,-80.18250274658203,-174.60536193847656,0.5344972610473633,-1.982754230499268,1.0321025848388672,-40.97827911376953,-69.87838745117188,-162.2751922607422,4.344472885131836,4.384279251098633,-4.77394962310791,58.88531494140625,40.124000549316406,-113.69239044189452,-6.869726181030273,-26.58775329589844,-28.572471618652344,145.15660095214844,-82.16130828857422,129.96047973632812,0.5512293577194214,-0.990581512451172,-2.808822631835937
401.0049514770508,9.649792671203612,-72.5635757446289,30.0529899597168,10.496797561645508,19.781543731689453,-19.394763946533203,-127.81096649169922,-77.21827697753906,-165.99974060058594,-7.367795944213867,1.073619365692139,1.4563360214233398,-29.720611572265625,-73.44556427001953,-175.41229248046875,4.910208702087402,4.296027183532715,-3.108334541320801,52.29741287231445,34.73875045776367,-103.92484283447266,-0.7911220788955688,-7.271215438842773,-9.05950927734375,143.1396484375,-83.20018005371094,130.80819702148438,0.3078541159629822,-1.5154764652252195,-3.98850154876709
401.0348572731018,17.873245239257812,-75.80278778076172,17.691436767578125,10.726139068603516,1.844794988632202,-4.777531623840332,-131.7073516845703,-74.37631225585938,-163.01255798339844,-5.167724609375,1.8217377662658687,1.4324054718017578,-17.110942840576172,-76.04499053955078,171.3614959716797,1.4595057964324951,1.8846006393432615,-0.5396757125854492,65.33409118652344,42.42879486083984,-110.63555145263672,2.5356087684631348,-4.015898704528809,2.186663627624512,145.35568237304688,-83.27935791015625,127.14274597167967,4.543278694152832,-2.8559203147888184,0.5738258361816406
401.0649948120117,58.55063629150391,-79.27886962890625,-19.931249618530277,11.085702896118164,4.918122291564941,0.4857769012451172,-129.72886657714844,-72.22553253173828,-164.53594970703125,-1.2179419994354248,3.0746803283691406,2.906261444091797,-14.789523124694824,-78.38325500488281,165.08096313476562,1.982365369796753,2.977991104125977,4.679579734802246,70.56383514404297,52.84336471557617,-120.50181579589844,7.819430351257324,-17.651206970214844,-3.123074531555176,151.76092529296875,-83.88355255126953,119.07842254638672,1.5293405055999756,-0.4958556294441223,1.8372011184692385
401.0951285362244,100.76343536376952,-78.61931610107422,-58.43465423583984,-6.540463447570801,-11.732934951782228,4.5606842041015625,-124.8251495361328,-70.93073272705078,-169.4402618408203,-3.567028045654297,3.0180015563964844,4.066246032714844,-19.239160537719727,-80.8850326538086,167.05128479003906,6.591681480407715,3.0228567123413086,9.17535400390625,52.52873992919922,62.08683013916016,-146.50750732421875,-2.825879573822021,-9.97498893737793,-14.729759216308594,169.4653778076172,-83.88894653320312,102.12214660644533,1.1428985595703125,1.2205111980438232,1.611983299255371
401.1248264312744,116.52010345458984,-77.84168243408203,-74.2271957397461,5.053232192993164,-9.609260559082031,2.820603370666504,-112.22665405273438,-71.25902557373047,-179.69049072265625,-5.59401798248291,-1.319394588470459,4.452130317687988,-27.88236427307129,-82.3855209350586,179.19284057617188,3.8447437286376953,0.6894477605819702,10.168523788452148,27.37029266357422,61.44744873046875,177.2737579345703,3.5066561698913574,-9.845541000366213,-7.671514511108398,-179.39730834960938,-83.9204330444336,92.01436614990234,4.329991340637207,0.1976209878921508,5.233055114746094
401.1548271179199,132.51954650878906,-76.56340026855469,-89.26396942138672,-5.254829406738281,-4.117555618286133,4.568728446960449,-98.96161651611328,-69.60785675048828,172.30938720703125,-7.452775955200195,1.5160410404205322,-1.2742900848388672,-46.91193389892578,-81.75164031982422,-155.67694091796875,1.5425958633422852,-1.6340696811676023,9.399919509887695,12.940179824829102,51.80712127685547,153.502197265625,8.373613357543945,4.766603469848633,-2.697220802307129,-177.13894653320312,-83.55929565429688,90.01534271240234,3.4500646591186523,-0.1476434767246246,1.528642654418945
401.184826374054,145.35107421875,-74.1511459350586,-96.12215423583984,1.7116858959197998,-2.343036651611328,-1.2659435272216797,-92.2070770263672,-67.09573364257812,172.0402374267578,-11.752840042114258,8.207620620727539,-0.211038589477539,-61.35801315307617,-78.72621154785156,-134.15704345703125,2.106503486633301,-2.6854634284973145,9.033668518066406,19.988414764404297,39.25423049926758,140.6903533935547,24.32825088500977,4.178594589233398,1.063364028930664,-175.82273864746094,-82.10037231445312,89.58464050292969,-2.836598396301269,-2.065117835998535,1.5661144256591797
401.2149209976196,155.0190887451172,-72.413818359375,-101.69133758544922,-7.524285316467285,8.992048263549805,3.643732070922852,-92.83729553222656,-64.80116271972656,-177.52505493164062,-13.981056213378906,31.439109802246094,-2.0924181938171387,-63.04375457763672,-75.18609619140625,-121.22371673583984,2.8230085372924805,-2.8430562019348145,-0.9599113464355468,41.19831848144531,27.07456588745117,133.64488220214844,12.318578720092772,8.572921752929688,-8.297100067138672,-176.51968383789062,-80.58788299560547,94.23888397216795,-7.166261672973633,-3.2625789642333984,-0.0899515151977539
401.2744662761688,161.34532165527344,-71.78067779541016,-108.35894012451172,0.2703492045402527,0.3520040512084961,0.3709421157836914,-105.13972473144533,-61.79381561279297,-157.00506591796875,-12.90305519104004,18.094711303710938,-6.934666633605957,-59.64336395263672,-72.26380157470703,-110.94601440429688,-1.1609930992126465,-7.085004806518555,-12.341974258422852,62.80927276611328,17.196002960205078,130.33563232421875,-5.203584671020508,11.013599395751951,-1.3720340728759766,-175.78297424316406,-78.8766098022461,101.6288833618164,-8.022985458374023,-3.279948711395264,-3.4958367347717285
401.33454489707947,168.19940185546875,-71.03227996826172,-115.98140716552734,-0.1124694794416427,0.1076641827821731,0.554682731628418,-124.46717834472656,-57.312644958496094,-135.0608367919922,-7.595105171203613,6.485681533813477,-10.74871063232422,-56.89712905883789,-72.15833282470703,-106.4960479736328,0.4102625846862793,-9.345785140991213,-14.033380508422852,78.7593002319336,8.240772247314453,129.5498504638672,-7.293656349182129,3.943317413330078,-0.5126962661743164,-176.66262817382812,-77.12484741210938,108.7322769165039,1.920417547225952,2.2814207077026367,1.3681888580322266
401.3395400047302,172.61656188964844,-70.08466339111328,-121.33727264404295,2.160069465637207,-0.6983894109725952,0.2897987365722656,-141.75205993652344,-51.8665771484375,-117.90685272216795,-0.6440051794052124,1.761359691619873,-8.99052619934082,-46.53218078613281,-74.6876449584961,-115.56583404541016,-11.418241500854492,0.3197765350341797,-0.9574193954467772,89.12643432617188,0.2464561760425567,128.2027130126953,-6.886404037475586,-3.346527099609375,2.6543188095092773,-178.4419403076172,-77.01742553710938,111.94588470458984,5.46311092376709,4.278384208679199,1.4753141403198242
401.364786863327,175.16537475585938,-69.46543884277344,-124.11927795410156,1.5734491348266602,-0.2481049597263336,0.3856372833251953,-156.90618896484375,-46.6312370300293,-105.3940200805664,0.6519337892532349,1.298799991607666,-7.173531532287598,-25.519041061401367,-77.0599365234375,-136.5250701904297,-14.042011260986328,-4.146592140197754,0.6869049072265625,94.2275390625,-6.285261154174805,125.26853942871094,-0.3243854641914367,0.937540888786316,7.509899139404297,176.6543426513672,-76.8472900390625,117.2157745361328,-2.084442138671875,4.154152870178223,1.1445960998535156
401.39595222473145,177.22715759277344,-69.24333953857422,-126.06207275390624,-0.4198489785194397,0.9378174543380736,0.6249427795410156,-168.89149475097656,-43.18527221679688,-95.88257598876952,0.7018764019012451,-0.2393021881580352,-4.223871231079102,-21.56775665283203,-77.08417510986328,-145.97276306152344,-7.896025657653809,-2.117480754852295,4.783480644226074,92.3737335205078,-12.869668006896973,124.55608367919922,1.5400304794311523,0.5326805114746094,-0.2339725494384765,171.39126586914062,-76.3340072631836,122.3998031616211,-5.036465644836426,1.0861263275146484,1.4966440200805664
401.42594265937805,179.03041076660156,-69.23249053955078,-128.0316925048828,-0.2910029292106628,0.2357409000396728,0.1904458999633789,-176.12466430664062,-42.95287322998047,-88.03329467773438,1.3629374504089355,-8.71409797668457,-6.157318115234375,-35.43022155761719,-74.59400939941406,-139.0657958984375,-5.27253532409668,4.8451128005981445,1.569723129272461,88.89576721191406,-21.799659729003903,124.85834503173828,1.072249174118042,2.4081664085388184,-4.196419715881348,166.08364868164062,-76.02796173095703,127.34104919433594,-2.805038928985596,0.4263315200805664,-2.021974563598633
401.4549598693848,-179.51211547851562,-68.9517593383789,-129.1318359375,0.1645010709762573,-1.229325771331787,-0.1108579635620117,-179.02032470703125,-46.55342483520508,-81.82274627685547,6.162234306335449,-14.242935180664062,-3.745968818664551,-45.656883239746094,-70.26958465576172,-131.96450805664062,-1.89559006690979,1.8861896991729736,-1.6961908340454102,86.8487548828125,-34.619041442871094,126.83145141601562,-2.2320761680603027,6.992281913757324,-3.123946189880371,159.3689727783203,-75.45049285888672,133.43809509277344,-0.71458899974823,0.7778862714767456,-2.7321319580078125
401.48495149612427,-179.5302276611328,-68.16214752197266,-128.3590850830078,-1.3196208477020264,0.0077610397711396,-0.5033292770385742,-176.12591552734375,-52.83462142944336,-76.80912780761719,4.150398254394531,20.00936889648437,25.00009536743164,-53.41752624511719,-65.29463195800781,-127.68235778808594,0.5068069696426392,0.6521750688552856,-3.703125476837158,85.13519287109375,-51.29942321777344,128.1590118408203,-5.438595771789551,6.028533935546875,15.135639190673828,152.41598510742188,-74.6227798461914,138.91183471679688,0.378461480140686,0.8524792194366455,-3.8064627647399902
401.5146861076355,178.1644744873047,-66.37468719482422,-125.3039321899414,-2.0197224617004395,-1.880290508270264,-0.3822917938232422,-177.5968780517578,-52.7744369506836,-77.02587890625,0.2092425525188446,-15.48598289489746,-6.876317977905273,-59.06186294555664,-60.32006454467773,-125.498046875,3.2217936515808105,4.774820327758789,-0.2592983245849609,70.97161102294922,-63.74700164794922,135.08798217773438,-2.35736083984375,18.85443878173828,21.552814483642575,146.95175170898438,-73.23624420166016,142.57261657714844,-1.3284916877746582,-1.2241733074188232,-3.908345222473145
401.57498145103455,175.48214721679688,-63.84056854248047,-119.40950775146484,1.1682779788970947,-0.2632666230201721,-2.7879600524902344,179.5897979736328,-53.45931625366211,-77.86353302001953,4.965392112731934,-12.344976425170898,7.310644149780273,-57.90385055541992,-54.092994689941406,-125.20539855957033,2.504019260406494,1.54703950881958,3.7242965698242183,81.2358627319336,-62.00908279418945,133.98924255371094,4.1658935546875,3.975888252258301,1.2236700057983398,142.9546356201172,-72.5665283203125,146.0714111328125,0.8086847066879272,-0.7666698694229126,-4.725966453552246
401.6042354106903,174.46417236328125,-61.25841522216797,-114.65670776367188,4.78447151184082,-1.0897541046142578,-1.1283254623413086,-178.77935791015625,-52.35668563842773,-80.621826171875,3.711193561553955,-11.657487869262695,12.411270141601562,-61.46535110473633,-45.265045166015625,-123.12999725341795,0.0461835861206054,2.1536192893981934,7.902610778808594,91.10926818847656,-55.703102111816406,128.03765869140625,-9.032903671264648,10.813405990600586,8.171781539916992,140.79212951660156,-71.60819244384766,147.6497802734375,-0.1529932618141174,2.213682174682617,-0.653141975402832
401.63503432273865,174.27261352539062,-58.849639892578125,-113.01280212402344,1.652296781539917,-1.5582828521728516,0.7721490859985352,-174.53504943847656,-49.255008697509766,-84.53978729248047,-3.355996608734131,-16.348236083984375,16.084808349609375,-65.57760620117188,-34.88752746582031,-118.74024200439452,7.727649688720703,3.432924270629883,16.823612213134766,97.40929412841795,-48.32826232910156,129.20867919921875,-17.418964385986328,9.612512588500977,3.818631172180176,140.7993927001953,-70.04926300048828,147.4910125732422,-1.661313533782959,-0.7175310850143433,4.393519401550293
401.6650290489197,174.82470703125,-56.96131896972656,-111.99388885498048,1.8788230419158936,0.1735591292381286,-0.0540828704833984,-172.13983154296875,-43.19958114624024,-88.14596557617188,-7.784015655517578,-13.507213592529297,9.840934753417969,-63.10883712768555,-23.258384704589844,-112.5331039428711,3.723930835723877,5.643529891967773,18.25566864013672,104.8684539794922,-42.89957046508789,133.1453399658203,-16.481433868408203,0.4782314300537109,3.202457427978516,141.55029296875,-68.4081039428711,146.04112243652344,0.8334041833877563,1.1243062019348145,4.251325607299805
401.6950953006744,175.90748596191406,-55.5978889465332,-110.6252670288086,0.0369820073246955,1.4533350467681885,1.680438995361328,-165.68441772460938,-38.38575744628906,-89.45823669433594,7.6749677658081055,-9.103755950927734,10.505878448486328,-51.15216064453125,-13.279412269592283,-104.38804626464844,2.9782867431640625,-3.043108940124512,16.688671112060547,107.4330825805664,-43.352481842041016,134.9664306640625,-11.197248458862305,-7.932238578796387,0.9201955795288086,143.4355926513672,-67.69151306152344,143.41819763183594,-3.138802051544189,-2.532911777496338,12.269903182983398
401.7246422767639,176.57272338867188,-54.98188781738281,-108.5900650024414,0.1707909405231475,0.7399780750274658,1.332536697387695,-159.3386688232422,-36.65451431274414,-90.71478271484376,-1.1617317199707031,0.7677896022796631,0.1168422698974609,-34.780242919921875,-5.911696910858154,-94.88184356689452,-3.3709702491760254,-5.518354415893555,10.097400665283203,105.1182632446289,-50.81233596801758,131.70223999023438,-2.8342347145080566,-0.9032526016235352,2.3229894638061523,141.02871704101562,-69.27732849121094,145.19956970214844,-2.7588858604431152,0.9001573324203491,6.480998992919922
