Timestamp,D4:22:CD:00:05:5D_EulerX,D4:22:CD:00:05:5D_EulerY,D4:22:CD:00:05:5D_EulerZ,D4:22:CD:00:05:5D_FreeAccX,D4:22:CD:00:05:5D_FreeAccY,D4:22:CD:00:05:5D_FreeAccZ,D4:22:CD:00:05:5E_EulerX,D4:22:CD:00:05:5E_EulerY,D4:22:CD:00:05:5E_EulerZ,D4:22:CD:00:05:5E_FreeAccX,D4:22:CD:00:05:5E_FreeAccY,D4:22:CD:00:05:5E_FreeAccZ,D4:22:CD:00:05:6B_EulerX,D4:22:CD:00:05:6B_EulerY,D4:22:CD:00:05:6B_EulerZ,D4:22:CD:00:05:6B_FreeAccX,D4:22:CD:00:05:6B_FreeAccY,D4:22:CD:00:05:6B_FreeAccZ,D4:22:CD:00:05:6E_EulerX,D4:22:CD:00:05:6E_EulerY,D4:22:CD:00:05:6E_EulerZ,D4:22:CD:00:05:6E_FreeAccX,D4:22:CD:00:05:6E_FreeAccY,D4:22:CD:00:05:6E_FreeAccZ,D4:22:CD:00:49:AA_EulerX,D4:22:CD:00:49:AA_EulerY,D4:22:CD:00:49:AA_EulerZ,D4:22:CD:00:49:AA_FreeAccX,D4:22:CD:00:49:AA_FreeAccY,D4:22:CD:00:49:AA_FreeAccZ
2432.7309679985046,171.47952270507812,-48.49703979492188,-38.3939094543457,-0.5351126194000244,-0.1369466185569763,2.978325843811035,-131.11849975585938,-28.268835067749023,-172.76226806640625,1.667980432510376,2.314237117767334,1.4440860748291016,-29.74534797668457,13.424606323242188,-45.19979476928711,-1.4241337776184082,-3.647068977355957,1.7107009887695312,127.59148406982422,-58.28665542602539,49.31849670410156,-0.465440034866333,0.7040688991546631,14.411640167236328,128.5003204345703,-79.02677154541016,165.73965454101562,-6.196507453918457,-2.42877197265625,7.425140380859375
2432.736967802048,-154.3145751953125,-70.1839599609375,-117.20132446289062,-0.5623962879180908,0.389748215675354,-0.7132062911987305,-127.79875946044922,-36.63753128051758,178.56028747558594,6.172611236572266,-10.991384506225586,-12.649175643920898,-48.13229751586914,-27.5009765625,-83.70307159423828,2.8721461296081543,-0.0601029396057128,-2.6914548873901367,-162.99530029296875,-76.06100463867188,16.985919952392578,-1.094933032989502,-19.495025634765625,0.9361190795898438,151.20281982421875,-82.6031723022461,151.0172119140625,-3.458726406097412,1.0082008838653564,2.5682477951049805
2432.8445270061493,160.00775146484375,-62.25914764404297,-61.827667236328125,2.0880236625671387,3.0397300720214844,-7.943587303161621,126.8839340209961,-67.403076171875,39.7585334777832,2.2205257415771484,1.0049965381622314,21.371883392333984,-35.77934265136719,-5.437496662139893,-99.50067901611328,10.49885368347168,-1.2226572036743164,18.222755432128903,-50.52439880371094,-71.52182006835938,-172.49642944335938,-7.1881303787231445,6.361565589904785,7.801601409912109,168.0299835205078,-74.1006088256836,122.59020233154295,1.296816110610962,2.707721710205078,0.8571758270263672
2432.874526977539,160.37994384765625,-57.57460403442383,-55.72816467285156,7.200739860534668,6.61467170715332,-1.2627315521240234,133.13893127441406,-62.75346374511719,39.99624252319336,-2.426715850830078,9.205154418945312,23.203807830810547,-32.126914978027344,6.96323299407959,-97.98925018310548,-1.402552366256714,3.8769454956054688,30.668426513671875,-104.32584381103516,-75.88351440429688,-113.20513916015624,-4.197114944458008,3.15168571472168,13.635746002197266,153.08270263671875,-77.88602447509766,139.05767822265625,-1.721462965011597,-3.669669151306152,5.363987922668457
2432.9045403003693,166.6434783935547,-55.6827507019043,-59.90149688720703,-3.3027219772338867,-2.1023178100585938,7.751495361328125,148.09249877929688,-60.96770858764648,25.779865264892575,3.1609015464782715,7.202340126037598,14.771636962890623,-18.293764114379883,21.291576385498047,-87.85437774658203,-2.764726161956787,-11.102291107177734,22.04824447631836,-123.13526916503906,-72.75543212890625,-85.443603515625,-6.466300964355469,-4.501787185668945,9.70826530456543,163.6997528076172,-77.89881896972656,129.99122619628906,0.7121801376342773,-1.9423253536224363,8.872894287109375
2432.93505859375,170.1000518798828,-55.24490737915039,-60.62307357788086,-1.0133037567138672,1.5413658618927002,3.161654472351074,159.8745880126953,-61.14469528198242,15.910696983337402,-2.6123547554016118,11.921993255615234,2.3053932189941406,4.678664207458496,29.557750701904297,-73.544189453125,-5.439273834228516,-8.530233383178711,7.728437423706055,-122.75530242919922,-71.72647857666016,-77.41857147216797,-4.827991485595703,-7.1069536209106445,9.176517486572266,172.66534423828125,-76.47340393066406,122.79805755615234,-0.0548996999859809,-2.098081588745117,10.56639289855957
2432.965058326721,172.27415466308594,-55.90655899047852,-60.92829513549805,-2.125072956085205,0.5370298624038696,2.100820541381836,173.1354522705078,-63.4205207824707,6.165341377258301,0.4511663913726806,12.39536476135254,-5.960399627685547,26.089466094970703,31.77311515808105,-62.17588806152344,-8.51861572265625,-7.557223320007324,3.862035751342773,-110.30599975585938,-71.67620086669922,-79.70722198486328,-4.5739946365356445,-11.912025451660156,7.136589050292969,178.4263458251953,-76.16610717773438,119.74944305419922,-2.6927952766418457,-0.5241744518280029,6.708856582641602
2432.9946076869965,173.90557861328125,-57.9974250793457,-61.163387298583984,-2.8348851203918457,0.94110107421875,3.0295066833496094,-170.8807830810547,-68.87477111816406,-6.813336849212647,5.492131233215332,8.89157485961914,-10.608915328979492,40.65372085571289,33.13505554199219,-58.22149658203125,-9.742155075073242,-2.6565146446228027,0.5095071792602539,-84.99398803710938,-72.38084411621094,-89.21737670898438,-3.116947650909424,-13.935989379882812,3.319129943847656,-168.91171264648438,-76.930908203125,111.1045379638672,-1.20849871635437,1.5738933086395264,8.941984176635742
2433.055147886276,174.3676300048828,-62.16088485717773,-59.02865982055664,-3.974207878112793,-0.3454897999763489,4.143378257751465,-143.0202178955078,-76.57438659667969,-35.17890167236328,8.890769958496094,2.1377806663513184,-17.16104507446289,43.40518569946289,36.1976203918457,-60.4394645690918,-2.6034159660339355,-1.489802598953247,-6.949042320251465,-46.58115768432617,-71.2009506225586,-105.77921295166016,-4.734356880187988,-15.051321029663086,-2.139610767364502,-153.3835906982422,-77.74055480957031,100.18824005126952,3.80670976638794,3.831836700439453,5.369076728820801
2433.0851480960846,171.4368438720703,-69.86304473876953,-47.61967468261719,4.4469146728515625,0.7933429479598999,7.953996658325195,-69.9404296875,-78.33426666259766,-111.9034652709961,4.935312271118164,2.4519410133361816,-16.64413833618164,33.34550476074219,39.86499786376953,-68.94659423828125,2.88027286529541,-3.285850048065185,-10.17295265197754,-9.278613090515137,-68.03431701660156,-119.6785659790039,1.4693994522094729,-14.754472732543944,-10.388412475585938,-141.11203002929688,-78.04424285888672,91.41661071777344,3.0006909370422363,5.303772926330566,-1.2230491638183594
2433.1146609783173,167.70770263671875,-74.27294158935547,-43.39278030395508,5.6261749267578125,-0.2513168454170227,0.6580142974853516,-32.582984924316406,-65.28687286376953,-153.5004425048828,-10.303594589233398,-2.9959607124328613,-8.914604187011719,20.838356018066406,43.6258544921875,-81.6923828125,2.4958362579345703,-1.029627799987793,-13.040531158447266,16.512788772583008,-64.73905181884766,-128.1103973388672,5.9412689208984375,-6.315830230712891,-11.692737579345703,-133.95562744140625,-78.52714538574219,86.7183837890625,0.4647420644760132,-0.4213288426399231,-7.319680213928223
2433.144672870636,169.31362915039062,-71.71253204345703,-44.59817886352539,9.47874641418457,15.922258377075195,-6.106740951538086,-27.025936126708984,-51.6335334777832,-166.9318084716797,-20.7463493347168,-3.258835792541504,-9.563556671142578,7.168657779693604,46.22202301025391,-98.29595184326172,0.3658802509307861,-3.185974597930908,-12.171197891235352,30.577503204345703,-61.90303039550781,-132.8009796142578,5.111538887023926,-4.193946838378906,-12.318000793457031,-130.97215270996094,-79.81734466552734,84.77369689941406,1.259992599487305,0.0982906520366668,-7.301576614379883
2433.1756727695465,179.14097595214844,-69.00778198242188,-47.4163932800293,9.692766189575195,-8.399938583374023,-10.69229507446289,-28.53229713439941,-40.90492248535156,-173.6586456298828,-22.823287963867188,-3.8436341285705566,-7.210121154785156,-7.555068492889404,46.48418045043945,-119.0324249267578,-1.6309833526611328,-2.491603374481201,-14.52392578125,36.996681213378906,-60.20538711547852,-135.37245178222656,4.241080284118652,-4.170012474060059,-13.244400024414062,-124.82843017578124,-81.8653793334961,80.1917495727539,-3.5005640983581543,1.3260908126831057,-9.469322204589844
2433.2046864032745,-174.47569274902344,-71.53935241699219,-56.26567459106445,8.20733642578125,-5.2805376052856445,-9.528764724731444,-26.955461502075195,-36.16989135742188,-178.86607360839844,-17.274009704589844,1.536387920379639,-27.042102813720703,-22.87361717224121,41.51372528076172,-140.74203491210938,-10.894025802612305,-0.5225644111633301,-20.01858139038086,39.765743255615234,-59.40399169921875,-136.85646057128906,3.0752320289611816,-3.3771657943725586,-12.369770050048828,-106.6069107055664,-83.67839050292969,64.98747253417969,-3.900559902191162,-2.061963558197021,-10.568319320678713
2433.2352137565613,-165.53201293945312,-73.2396240234375,-68.5305404663086,-22.671218872070312,1.161079168319702,-0.3934764862060547,-25.67081069946289,-38.37179946899414,179.30409240722656,-16.03359603881836,11.505596160888672,-18.687427520751957,-28.222972869873047,33.568138122558594,-158.48699951171875,-27.957210540771484,-1.2169599533081057,-16.884479522705078,41.96335220336914,-59.005313873291016,-138.18954467773438,3.5822572708129883,-3.099987030029297,-10.974252700805664,-91.2484359741211,-83.76445770263672,52.2407455444336,-1.4251360893249512,1.231952667236328,-9.704944610595703
2433.2652173042297,-172.91183471679688,-70.78224182128906,-62.55430221557617,-2.59376859664917,-10.256776809692385,-4.536373138427734,-29.302228927612305,-45.64413833618164,-175.89907836914062,-17.474349975585938,-2.6710424423217773,-12.128168106079102,-25.433015823364254,32.389530181884766,-162.6875457763672,25.02765655517578,-8.095186233520508,-22.571910858154297,43.46809387207031,-58.98371887207031,-140.3407745361328,4.022733688354492,-4.002157211303711,-8.230260848999023,-90.27649688720705,-83.40825653076172,52.298431396484375,1.6696548461914062,2.1216869354248047,-3.8257594108581534
2433.2952139377594,-175.2717742919922,-68.89727783203125,-54.01725006103516,-2.321134567260742,-2.918009757995605,3.747283935546875,-40.32926559448242,-53.780418395996094,-166.64698791503906,-13.649618148803713,-0.5231615304946899,-2.449876308441162,-40.37374877929688,40.936641693115234,-146.36685180664062,-18.906333923339844,8.933786392211914,-0.2752885818481445,43.78597259521485,-59.89296722412109,-142.62692260742188,2.332620143890381,-5.820926666259766,-5.008817672729492,-85.387451171875,-83.49817657470703,46.71817779541016,-0.5984576940536499,0.4025408029556274,-1.5107145309448242
2433.3548192977905,-176.17489624023438,-68.30586242675781,-48.72251129150391,1.2820448875427246,4.09636116027832,3.239924430847168,-57.34341430664063,-60.32052993774414,-153.0320281982422,10.479267120361328,-18.87201690673828,21.673805236816406,-23.86530494689941,49.12966537475586,-123.91345977783205,-31.23767471313477,-15.534585952758787,-22.24418258666992,39.3379020690918,-63.07455062866211,-140.35157775878906,0.161167025566101,-8.479936599731445,5.327783584594727,-88.6656723022461,-84.26985168457031,48.95906066894531,-4.220128059387207,-0.3550825119018554,3.635134696960449
2433.384818792343,-179.55862426757812,-68.22967529296875,-45.46321868896485,5.551995277404785,1.3084993362426758,0.9561271667480468,-59.1906852722168,-62.53278732299805,-149.86599731445312,15.091217041015623,-20.562538146972656,4.4313554763793945,5.575603485107422,49.49013137817383,-100.5223388671875,-5.4693803787231445,-9.021209716796877,-13.119319915771484,30.068647384643555,-69.38185119628906,-132.5476531982422,4.456841468811035,-7.164250373840332,10.641485214233398,-110.7749481201172,-85.11139678955078,70.46849822998047,0.4437711238861084,-0.1912361085414886,6.13133430480957
2433.4153673648834,176.1746368408203,-68.05899810791016,-41.26741790771485,1.5682594776153564,-4.160392761230469,4.732943534851074,-62.63751983642578,-64.8841552734375,-150.15972900390625,-3.1390185356140137,-0.1667830049991607,10.895843505859377,21.041898727416992,43.26716613769531,-81.7070541381836,1.1784744262695312,-5.288203239440918,1.342879295349121,13.478565216064451,-76.10845184326172,-116.6136245727539,3.841218948364258,1.3274600505828855,3.5353546142578125,-114.09467315673828,-85.7370376586914,73.74681091308594,0.772998571395874,-1.3668420314788818,0.9461517333984376
2433.4453597068787,170.56053161621094,-67.3702392578125,-35.53365707397461,-0.3149200081825256,-3.2787089347839355,3.995861053466797,-58.503868103027344,-66.96156311035156,-155.3151397705078,-4.558429718017578,-6.079550743103027,5.017721176147461,24.02638816833496,35.20429611206055,-70.60455322265625,4.877659797668457,6.333161354064941,7.932626724243164,-25.059158325195312,-80.47506713867188,-82.47301483154297,11.57448387145996,-2.859771728515625,4.066044807434082,-127.20309448242188,-86.4163589477539,85.47537231445312,1.3230938911437988,-0.3052158951759338,2.516019821166992
2433.475366592407,162.8341522216797,-66.58283233642578,-30.04384422302246,3.758248805999756,-1.5114150047302246,3.489938735961914,-47.90240859985352,-68.32923889160156,-162.8567657470703,-2.525131702423096,2.976330280303955,-1.0005130767822266,8.456207275390625,25.741662979125977,-64.98808288574219,26.386085510253903,26.91621780395508,6.828739166259766,-89.30833435058594,-81.24694061279297,-33.44399642944336,14.53640365600586,1.3820905685424805,3.836405754089356,-155.02493286132812,-86.59383392333984,109.86160278320312,4.882990837097168,-0.1729676127433776,1.5763187408447266
2433.505382537842,152.75381469726562,-65.56610107421875,-26.17795753479004,5.74481201171875,-0.0383903607726097,4.854397773742676,-41.78995895385742,-69.91688537597656,-166.70123291015625,-3.621460437774658,-1.7765016555786133,0.2304811477661132,-29.61676979064941,15.035382270812988,-64.3323974609375,4.989871025085449,10.906534194946287,-26.415691375732425,-118.7384262084961,-80.10042572021484,-10.981362342834473,6.4723052978515625,14.047758102416992,1.7180471420288086,-169.08468627929688,-84.54874420166016,118.721923828125,6.001471519470215,0.0515209883451461,-1.4327869415283203
2433.5349249839783,145.001220703125,-62.19232940673828,-27.33441925048828,4.479215621948242,16.033615112304688,4.584710121154785,-33.474403381347656,-70.66658020019531,-170.76258850097656,-4.253945350646973,-1.4275104999542236,-1.0766525268554688,-56.80432891845703,4.471388816833496,-65.80673217773438,-11.081583023071287,-14.98385238647461,17.559547424316406,-138.6161651611328,-79.46195983886719,-6.12197732925415,-2.6069231033325195,-2.859539031982422,-5.333439826965332,-168.86575317382812,-80.38296508789062,114.82023620605467,8.441041946411133,1.156395435333252,-1.1881341934204102
2433.564924716949,143.1987762451172,-56.65462493896485,-35.17626190185547,0.3693723678588867,16.848411560058594,7.7149658203125,-24.9047966003418,-70.93927764892578,-174.4169464111328,-6.874223709106445,-2.5786118507385254,-2.703410148620605,-68.76458740234375,-3.960019111633301,-66.72246551513672,2.701912403106689,8.090021133422852,6.081437110900879,-148.160400390625,-79.05401611328125,-7.380854606628418,-3.630083560943604,-0.7734402418136597,1.408773422241211,-165.7490692138672,-77.54829406738281,111.0036849975586,2.8353381156921387,0.7157303094863892,0.4650440216064453
2433.594924926758,143.90475463867188,-48.92924499511719,-45.85555648803711,3.4163689613342285,12.742315292358398,1.607762336730957,-20.904766082763672,-71.97834014892578,-175.80032348632812,-6.63829517364502,-4.702043533325195,-3.5135040283203125,-81.39737701416016,-9.548421859741213,-64.7449951171875,-4.001082420349121,4.898765563964844,2.275735855102539,-136.58372497558594,-79.96065521240234,-17.771087646484375,-3.1834607124328613,-2.464231014251709,0.7340288162231445,-166.29067993164062,-75.88841247558594,110.43021392822266,-2.405339241027832,0.6693801879882812,-0.5065584182739258
2433.655470132828,149.66546630859375,-39.78585052490234,-56.92614364624024,4.826024055480957,7.503081321716309,-7.733263969421387,-23.419910430908203,-74.12425994873047,-172.85711669921875,-2.733342170715332,-7.079813003540039,-4.449605941772461,-94.70567321777344,-13.755010604858398,-58.443355560302734,-2.19570541381836,6.965620040893555,3.0291643142700195,-113.66818237304688,-81.30480194091797,-34.06718826293945,-5.009812355041504,-5.284758567810059,-1.6329917907714844,-168.23904418945312,-73.82417297363281,110.70513153076172,0.8322196006774902,2.589770793914795,0.5035295486450195
2433.6844675540924,157.66612243652344,-30.761667251586918,-66.81806182861328,2.3727197647094727,1.454153299331665,-10.014846801757812,-33.775970458984375,-76.81063842773438,-163.3065643310547,-6.222708702087402,-6.626500129699707,-5.391587257385254,-101.8232650756836,-19.276025772094727,-50.16984558105469,3.075186252593994,5.630043983459473,3.896239280700684,-95.48418426513672,-82.5665054321289,-46.11088943481445,-1.7161414623260498,-5.153026580810547,-2.1497678756713867,-167.60511779785156,-72.6156997680664,109.75955963134766,1.744483232498169,0.6038473844528198,-0.1443948745727539
2433.7149996757507,166.06317138671875,-22.95155906677246,-74.47625732421875,0.2752829194068908,-0.7137572765350342,-10.327280044555664,-56.57577896118164,-78.44688415527344,-142.62863159179688,-4.93018913269043,-0.8129266500473022,-1.816610336303711,-98.94803619384766,-28.04945182800293,-41.09627914428711,3.60119104385376,3.5478854179382324,3.4047908782958984,-83.93672943115234,-84.78233337402344,-53.126712799072266,1.6469125747680664,-4.58453369140625,-3.995548248291016,-166.05438232421875,-71.91864776611328,108.9449691772461,1.0188417434692385,-0.1699678599834442,-3.7499866485595694
2433.74501657486,172.548583984375,-17.35649871826172,-81.39411926269531,-2.332397937774658,-2.163891315460205,-10.957921981811523,-90.89763641357422,-77.05488586425781,-110.65167999267578,-5.082802772521973,-1.5829102993011477,-2.505293846130371,-88.40644836425781,-40.31829833984375,-31.432113647460938,5.087428092956543,-0.4193074703216553,0.2084083557128906,-62.37513732910156,-88.70684051513672,-71.7972183227539,2.1544981002807617,-2.9298548698425293,-4.317755699157715,-164.64964294433594,-71.9732666015625,108.11531066894533,1.4395475387573242,1.9281730651855469,-5.511359214782715
2433.775015115738,172.90628051757812,-15.29788589477539,-88.41089630126953,-5.223777770996094,-5.286225318908691,-10.703737258911133,-110.01213836669922,-74.05609130859375,-91.80358123779295,-4.657546043395996,-1.0313634872436523,0.6888046264648438,-73.24202728271484,-55.16209030151367,-23.206586837768555,10.345758438110352,-1.475074291229248,9.188539505004885,91.0978012084961,-85.28433227539062,138.37783813476562,-0.7513741254806519,-1.2116892337799072,-3.048861026763916,-163.03900146484375,-72.48198699951172,106.19656372070312,3.034121513366699,2.797088623046875,-1.818582534790039
2433.805030107498,166.8889617919922,-18.164981842041016,-94.3040008544922,-8.217018127441406,-11.376989364624023,-14.493881225585938,-118.46946716308594,-72.24740600585938,-82.55801391601562,-7.319301605224609,-0.9932159185409546,-0.1869935989379882,-34.28755569458008,-68.1113510131836,-31.895641326904297,-0.4251787662506103,-6.787870407104492,23.54764938354492,93.87883758544922,-78.43392181396484,137.45591735839844,7.370712280273437,-8.966142654418945,2.732524871826172,-159.39234924316406,-73.73869323730469,101.60045623779295,3.497030735015869,3.190033435821533,-1.5677337646484375
2433.835565328598,158.85279846191406,-25.328453063964844,-97.20378112792967,2.1554360389709477,-8.181989669799805,12.843463897705078,-121.90164947509766,-72.04029083251953,-78.73828887939453,-6.369463920593262,-0.191626489162445,0.9986982345581056,21.646488189697266,-66.7571792602539,-60.685813903808594,24.163349151611328,-0.9833965301513672,8.036571502685547,82.12098693847656,-71.38320922851562,145.26148986816406,7.159795761108398,6.651700019836426,9.000228881835938,-155.95437622070312,-76.00326538085938,95.63682556152344,7.275830268859863,2.7496957778930664,2.4492712020874023
2433.865557193756,162.3532257080078,-28.92509078979492,-96.47770690917967,-15.467130661010742,-22.076351165771484,18.701488494873047,-122.35979461669922,-73.49227905273438,-78.42235565185547,-6.2084550857543945,-0.8081618547439575,-0.0311136245727539,16.89984130859375,-61.79084396362305,-60.65663528442383,24.519710540771484,-7.278122901916504,4.47418212890625,78.61119079589844,-60.712677001953125,154.35540771484375,19.089393615722656,-8.726385116577148,23.229740142822266,-154.0259552001953,-78.30120849609375,89.96186828613281,0.3131693601608276,-0.3004148006439209,1.8018217086791992
2433.89456486702,163.72225952148438,-27.959348678588867,-93.2458267211914,-10.026430130004885,-16.698219299316406,15.551034927368164,-117.95755767822266,-75.7249755859375,-83.32212829589844,-7.435256004333496,-2.554478168487549,-1.055706024169922,-15.43100643157959,-53.1639404296875,-46.07804489135742,9.91193389892578,-15.193822860717772,12.867923736572266,71.84800720214844,-47.899070739746094,157.80740356445312,20.04615020751953,-4.954756736755371,25.53929901123047,-159.6088104248047,-76.98381805419922,93.2483367919922,-0.5758926868438721,-1.6566212177276611,10.518194198608398
2433.955123901367,167.26046752929688,-23.33184051513672,-89.95735168457031,-1.750540018081665,-18.389144897460938,6.899700164794922,-105.8965301513672,-77.595947265625,-97.26421356201172,-8.577674865722656,-3.841557502746582,-1.032526969909668,-33.5583610534668,-39.58620071411133,-41.56026840209961,5.972692489624023,-13.956623077392578,13.270246505737305,63.532257080078125,-31.182825088500977,157.83570861816406,12.526107788085938,-4.57689094543457,23.551593780517575,-162.1349639892578,-75.36617279052734,94.66096496582033,1.2631771564483645,-2.3111844062805176,11.646530151367188
2433.9851236343384,169.92922973632812,-17.751689910888672,-88.36467742919922,-8.348617553710938,-16.41234588623047,11.164419174194336,-82.39582824707031,-78.0239486694336,-124.70162200927734,-8.195343017578125,-1.764850378036499,3.5925989151000977,-33.3769416809082,-30.37833595275879,-45.75082778930664,2.184100151062012,-7.354804039001465,-3.5342793464660645,51.51062774658203,-11.882399559020996,155.2818145751953,-4.875696182250977,0.3160284161567688,14.707197189331056,-162.2958221435547,-76.50819396972656,94.27433013916016,1.1653344631195068,2.478039264678955,6.166023254394531
2434.014662504196,164.2517852783203,-13.27442741394043,-88.80072784423828,-7.862515449523926,-9.755598068237305,6.889848709106445,-56.56468963623047,-75.16297149658203,-155.58346557617188,-4.883462905883789,-7.845097541809082,8.483192443847656,-36.30392456054688,-27.711801528930664,-49.609134674072266,-3.729217529296875,1.0014419555664062,-10.30473518371582,38.25936126708984,5.394723415374756,151.19927978515625,-6.912710189819336,4.854422569274902,2.7877960205078125,-168.18148803710938,-77.25727081298828,99.18846893310548,3.4710679054260254,3.614433765411377,5.480283737182617
2434.044677257538,161.05755615234375,-10.919145584106444,-89.25920867919922,-1.886509656906128,-3.436368942260742,-2.508365631103516,-32.71400451660156,-69.87661743164062,-177.7117462158203,-3.8236279487609854,1.3698883056640625,-1.5339727401733398,-40.27675628662109,-29.81513786315918,-54.2309455871582,-7.686923027038574,2.860935688018799,-5.88218879699707,27.88950729370117,17.41824722290039,145.15603637695312,-0.4216458797454834,0.5968611240386963,-2.238410472869873,-177.9724884033203,-77.76728057861328,106.89873504638672,2.3062944412231445,2.10941743850708,5.474113464355469
2434.075677633285,163.21978759765625,-11.195855140686035,-89.1573257446289,-2.313049793243408,-0.0406546592712402,-9.29771614074707,-20.869400024414062,-67.07626342773438,177.798828125,-16.47052001953125,11.986745834350586,-16.290645599365234,-42.270755767822266,-34.21232604980469,-58.89586639404297,-4.672663688659668,2.81802749633789,-8.455081939697266,22.967796325683597,22.75506591796875,140.6949462890625,8.733007431030273,-2.222238540649414,-7.939451217651367,169.97195434570312,-77.83720397949219,115.83509063720705,3.793333053588867,2.534153461456299,-1.9216675758361816
2434.104691505432,165.73460388183594,-14.17856216430664,-89.03626251220703,-4.050185203552246,1.7401068210601809,-16.535385131835938,-27.35320472717285,-70.29188537597656,-174.15684509277344,-8.576301574707031,-8.75448226928711,-11.504888534545898,-47.7593879699707,-38.75658416748047,-61.12269592285156,-5.401656150817871,1.67535662651062,-7.971216201782227,23.39792823791504,22.94247055053711,141.88919067382812,7.204704284667969,-2.051633834838867,-11.987531661987305,158.3822479248047,-76.70855712890625,124.216796875,3.2200183868408203,0.3967348933219909,-8.033439636230469
2434.1349532604218,164.0127410888672,-20.827232360839844,-89.13595581054688,-5.219427108764648,-0.7331966161727905,-26.97025680541992,-54.90345001220703,-74.71772766113281,-155.992431640625,-0.596359133720398,-2.677222728729248,-10.737018585205078,-53.39711380004883,-41.66282653808594,-61.61334228515625,-6.9593915939331055,2.397477149963379,-6.540859222412109,22.612060546875,21.634326934814453,150.32275390625,-2.800663471221924,1.3346405029296875,-13.932479858398438,151.8126220703125,-75.29048156738281,129.0225830078125,-4.657644271850586,-1.4773602485656738,-5.542016983032227
2434.16495347023,158.93209838867188,-32.571292877197266,-89.2174301147461,-4.922658920288086,-5.194394111633301,-26.713672637939453,-75.72117614746094,-75.96243286132812,-141.82907104492188,8.968969345092773,-3.2125673294067383,-2.468311309814453,-58.47988128662109,-43.47461700439453,-60.81464767456055,-4.297216415405273,2.532637596130371,-7.582481384277344,23.33938217163086,20.80048370361328,163.12013244628906,-13.175086975097656,0.9930834770202636,-8.908025741577148,149.41448974609375,-75.4661865234375,131.30279541015625,-5.43392276763916,0.1733805537223816,-6.925619125366211
2434.194956064224,153.215087890625,-49.82380294799805,-88.51773834228516,-1.7931840419769287,-10.215648651123049,-13.823419570922852,-79.45565795898438,-76.4237289428711,-137.3954315185547,1.1148316860198977,0.5088114738464355,1.4998960494995115,-62.73210525512695,-45.6136360168457,-59.45667266845703,-1.573082685470581,4.863094329833984,-4.967940330505371,26.387163162231445,20.98305892944336,179.22500610351562,-21.966815948486328,-4.88265323638916,-16.00509262084961,146.8679656982422,-76.28258514404297,133.9290313720703,0.6521635055541992,0.9294050931930542,-8.834447860717773
2434.224503993988,145.10888671875,-71.44378662109375,-85.10072326660156,-0.5527957677841187,-5.486926078796387,14.733301162719728,-98.70547485351562,-74.44450378417969,-121.69456481933594,2.892604351043701,-4.391640663146973,3.31704044342041,-67.22111511230469,-48.356727600097656,-58.77728271484375,23.65158462524414,23.652145385742188,-10.617061614990234,30.901391983032227,22.46434593200684,-166.99632263183594,-20.25964736938477,-12.954620361328123,-19.053119659423828,142.04022216796875,-77.51325988769531,138.37315368652344,3.414142608642578,2.5334768295288086,-10.18844223022461
2434.2845034599304,3.4961094856262207,-85.24729919433594,53.28532409667969,4.1347761154174805,13.080314636230469,34.49942779541016,-118.0654525756836,-71.45037841796875,-110.27511596679688,-5.733686447143555,-3.620749473571777,7.325645446777344,-67.38697814941406,-48.95102691650391,-60.769493103027344,-1.5638203620910645,6.059032440185547,0.5857057571411133,42.19291305541992,27.76766395568848,-170.346435546875,8.62820053100586,8.187299728393555,-10.893033981323242,134.21791076660156,-77.80010223388672,144.3540496826172,4.604607582092285,1.364731788635254,-7.364902496337891
2434.315032720566,-12.579275131225586,-70.49881744384766,70.92777252197266,10.008451461791992,20.40335464477539,1.3706083297729492,-121.09932708740234,-70.94428253173828,-109.76879119873048,-7.288016319274902,-3.637826442718506,3.838387489318848,-56.96768569946289,-49.91807174682617,-65.21795654296875,2.9432101249694824,6.265419006347656,-0.9257211685180664,48.28995132446289,33.302459716796875,-177.6787872314453,-0.7548917531967163,-1.709707736968994,-11.592153549194336,127.52999114990234,-77.69086456298828,149.40541076660156,2.727105140686035,-1.0421111583709717,-4.365654945373535
2434.345059633255,-6.690509796142578,-68.53470611572266,67.46226501464844,7.509167671203613,18.35818862915039,-10.837547302246094,-111.2412338256836,-72.75497436523438,-118.6633071899414,-4.798940658569336,-4.66270923614502,4.886907577514648,-52.68829727172852,-51.74168395996094,-68.52478790283203,7.749224662780762,2.2552547454833984,3.0784950256347656,45.14005661010742,38.08060836791992,172.0133056640625,-0.017234057188034,2.471278667449951,-13.46396255493164,136.50277709960938,-77.48191833496094,139.71932983398438,2.136378288269043,0.0481898412108421,0.435647964477539
2434.375048398972,1.85870361328125,-72.82598876953125,60.3915901184082,6.027693748474121,11.365623474121094,0.3601884841918945,-97.4654541015625,-73.20703125,-130.71002197265625,-3.8473010063171382,-3.948850154876709,1.325984001159668,-55.57042694091797,-54.48112487792969,-68.55414581298828,0.0868715047836303,0.492891252040863,13.24424934387207,50.36079025268555,42.91823959350586,155.8069610595703,-2.0233588218688965,1.3596556186676023,-16.115825653076172,151.45095825195312,-76.21852111816406,123.4224624633789,6.292704582214356,4.235637664794922,12.783452987670898
2434.405062437057,20.437576293945312,-78.60777282714844,45.29520797729492,9.499120712280272,6.941540718078613,3.3392772674560547,-87.73585510253906,-71.58245086669922,-138.27088928222656,-5.4182538986206055,-4.843585014343262,-1.6031789779663086,-55.00676345825195,-56.45148468017578,-66.81713104248047,0.6749403476715088,-1.327289581298828,11.9464111328125,60.38142013549805,44.995731353759766,137.55181884765625,0.7531101703643799,-8.115013122558594,-11.247360229492188,160.6808319091797,-75.1407241821289,113.27879333496094,-1.5011184215545654,-0.6718164682388306,9.400114059448242
2434.4345967769623,62.03479766845703,-83.50653839111328,10.12014865875244,9.250864028930664,2.341418743133545,4.72757625579834,-80.23358154296875,-68.59622192382812,-142.81048583984375,-4.061403274536133,-4.004613876342773,-3.0076818466186523,-54.00017547607422,-56.67773818969727,-63.07769393920898,3.029419422149658,-2.891408920288086,3.298068046569824,68.77448272705078,42.2517204284668,121.32669830322266,-9.807756423950195,-13.008586883544922,-3.789330959320069,166.13002014160156,-75.3614273071289,109.0748519897461,-2.714019775390625,0.7327359914779663,1.8171091079711916
2434.46559715271,111.06706237792967,-83.97796630859375,-35.8531608581543,-2.031190872192383,-9.162166595458984,3.263486862182617,-71.64749908447266,-65.4666748046875,-145.5533447265625,-4.17711067199707,-1.0054333209991455,-1.881208896636963,-58.4401969909668,-56.00223922729492,-56.54471206665039,2.2122530937194824,-2.904665470123291,-0.6565694808959961,73.26720428466797,38.00970458984375,107.55376434326172,-7.449804306030273,-5.01539421081543,0.1217107772827148,172.44432067871094,-74.75494384765625,105.94025421142578,0.3433567881584167,0.5811682939529419,-1.366872787475586
2434.4955966472626,134.77935791015625,-85.5561294555664,-62.188114166259766,4.068001747131348,-14.297714233398438,-0.0695524215698242,-56.41460800170898,-61.71537780761719,-145.10946655273438,-21.47897720336914,7.300625801086426,-1.0554933547973633,-64.85099029541016,-55.21687316894531,-48.82817077636719,0.0076610445976257,-1.4249329566955566,-1.4323673248291016,75.36156463623047,32.24407196044922,96.91645050048828,3.6738362312316895,-3.123199939727783,-4.767013549804688,-179.6504669189453,-72.89656829833984,102.41930389404295,1.5516607761383057,-1.8905739784240725,-0.3128747940063476
2434.525138616562,168.19537353515625,-85.5806655883789,-94.03594207763672,-8.703405380249023,3.901201248168945,-0.3961057662963867,-50.14493560791016,-59.90953063964844,-132.83091735839844,-31.449127197265625,-8.925394058227539,-6.108836174011231,-67.77738952636719,-54.30078125,-41.99348068237305,-0.992508053779602,-1.220210075378418,-4.572261810302734,78.28610229492188,26.59832763671875,90.65443420410156,13.908334732055664,-5.390761375427246,-5.385969161987305,-173.19297790527344,-71.70153045654297,100.58416748046876,1.5525267124176023,-0.6258983612060547,-1.5757951736450195
2434.585138320923,-178.4401397705078,-83.74285888671875,-103.55620574951172,5.03071403503418,-9.752941131591797,7.650026321411133,-63.48134231567383,-59.79442596435547,-110.03838348388672,-22.666645050048828,-10.904664993286133,-10.096296310424805,-68.81730651855469,-53.63969039916992,-36.65422058105469,-1.3878498077392578,-1.6568646430969238,-5.008993148803711,93.34673309326172,19.58645248413086,90.18029022216795,5.5144243240356445,-7.259581565856934,-13.920503616333008,-170.9966583251953,-71.025390625,102.68937683105467,-1.5715157985687256,-0.2011660039424896,-4.196056365966797
2434.615152835846,-166.12985229492188,-81.50220489501953,-111.30281066894533,-2.743069648742676,0.5898314714431763,-0.1216068267822265,-89.22318267822266,-59.02480697631836,-82.95899200439453,-7.134742736816406,-8.61246109008789,-15.308843612670898,-68.5093765258789,-54.98200988769531,-34.793514251708984,-3.553917407989502,-1.541945219039917,-1.838706493377685,110.62403869628906,11.796332359313965,89.1129150390625,-4.514087677001953,-0.3153472542762756,30.79634094238281,-174.4752197265625,-70.20799255371094,110.74051666259766,-4.352103233337402,1.0321128368377686,-1.687286376953125
2434.6445124149323,-161.294677734375,-79.65597534179688,-116.73621368408205,0.5236279964447021,0.0773146897554397,1.4240903854370115,-115.3363265991211,-56.0074348449707,-59.65868377685547,4.083725929260254,-3.0776991844177246,-16.758808135986328,-62.7492561340332,-58.06172943115234,-39.07861328125,-5.237844467163086,-1.5140719413757324,2.10498046875,112.81208038330078,4.489645481109619,82.79896545410156,4.012510299682617,-1.8669683933258057,7.119945526123047,175.94554138183594,-67.9988784790039,119.43428802490234,-3.340104579925537,1.4439408779144287,3.2892885208129883
2434.6755125522614,-160.5634002685547,-77.99967956542969,-116.4735336303711,0.976464867591858,-1.1496098041534424,-0.0215387344360351,-134.67236328125,-53.3113899230957,-44.83609390258789,2.53981876373291,2.1582822799682617,-10.81566047668457,-55.81644821166992,-59.6570930480957,-47.8140754699707,-0.0602772235870361,-1.3491506576538086,-0.2705602645874023,114.09420776367188,-4.954706192016602,74.21983337402344,2.042415142059326,3.946785926818848,-3.9325222969055176,171.68746948242188,-66.98350524902344,122.29556274414062,-1.2872960567474363,-0.9617257118225098,2.9224929809570312
2434.7045266628265,-163.67002868652344,-75.91291809082031,-112.83812713623048,1.7459688186645508,-1.8474836349487305,-0.8330659866333008,-143.38522338867188,-55.49639129638672,-37.04489517211914,12.70111083984375,3.5203394889831543,-8.799697875976562,-59.10066986083984,-58.53535079956055,-54.7368392944336,-1.3176302909851074,0.7408171892166138,-2.256962776184082,117.23789978027344,-18.095090866088867,63.59439086914063,6.504755973815918,9.449213027954102,-5.91044807434082,169.9959716796875,-67.64441680908203,124.793212890625,-1.2834560871124268,3.1719307899475098,-2.364327907562256
2434.735054254532,-167.97328186035156,-73.21764373779297,-107.7411651611328,0.4535629749298095,-0.9988718032836914,-0.4766111373901367,-138.3327178955078,-63.3637809753418,-36.96173477172852,18.73031234741211,4.311388969421387,-1.2004995346069336,-64.31123352050781,-55.78001403808594,-60.61833190917969,-3.9287424087524414,5.317024230957031,-0.0460872650146484,115.24388122558594,-34.25475311279297,52.39775466918945,17.153438568115234,1.796706199645996,21.95751190185547,167.93309020996094,-67.75091552734375,126.8076400756836,-1.4883692264556885,2.584749221801758,-4.577847480773926
2434.765053510666,-173.15713500976562,-69.73352813720703,-101.65389251708984,-0.5454754829406738,-1.9192214012146,-1.017603874206543,-128.10183715820312,-71.6465072631836,-42.541770935058594,-23.45581817626953,-3.83344841003418,20.99771881103516,-62.45941162109375,-52.2559814453125,-67.33663940429688,-0.7701834440231323,4.102619171142578,-3.12807846069336,89.4161148071289,-50.441444396972656,47.54286575317383,7.394349098205566,5.509284973144531,16.34149932861328,164.50938415527344,-67.95783233642578,128.53872680664062,-1.1963396072387695,-0.0271482169628143,-3.6708693504333496
2434.7950541973114,-177.7729949951172,-65.34955596923828,-96.683837890625,-1.138664722442627,0.5932977199554443,0.796112060546875,-130.37120056152344,-74.00084686279297,-46.06090545654297,12.037023544311523,9.348867416381836,13.99968719482422,-59.81135177612305,-48.11553955078125,-73.13279724121094,0.6150720119476318,1.0531816482543943,-7.370744705200195,61.07268905639648,-60.55159378051758,50.638065338134766,17.83449935913086,11.189535140991213,-1.989642143249512,160.44154357910156,-69.00800323486328,130.2587432861328,-1.6875495910644531,-1.3341634273529053,-2.301466941833496
2434.824601650238,177.50640869140625,-60.73698043823242,-92.96696472167967,-1.4748430252075195,-4.197563171386719,3.2265424728393555,-136.76502990722656,-72.39617919921875,-47.55815887451172,0.4391310811042785,1.9832215309143064,18.45172500610352,-61.32080459594727,-43.9486083984375,-76.940673828125,0.2338968515396118,2.1255664825439453,-5.715851783752441,66.826171875,-60.169410705566406,51.9197998046875,23.51980972290039,2.120528221130371,-7.389336585998535,156.03135681152344,-71.32452392578125,133.79165649414062,-2.1684741973876958,1.1767160892486572,-1.4254436492919922
2434.885594367981,172.7081298828125,-55.393165588378906,-88.00247955322266,-6.1518659591674805,1.5546209812164309,-1.8760638236999512,-145.118896484375,-66.6283187866211,-46.831180572509766,1.5339086055755615,-14.850833892822266,8.369626998901367,-66.32039642333984,-39.95043182373047,-78.64131927490234,-3.528394222259521,8.616584777832031,4.629412651062012,79.0889892578125,-57.1688117980957,58.82245635986328,-1.6810338497161863,12.078449249267578,2.2995548248291016,149.29827880859375,-73.02144622802734,140.69012451171875,-1.985015869140625,-1.2802653312683103,-0.9731979370117188
2434.9151282310486,170.6780242919922,-50.5923080444336,-82.4030532836914,-4.501724243164063,2.739877223968506,0.83050537109375,-143.36119079589844,-63.042850494384766,-46.80414581298828,0.6182827949523926,-20.965744018554688,7.909547805786133,-68.0979232788086,-35.496150970458984,-77.96961212158203,11.480253219604492,20.518718719482425,31.59926986694336,81.43897247314453,-56.693145751953125,65.0828857421875,3.378063201904297,22.26477432250977,4.378610610961914,143.03501892089844,-74.43054962158203,149.03309631347656,-4.657163619995117,1.0563440322875977,7.809150695800781
2434.9451439380646,170.35328674316406,-47.049835205078125,-77.39476013183594,3.5848093032836914,-0.2825084924697876,1.1981430053710938,-136.84298706054688,-60.06484222412109,-44.08806610107422,-6.860441207885742,-22.952850341796875,11.18756866455078,-65.0629653930664,-26.699129104614254,-76.75947570800781,8.497238159179688,14.334333419799805,6.819551467895508,83.74139404296875,-57.05353164672852,67.3065414428711,10.933094024658203,20.61753463745117,3.394843101501465,138.84693908691406,-74.90214538574219,156.87437438964844,-0.6309287548065186,-0.6788287162780762,7.309364318847656
2434.9751431941986,170.8949737548828,-45.623817443847656,-74.4788818359375,2.650798797607422,5.136690139770508,0.9933300018310548,-141.12295532226562,-56.23740768432617,-36.40692138671875,-3.2205982208251958,-15.557498931884766,12.225957870483398,-65.1087875366211,-13.937191009521484,-72.76863861083984,13.830738067626951,7.232171058654785,29.156932830810547,86.55874633789062,-61.0875129699707,70.6559829711914,0.4976422190666199,11.919626235961914,8.886110305786133,139.5794677734375,-75.55551147460938,158.90402221679688,-0.6182224750518799,-0.5982100963592529,9.60295867919922
2435.0052347183228,170.9481201171875,-47.018699645996094,-72.88902282714844,2.88093376159668,3.973133563995361,1.084857940673828,-147.96612548828125,-54.02128219604492,-28.26449966430664,-2.293463706970215,-7.467312812805176,6.057941436767578,-51.851680755615234,-2.45586371421814,-70.58016967773438,12.78880500793457,-2.5918192863464355,16.279747009277344,89.9222412109375,-71.6240005493164,72.74105072021484,-10.416879653930664,1.4158375263214111,13.836013793945312,139.8331298828125,-76.2659683227539,159.60177612304688,-0.4279727339744568,-2.386998176574707,9.927444458007812
2435.0347740650177,171.94679260253906,-50.58272933959961,-72.34989929199219,0.7741227149963379,1.6509454250335691,3.6907691955566406,-154.13768005371094,-54.11772155761719,-20.678119659423828,-0.5040446519851685,3.5132288932800293,0.7803754806518555,-35.03021240234375,5.364116668701172,-70.67445373535156,3.830841541290283,-7.239234924316406,11.346677780151367,137.76095581054688,-86.42412567138672,30.215620040893555,-5.090336799621582,-13.821813583374023,15.054510116577148,141.1174774169922,-76.57975769042969,160.26513671875,-4.534341812133789,-4.09934139251709,6.816923141479492
