Timestamp,D4:22:CD:00:05:5D_EulerX,D4:22:CD:00:05:5D_EulerY,D4:22:CD:00:05:5D_EulerZ,D4:22:CD:00:05:5D_FreeAccX,D4:22:CD:00:05:5D_FreeAccY,D4:22:CD:00:05:5D_FreeAccZ,D4:22:CD:00:05:5E_EulerX,D4:22:CD:00:05:5E_EulerY,D4:22:CD:00:05:5E_EulerZ,D4:22:CD:00:05:5E_FreeAccX,D4:22:CD:00:05:5E_FreeAccY,D4:22:CD:00:05:5E_FreeAccZ,D4:22:CD:00:05:6B_EulerX,D4:22:CD:00:05:6B_EulerY,D4:22:CD:00:05:6B_EulerZ,D4:22:CD:00:05:6B_FreeAccX,D4:22:CD:00:05:6B_FreeAccY,D4:22:CD:00:05:6B_FreeAccZ,D4:22:CD:00:05:6E_EulerX,D4:22:CD:00:05:6E_EulerY,D4:22:CD:00:05:6E_EulerZ,D4:22:CD:00:05:6E_FreeAccX,D4:22:CD:00:05:6E_FreeAccY,D4:22:CD:00:05:6E_FreeAccZ,D4:22:CD:00:49:AA_EulerX,D4:22:CD:00:49:AA_EulerY,D4:22:CD:00:49:AA_EulerZ,D4:22:CD:00:49:AA_FreeAccX,D4:22:CD:00:49:AA_FreeAccY,D4:22:CD:00:49:AA_FreeAccZ
1431.2606966495514,176.88047790527344,-50.871463775634766,-125.82077026367188,-0.0586156025528907,1.5325887203216553,0.7861833572387695,-131.54714965820312,-39.08892822265625,-33.64762115478516,14.146465301513672,-17.58962631225586,17.002124786376953,-64.64058685302734,-28.730712890625,-74.2217025756836,3.2044520378112797,7.918136596679687,20.457324981689453,99.64488220214844,-49.70174789428711,66.20066833496094,5.7527923583984375,18.74395751953125,13.054027557373049,127.24250793457033,-69.34339141845703,155.51138305664062,-5.031183242797852,-2.504948139190674,7.041921615600586
1431.3023071289062,-171.690185546875,-65.74818420410156,-133.14013671875,2.259084224700928,4.772373199462891,1.1563215255737305,153.40025329589844,-68.95787048339844,-4.759880065917969,5.227099418640137,1.944109916687012,10.73121452331543,-50.02510452270508,25.940778732299805,-56.41217422485352,9.328971862792969,-9.662298202514648,19.263263702392575,-83.30657958984375,-65.59248352050781,-134.49044799804688,-9.314970016479492,-3.039234161376953,15.513080596923828,-166.305908203125,-76.0644760131836,83.12081146240234,1.0994019508361816,-1.2395997047424316,9.415712356567385
1431.3525495529177,-172.5185546875,-63.55133819580078,-131.5561065673828,0.970671534538269,4.399060249328613,2.0313682556152344,164.7402801513672,-74.31352233886719,-14.20524787902832,1.7047855854034424,3.0716357231140137,5.971164703369141,-31.839284896850582,32.54519271850586,-47.09544372558594,0.3808598518371582,-6.126413345336914,8.758459091186523,-71.63629913330078,-63.56299209594727,-135.0623779296875,-17.335765838623047,-8.925037384033203,12.97172737121582,-168.17935180664062,-75.16337585449219,87.3293685913086,-0.7283066511154175,-1.216728448867798,11.300422668457031
1431.38378739357,-173.46096801757812,-63.160892486572266,-130.04058837890625,1.5329465866088867,3.750901699066162,2.5063695907592773,-167.0657196044922,-78.98357391357422,-42.19860458374024,1.4675374031066897,3.2296571731567383,-2.5953497886657715,-24.475074768066406,35.51738739013672,-40.11929702758789,-7.904667854309082,-7.040102958679199,6.27113151550293,-62.88151550292969,-63.78223419189453,-127.69815826416016,-18.884376525878903,-20.07646942138672,2.756908416748047,-161.4161376953125,-74.61054229736328,85.09431457519531,-0.4330898523330688,-0.4245414137840271,11.67412567138672
1431.4120602607727,-174.88462829589844,-64.7968521118164,-127.92859649658205,2.057206630706787,3.0001120567321777,3.1030969619750977,-124.81348419189452,-82.96737670898438,-85.92993927001953,4.295244216918945,4.252510070800781,-3.99338960647583,-22.042598724365234,37.7973747253418,-39.59003829956055,-11.825597763061523,-9.057167053222656,2.800839424133301,-56.443824768066406,-67.11758422851562,-116.12822723388672,-8.283498764038086,-19.021709442138672,-3.077969074249268,-149.5126953125,-74.80520629882812,79.6199722290039,0.7133827209472656,1.3534295558929443,5.675021171569824
1431.4423921108246,-177.15716552734375,-68.53916931152344,-123.72003936767578,-0.925123691558838,3.539590835571289,5.695001602172852,-43.44404602050781,-78.49766540527344,-166.48580932617188,5.984347343444824,7.178622245788574,-1.395395278930664,-21.506141662597656,40.946685791015625,-44.23827362060547,-10.45079231262207,-3.749152660369873,-4.966065406799316,-60.13753509521485,-71.566650390625,-101.46015167236328,-3.875772476196289,-16.990615844726562,-8.422082901000977,-136.34730529785156,-75.11698913574219,73.38204193115234,1.0601203441619873,0.3384110927581787,-2.5421066284179688
1431.4729068279266,179.0108184814453,-74.72427368164062,-118.82337951660156,-6.807120323181152,-10.219249725341797,11.254056930541992,-18.15589904785156,-63.852237701416016,170.34393310546875,-0.5518323183059692,6.679102897644043,-1.4892711639404297,-22.17696189880371,44.78219223022461,-52.63666915893555,-5.739288330078125,-1.746304988861084,-10.15837860107422,-70.2903823852539,-77.13630676269531,-83.27008056640625,-0.5093474388122559,-8.945018768310547,-11.354839324951172,-129.35963439941406,-74.65148162841797,72.16442108154297,3.235921859741211,1.2512717247009275,-8.76869010925293
1431.5019602775574,172.47410583496094,-78.26778411865234,-117.19166564941406,1.5503499507904053,-2.485785484313965,-5.961519241333008,-11.27890968322754,-49.027339935302734,161.04042053222656,-11.422697067260742,7.92534065246582,-6.3298845291137695,-25.90029525756836,48.450645446777344,-66.8147964477539,-0.8122979402542114,-0.9645248651504515,-12.72101593017578,-87.97838592529297,-81.06901550292969,-58.58894729614258,0.8373847007751465,-5.261940002441406,-13.190391540527344,-128.77740478515625,-75.05840301513672,73.84369659423828,5.364981651306152,3.165235996246338,-10.019346237182615
1431.5370790958405,174.86204528808594,-79.16460418701172,-113.5867919921875,10.80892562866211,-11.485057830810549,-9.431329727172852,-15.472569465637209,-38.91315841674805,155.26695251464844,-22.955944061279297,11.950822830200195,-14.902313232421877,-35.68494415283203,49.3203239440918,-89.2740249633789,-4.5704545974731445,-3.028661727905273,-17.784122467041016,-113.95191192626952,-83.41522216796875,-26.78571128845215,3.6563448905944815,-5.7082061767578125,-10.659051895141602,-126.66918182373048,-76.70743560791016,72.11520385742188,0.8599629402160645,0.5564204454421997,-8.561983108520508
1431.5670807361605,-172.45787048339844,-82.5191650390625,-116.88259887695312,0.9483321905136108,-6.170970916748047,-8.885196685791016,-27.03583526611328,-35.8129768371582,153.11331176757812,-13.33448600769043,13.880697250366213,-19.040950775146484,-46.90535736083984,43.8541259765625,-111.60641479492188,-10.93941879272461,-6.438358306884766,-27.09632873535156,-145.89712524414062,-84.34410858154297,9.50319004058838,5.089003562927246,-3.0378894805908203,-8.664892196655273,-120.88156127929688,-78.52391052246094,66.53697967529297,-1.3550119400024414,-1.2245066165924072,-9.71689224243164
1431.622972726822,-167.8025360107422,-84.11990356445312,-118.48529052734376,-2.5275135040283203,21.48120880126953,-6.473911285400391,-30.028657913208008,-36.58553314208984,155.3323211669922,-9.211174011230469,17.03591537475586,-26.633358001708984,-55.11194610595703,35.84342575073242,-122.79478454589844,-6.627714157104492,-9.59321403503418,-16.728012084960938,-176.05198669433594,-83.94900512695312,44.5009765625,4.010112762451172,-1.9022910594940183,-6.229708671569824,-110.99217224121094,-79.18125915527344,58.31743240356445,-1.6022357940673828,-1.1765618324279783,-6.878611564636231
1431.6520402431488,-179.89608764648438,-81.26567077636719,-105.73786926269533,-5.083464622497559,-3.2944698333740234,-3.942240238189697,-31.36627769470215,-42.04231643676758,161.52793884277344,-11.817319869995115,8.473363876342773,-21.16448211669922,-52.795684814453125,35.134517669677734,-122.62004852294922,1.7348673343658447,1.9477500915527344,-3.6733460426330566,164.07566833496094,-81.52933502197266,69.34628295898438,5.634611129760742,-0.9679641723632812,-1.6147775650024414,-98.2320785522461,-79.88788604736328,47.54118347167969,-3.441220760345459,0.119074061512947,-1.6248979568481443
1431.684856414795,172.3275604248047,-78.0897445678711,-94.7682647705078,-0.2168996334075927,-0.7547831535339355,2.656979560852051,-44.992034912109375,-50.126983642578125,174.61349487304688,-16.487640380859375,0.1454131603240966,-13.075132369995115,-42.05169677734375,41.33979415893555,-112.7516632080078,-8.868082046508789,-1.3541827201843262,-11.741239547729492,157.89385986328125,-78.08202362060547,78.25802612304688,7.735320091247559,-0.716890811920166,2.2257394790649414,-90.53623962402344,-80.96971130371094,41.14767837524414,0.0759693682193756,1.466770887374878,1.873997688293457
1431.7123246192932,168.01368713378906,-75.62574768066406,-86.93541717529297,3.423198699951172,-0.66766357421875,2.738067626953125,-71.28197479248047,-56.74161911010742,-165.60189819335938,-15.475879669189451,8.612968444824219,-7.059882164001465,-21.85481834411621,47.28369522094727,-93.18997955322266,-4.529558181762695,-5.651134490966797,-24.41891860961914,156.16920471191406,-74.69889831542969,77.63862609863281,9.07733154296875,-0.2474271655082702,4.361536026000977,-93.43364715576172,-82.50056457519531,43.30747985839844,2.4020419120788574,2.211526870727539,3.1668519973754883
1431.7417061328888,162.96347045898438,-73.55250549316406,-80.85357666015625,-2.290992259979248,0.8279438018798828,1.4889240264892578,-88.9715805053711,-59.20222091674805,-150.7223663330078,5.162365913391113,-14.220020294189451,-4.646880149841309,-0.3377640843391418,47.30308532714844,-68.9548568725586,1.6380422115325928,-9.143781661987305,-15.20708465576172,152.6977996826172,-71.42141723632812,72.91670989990234,7.534427642822266,0.4243385195732116,2.4478683471679688,-96.43302917480467,-83.91659545898438,43.726959228515625,0.525596022605896,-0.7320111989974976,1.0947809219360352
1431.7719645500183,156.78665161132812,-72.1894760131836,-75.33096313476562,-2.023469924926758,1.5877962112426758,3.710748672485352,-95.90997314453124,-62.04213333129883,-143.39776611328125,-11.92839813232422,-14.12995147705078,4.013494491577148,10.004990577697754,41.71538543701172,-49.01890563964844,-0.153245210647583,-1.7313318252563477,-4.77723503112793,145.14691162109375,-67.29176330566406,68.08567810058594,5.950769424438477,1.7247161865234375,3.1149473190307617,-104.17598724365234,-84.26445007324219,49.7993392944336,-1.016822338104248,-3.0071611404418945,0.3860988616943359
1431.8021020889282,150.27102661132812,-71.63758850097656,-69.74299621582031,-0.1307751834392547,1.0774669647216797,1.9518327713012693,-98.63656616210938,-65.09376525878906,-139.27085876464844,-2.985161781311035,-6.813660621643066,8.013463973999023,11.13274383544922,33.02836608886719,-35.16890335083008,-5.058235168457031,-1.3682503700256348,0.4068489074707031,134.86114501953125,-62.79497909545898,64.52216339111328,4.284934043884277,4.157936096191406,4.2152910232543945,-124.36174774169922,-83.88599395751953,68.31266784667969,2.8228254318237305,-0.8704227209091187,1.7011690139770508
1431.8373634815216,143.0919647216797,-71.28060913085938,-64.83534240722656,1.0571391582489014,0.5311942100524902,1.836033821105957,-105.54969787597656,-66.4354019165039,-133.77906799316406,-4.8581647872924805,-1.927090406417847,2.956793785095215,9.607916831970217,23.40704917907715,-24.814350128173828,-1.2366397380828855,2.217069149017334,0.406010627746582,124.85796356201172,-58.22909927368164,63.21334838867188,1.8475661277771,7.551763534545898,0.4293498992919922,-141.7425537109375,-81.60569763183594,81.60713195800781,6.794946670532227,-0.653801441192627,1.3096132278442385
1431.8664600849152,134.63758850097656,-71.25285339355469,-62.529571533203125,7.669267654418945,-1.4059648513793943,4.980377197265625,-111.87451934814452,-67.73358917236328,-128.688720703125,-4.994794845581055,0.6618119478225708,-2.809065341949463,-0.0952999666333198,13.83415699005127,-15.772238731384276,-1.605174541473389,14.154102325439451,-0.5513420104980469,119.48279571533205,-54.41461181640625,62.972801208496094,-0.781475305557251,8.560600280761719,-4.525607109069824,-147.21713256835938,-79.02165222167969,82.7723617553711,9.038698196411133,0.6754869222640991,0.1418714523315429
1431.9219725131989,127.56946563720705,-72.51849365234375,-67.78931427001953,14.46396255493164,6.343204498291016,-0.2421417236328125,-115.44063568115234,-69.32575225830078,-125.65013122558594,-8.073663711547852,-2.7534241676330566,-1.3193645477294922,-22.46167755126953,4.914801120758057,-8.272899627685547,-5.048479080200195,2.117392539978028,-10.094858169555664,116.73046112060548,-53.043212890625,62.517364501953125,-1.1782374382019043,6.437074661254883,-6.866301536560059,-152.62240600585938,-77.38031768798828,86.5159912109375,5.120536804199219,1.0885512828826904,0.5388469696044922
1431.9524772167206,133.9099884033203,-69.84784698486328,-88.27765655517578,20.95513916015625,11.59518814086914,4.937110900878906,-119.58967590332033,-69.79843139648438,-123.42514038085938,-5.931757926940918,-1.4293289184570312,0.0969524383544921,-39.2002067565918,-2.457376480102539,-2.5531702041625977,1.9181528091430664,-21.946212768554688,17.011310577392578,114.1431655883789,-54.0664176940918,62.85212707519531,-1.5934226512908936,3.2872133255004883,-1.8047142028808596,-158.24398803710938,-76.56880187988281,90.94523620605467,-2.908395767211914,2.0191121101379395,2.822627067565918
1431.9825723171234,147.18316650390625,-61.03613662719727,-107.17283630371094,13.585954666137695,3.3362255096435547,4.088407516479492,-122.34711456298828,-69.72270965576172,-122.39043426513672,-3.531732082366944,-0.7060890197753906,0.1624832153320312,-38.948726654052734,-6.937167644500732,0.9524877071380616,0.1086130142211914,7.3616943359375,5.996738433837891,112.6562271118164,-55.66141128540039,64.14588928222656,-2.107283592224121,3.957461357116699,-0.3980722427368164,-161.97952270507812,-75.98603057861328,93.70149993896484,0.611024022102356,2.796559810638428,-0.8995609283447266
1432.0123448371887,156.9991912841797,-49.99959564208984,-118.82097625732422,4.38753604888916,-0.0412802994251251,-0.4945993423461914,-123.95758056640624,-69.6807861328125,-121.31708526611328,-3.6283111572265625,-1.3947982788085938,-0.4683713912963867,-48.58488845825195,-9.730027198791504,4.1459269523620605,-3.352636814117432,6.474997520446777,-2.7003426551818848,112.69908905029295,-56.87714767456055,65.65806579589844,0.5471289157867432,1.9481539726257324,-1.6259136199951172,-166.75213623046875,-75.32511138916016,98.64035034179688,5.125034332275391,0.5498363971710205,-2.8397607803344727
1432.0423481464386,164.34686279296875,-39.20499420166016,-126.09105682373048,-1.3020095825195312,-0.1714380085468292,-6.288734436035156,-125.88765716552734,-69.30989074707031,-119.3660125732422,-3.682455539703369,-0.9105386734008788,-1.5766363143920898,-62.69570541381836,-13.688478469848633,7.678761005401611,-4.946254730224609,-2.52905797958374,3.2921457290649414,112.02538299560548,-57.24592208862305,67.86234283447266,3.222079277038574,0.4269381165504455,-2.9959616661071777,-170.0251922607422,-74.50634002685547,102.48076629638672,-0.1977859437465667,0.6843171119689941,-2.36676025390625
1432.0723538398745,169.09722900390625,-30.67860412597656,-131.45436096191406,-5.00304126739502,0.3785477876663208,-11.302986145019531,-127.76852416992188,-68.55891418457031,-116.49480438232422,-2.8891282081604004,-2.2097702026367188,-1.5688905715942385,-70.4487075805664,-21.42374420166016,12.24581527709961,-0.3611150979995727,0.7029432058334351,1.911137580871582,109.12712860107422,-56.37348937988281,73.65857696533203,6.085326194763184,2.433220386505127,-4.1286163330078125,-169.97238159179688,-74.72552490234375,103.51517486572266,0.0069934967905282,0.8660916090011597,-4.740052223205566
1432.1022644042969,170.32022094726562,-26.147106170654297,-135.97581481933594,-7.233318328857422,-1.3238084316253662,-16.40386199951172,-131.07518005371094,-67.36662292480469,-112.08560943603516,-2.867636203765869,-0.6135717630386353,-1.4795074462890625,-71.83892059326172,-33.812503814697266,17.242977142333984,6.809601783752441,4.267792701721191,4.112629890441895,105.74222564697266,-54.4859733581543,86.68824005126953,8.419771194458008,9.490161895751951,-7.603322982788086,-166.4072265625,-74.97468566894531,100.93682098388672,4.411036491394043,2.25283145904541,-3.7705464363098153
1432.1371958255768,168.15274047851562,-26.88808250427246,-139.28794860839844,-15.185962677001951,-1.817631483078003,-21.46557235717773,-134.9907989501953,-65.76415252685547,-106.94474029541016,-4.4204206466674805,-1.7356846332550049,-1.487262725830078,-64.47986602783203,-49.37546157836914,20.3367862701416,13.44797706604004,10.596118927001951,14.248136520385742,109.69729614257812,-53.52117156982422,106.24860382080078,-3.549746036529541,14.288652420043944,-7.21336555480957,-160.8112335205078,-74.86918640136719,95.79389190673828,6.464282989501953,1.3849515914916992,-0.8269519805908203
1432.1671950817108,168.86407470703125,-31.26019859313965,-141.41734313964844,3.04564905166626,9.479475021362305,29.336200714111328,-139.57174682617188,-63.59751892089844,-101.6322784423828,-5.177973747253418,-1.5294313430786133,-1.82938814163208,-49.68747329711914,-61.13710403442383,19.50750541687012,11.784994125366213,9.259292602539062,15.486333847045898,123.79178619384766,-50.85832977294922,125.16458129882812,-3.8301920890808105,-10.839519500732422,10.494022369384766,-155.5747528076172,-75.36092376708984,90.48383331298828,-0.8679964542388916,0.3772464990615845,-2.757784366607666
1432.1972007751465,169.2670135498047,-32.48249435424805,-141.22911071777344,-19.66796875,-7.683887481689453,-7.785371780395508,-143.0415496826172,-61.52985382080078,-97.64832305908205,-5.831165313720703,-0.6400060653686523,-0.4364480972290039,-34.769535064697266,-65.13121795654297,16.837404251098633,8.822553634643555,3.3715858459472656,8.099323272705078,125.40225982666016,-42.8995361328125,137.7430419921875,22.08721923828125,10.81477165222168,31.301231384277344,-154.57452392578125,-74.6939926147461,89.13684844970703,-1.099538803100586,0.6147236824035645,4.639530181884766
1432.2525687217712,174.6325225830078,-33.913597106933594,-139.8165740966797,-17.665313720703125,-9.048816680908203,8.49616813659668,-145.2321319580078,-60.294090270996094,-95.25337982177734,-5.272808074951172,-0.4597719311714172,0.2488126754760742,-24.759950637817383,-64.2044448852539,15.32791805267334,11.035608291625977,5.817770957946777,6.905200958251953,118.86141204833984,-30.949338912963867,144.30691528320312,13.57683563232422,7.085829734802246,26.88448715209961,-158.86785888671875,-73.34086608886719,92.9739990234375,2.497317314147949,0.4213831424713135,10.300678253173828
1432.281830072403,176.27081298828125,-33.20363998413086,-138.3737030029297,-18.27093505859375,-6.727687835693359,15.336355209350586,-146.7189483642578,-60.25648880004883,-94.12386322021484,-5.4757490158081055,0.6214869022369385,0.76934814453125,-24.838777542114254,-60.77282333374024,13.216571807861328,13.323568344116213,-0.4863286018371582,11.552331924438477,116.7304458618164,-14.60351276397705,142.21868896484375,10.430137634277344,-0.1442291140556335,18.257247924804688,-161.49673461914062,-73.5584945678711,94.39507293701172,3.961374759674072,1.5711708068847656,8.593500137329102
1432.3123462200165,172.46168518066406,-30.459857940673828,-137.33218383789062,-15.10882568359375,-10.064966201782228,7.624479293823242,-147.13421630859375,-61.80550765991211,-94.37368774414062,-4.659510612487793,0.3729724884033203,1.9323501586914065,-30.810667037963867,-55.6314811706543,9.54451847076416,11.859182357788086,-7.998965263366699,7.203624725341797,110.89447784423828,2.843832492828369,137.55551147460938,6.664785385131836,14.561408996582031,9.19289207458496,-165.42825317382812,-74.10472106933594,96.56635284423828,2.545858860015869,3.6993565559387207,8.811775207519531
1432.3423466682434,169.0271759033203,-27.54551315307617,-137.26455688476562,-6.965414047241211,-6.027776718139648,8.326427459716797,-146.5240478515625,-64.95284271240234,-96.20640563964844,-5.794597625732422,0.6527427434921265,2.98469352722168,-42.70576095581055,-50.83356094360352,7.282118797302246,3.659942626953125,-11.629669189453123,6.208311080932617,103.30794525146484,17.847660064697266,135.8723602294922,1.610725164413452,9.124277114868164,-4.188432693481445,-169.6826171875,-74.71344757080078,98.61186981201172,3.344134330749512,2.0558032989501958,7.148160934448242
1432.3723487854004,166.07913208007812,-25.841800689697266,-138.14881896972656,-5.795008659362793,-1.122957706451416,7.658853530883789,-142.0652313232422,-69.78558349609375,-101.8384780883789,-4.70402717590332,-2.041211605072021,6.448234558105469,-53.4881706237793,-47.52513122558594,5.590292453765869,-5.651608467102051,-10.274419784545898,3.953472137451172,96.9737319946289,28.809051513671875,136.55178833007812,-0.641748309135437,5.722551345825195,-1.4297189712524414,-173.75128173828125,-75.65642547607422,100.64471435546876,2.157560348510742,1.173472881317139,3.695942878723145
1432.4017527103424,163.354736328125,-25.36799430847168,-139.54185485839844,-0.9697362184524536,0.5975915193557739,1.2772912979125977,-128.98590087890625,-75.17979431152344,-114.13758850097656,-2.2172508239746094,-9.894298553466797,9.140300750732422,-58.44062423706055,-45.999141693115234,3.5612685680389404,-5.243351936340332,-3.952283382415772,-3.2235169410705566,87.9680404663086,37.34785461425781,139.19918823242188,-3.687419414520264,2.7325611114501958,-3.808051109313965,-177.97885131835938,-76.62930297851562,103.4891357421875,1.5409367084503174,-0.13496795296669,-1.9465079307556152
1432.437284231186,161.6334991455078,-26.61368751525879,-141.1280517578125,-0.2212134599685669,2.2011122703552246,-7.076043128967285,-97.3547821044922,-78.45342254638672,-139.9337921142578,-1.8241181373596191,2.0531163215637207,-5.503296852111816,-63.154666900634766,-45.76354598999024,1.6929486989974976,-3.7325668334960938,-1.9300434589385984,-6.967545509338379,80.13516998291016,43.19327545166016,143.84487915039062,-2.777555465698242,0.9696900844573976,-8.610984802246094,177.90013122558594,-76.65412139892578,106.83587646484376,0.2707282900810241,-0.5965628623962402,-5.50766658782959
1432.466747522354,159.82383728027344,-30.045333862304688,-142.29891967773438,-3.817427635192871,2.485973358154297,-15.596845626831056,-87.43428802490234,-77.56011962890625,-147.91148376464844,-3.1856489181518555,2.1052675247192383,-7.941003799438477,-68.18876647949219,-46.77724075317383,0.0665304586291313,-3.319672107696533,0.2507892847061157,-7.068864822387695,75.57697296142578,46.93747329711914,150.7091064453125,0.9001299142837524,1.250683307647705,-9.35090446472168,177.65028381347656,-76.53463745117188,107.224365234375,-1.7109534740447998,0.9464229345321656,-8.54295539855957
1432.4971401691437,157.86917114257812,-36.544410705566406,-142.82069396972656,-7.315777778625488,0.9399163722991944,-20.43069839477539,-92.16514587402344,-75.65267944335938,-145.05462646484375,-3.419856071472168,-2.810159206390381,-9.533283233642578,-71.46900939941406,-48.55839157104492,-2.053445816040039,-2.5407371520996094,1.7794711589813232,-7.982231140136719,76.035888671875,48.986106872558594,159.19374084472656,1.5726022720336914,-0.4738333821296692,-7.881158828735352,175.80154418945312,-77.09331512451172,108.6948699951172,2.01630973815918,3.019566535949707,-10.01153564453125
1432.5823225975037,155.63433837890625,-46.843658447265625,-142.59820556640625,-7.305858612060547,0.2314817309379577,-15.462406158447266,-101.37158203125,-73.83238983154297,-142.3491973876953,-7.189888000488281,5.680926322937012,-10.978132247924805,-73.1642074584961,-50.846641540527344,-5.005177974700928,-1.463550329208374,2.4394335746765137,-7.969259262084961,80.77275848388672,48.60530853271485,169.1361541748047,-2.299873352050781,-0.4987313151359558,-6.393304824829102,172.15966796875,-77.92826080322266,110.32343292236328,2.9510626792907715,1.018745183944702,-8.655525207519531
1432.589579820633,151.82986450195312,-59.98237228393555,-140.51626586914062,-4.431573867797852,-0.0189641788601875,-6.104428291320801,-116.81597900390624,-71.48041534423828,-135.37290954589844,-7.319466590881348,4.405633926391602,-5.506875991821289,-74.5956802368164,-53.46337890625,-8.711812019348145,-1.6996474266052246,2.790961742401123,-6.500818252563477,86.17044067382812,44.12010192871094,-179.58712768554688,-10.232446670532228,-2.2608046531677246,-11.56862449645996,168.7601318359375,-78.81671142578125,111.2890167236328,0.9129438400268556,0.8154890537261963,-6.64316463470459
1432.6125650405884,140.61363220214844,-74.79254150390625,-130.4389190673828,-5.061313629150391,-1.717254400253296,4.849356651306152,-126.03352355957033,-69.27479553222656,-130.5558319091797,-7.172882080078125,-1.5100550651550293,-7.327619552612305,-75.14531707763672,-56.23973083496094,-13.307099342346191,-2.9374489784240723,3.0752921104431152,-4.918539047241211,87.53958892822266,35.6124153137207,-169.43409729003906,-18.883220672607425,-5.591909408569336,-17.14141845703125,167.37705993652344,-79.72773742675781,110.86564636230467,1.906320571899414,-0.2894639372825622,-3.17085075378418
1432.6415693759918,48.82340621948242,-82.45108795166016,-37.43296051025391,8.345869064331055,-1.0853374004364014,18.533966064453125,-131.25115966796875,-66.4950180053711,-127.09852600097656,-3.9962387084960938,-5.401283264160156,-3.495506763458252,-73.45784759521484,-57.62384033203125,-19.557676315307617,-5.502979278564453,8.010648727416992,-0.9269542694091796,91.48095703125,29.325687408447266,-163.6984100341797,-3.1271486282348637,-3.412305355072021,-12.321453094482422,166.1038360595703,-80.93791961669922,111.59102630615234,0.55003821849823,-1.543410301208496,-0.9868144989013672
1432.671743631363,18.373924255371094,-71.07770538330078,3.407111406326294,30.122722625732425,-11.579774856567385,-5.451454162597656,-135.56149291992188,-63.14352035522461,-124.3491439819336,-2.2484283447265625,-2.6392321586608887,2.705573081970215,-71.14580535888672,-56.98881149291992,-27.256046295166016,-0.8560171127319336,6.82432746887207,-0.3107452392578125,105.81542205810548,33.98138427734375,-163.42660522460938,8.439634323120117,-1.2846195697784424,-7.67912483215332,167.28170776367188,-82.23751831054688,111.4084701538086,-1.073232650756836,-1.908452033996582,-0.8670015335083008
1432.7018148899078,25.00582695007324,-68.52535247802734,8.697915077209473,12.603851318359377,31.155075073242188,-14.011676788330078,-138.4329071044922,-59.97001266479492,-123.5298309326172,-7.00954532623291,-5.864211082458496,5.376248359680176,-70.22573852539062,-55.50981140136719,-33.28948211669922,-1.3497097492218018,1.9134910106658936,-1.580526351928711,121.2282943725586,44.34752655029297,-164.86538696289062,0.6646871566772461,-2.238060474395752,-3.620511054992676,174.39010620117188,-83.01517486572266,104.63714599609376,8.905679702758789,1.1223158836364746,2.341703414916992
1432.737060546875,42.14243316650391,-72.94145202636719,-5.974946022033691,23.54578018188477,8.686376571655273,-9.37979507446289,-136.5314483642578,-57.4459342956543,-125.06790924072266,-5.110248565673828,-1.9524800777435305,7.13300895690918,-70.11814880371094,-55.09998321533203,-35.25104522705078,-1.4211103916168213,1.0269114971160889,3.0927038192749023,126.8568878173828,58.419898986816406,-170.18479919433594,-8.246362686157227,-4.7204790115356445,-4.133563041687012,175.6725311279297,-82.75430297851562,103.5431137084961,8.052019119262695,1.8238017559051516,9.572837829589844
1432.7671914100647,68.71861267089844,-76.67726135253906,-30.712966918945312,-4.690751075744629,-11.17424774169922,8.952529907226562,-132.15646362304688,-56.39859008789063,-129.19326782226562,-3.871819972991944,-0.4662153720855713,4.783479690551758,-68.89694213867188,-56.80739212036133,-33.97865676879883,-0.3486387729644775,1.5481665134429932,10.418951034545898,116.71399688720705,72.39897155761719,171.34136962890625,-10.076581954956056,4.90562915802002,-8.873191833496094,177.43646240234375,-81.76388549804688,101.75659942626952,0.5674000978469849,1.451059103012085,6.136791229248047
1432.8220584392548,86.45710754394531,-78.54702758789062,-49.07088470458984,-0.4292584061622619,-6.504976272583008,5.379197120666504,-125.10162353515624,-56.72856140136719,-135.8879852294922,-8.403097152709961,-3.3460922241210938,3.744635581970215,-68.0195541381836,-58.90547943115234,-30.297687530517575,1.7872002124786377,1.3970301151275637,11.772275924682615,66.02029418945312,78.26966857910156,114.72476196289062,-1.1448402404785156,-0.4964054226875305,-5.451132774353027,-179.8563690185547,-80.27992248535156,100.78751373291016,-0.012470681220293,-0.6042057275772095,0.7317781448364258
1432.8521814346311,106.3590087890625,-78.99211120605469,-67.39443969726562,-11.42629623413086,13.697555541992188,6.77202033996582,-114.58203887939452,-57.71587753295898,-145.18336486816406,-10.041088104248049,-6.656903266906738,-3.476045608520508,-66.98955535888672,-59.42694854736328,-25.36976623535156,3.421192169189453,0.0968817472457885,5.767167091369629,28.675201416015625,70.17695617675781,67.98221588134766,6.446849822998047,-6.360403060913086,2.541635513305664,-176.91793823242188,-78.80766296386719,101.82510375976562,-3.283444881439209,-0.2445861995220184,-0.0266170501708984
1432.882179260254,123.2857666015625,-79.52794647216797,-82.58200073242188,-1.7900638580322266,0.3321045041084289,0.7331514358520508,-101.5907211303711,-58.07753753662109,-150.85995483398438,-17.445858001708984,8.401679992675781,-10.456748962402344,-69.79804229736328,-58.54933166503906,-18.86977195739746,3.717778205871582,-2.450666904449463,0.545414924621582,28.773832321166992,57.3953971862793,54.53880310058594,7.179142951965332,-11.27646255493164,-5.130805969238281,-171.51394653320312,-76.86598205566406,101.65695190429688,-5.664427757263184,-1.275696039199829,-2.1332850456237797
1432.9118208885193,137.9854736328125,-80.4205322265625,-96.90221405029295,2.174818515777588,1.467379808425903,1.202352523803711,-96.21438598632812,-58.91204071044922,-142.86477661132812,-33.12003326416016,14.63516616821289,-7.543026924133301,-73.7886734008789,-57.250186920166016,-12.224136352539062,-0.0283481776714324,-1.0032846927642822,-2.0697340965271,40.58941268920898,44.83149719238281,49.762451171875,5.286499977111816,-1.667322874069214,-7.7676591873168945,-170.21458435058594,-73.34539031982422,104.6092300415039,-3.2738595008850098,-0.691372275352478,-0.1000680923461914
1432.9418787956238,148.3613739013672,-81.22840118408203,-107.37163543701172,4.5456390380859375,-2.6477479934692383,0.0081691741943359,-108.40303802490234,-58.53718566894531,-122.40009307861328,-22.762863159179688,-0.945594310760498,-5.295886039733887,-74.77840423583984,-56.9886589050293,-7.50125789642334,-1.2967846393585205,-0.852891206741333,-5.975777626037598,50.7263298034668,32.79718399047852,47.24913787841797,-0.7953720092773438,6.741219520568848,-7.399636268615723,-173.22286987304688,-72.04261779785156,108.7876205444336,-0.3719438910484314,0.0418825298547744,3.962368965148926
1432.9720211029053,157.2416534423828,-81.97236633300781,-114.91719818115234,3.6125335693359375,-1.286245584487915,0.1183271408081054,-126.1810531616211,-56.723182678222656,-100.81058502197266,-8.003278732299805,-3.847969055175781,-8.831182479858398,-74.9103775024414,-58.84893798828125,-5.1202712059021,-3.365514278411865,-2.212858200073242,-4.572136878967285,58.220924377441406,21.014545440673828,44.40188217163086,-2.0855188369750977,7.146944999694824,-8.478828430175781,-175.24478149414062,-71.61383819580078,111.64250946044922,-2.860980987548828,1.928269624710083,1.6535634994506836
1433.0021722316742,165.29791259765625,-82.77222442626953,-121.60362243652344,-0.0483784824609756,1.2466027736663818,0.5534858703613281,-139.60862731933594,-54.00763702392578,-83.28646087646484,0.3680020570755005,1.0865392684936523,-10.30559539794922,-73.04916381835938,-61.95356750488281,-6.397332191467285,-5.0928239822387695,-2.947573184967041,-0.6968097686767578,66.95134735107422,9.341646194458008,41.88569259643555,0.8553467988967896,10.943368911743164,-3.911655902862549,-176.2223663330078,-71.58840942382812,113.50180053710938,-3.0110673904418945,2.389519214630127,-1.204996109008789
1433.0369086265564,174.10580444335938,-83.20886993408203,-129.70777893066406,-1.5621373653411863,0.5933504104614258,0.1072769165039062,-148.09080505371094,-51.60075378417969,-70.03974914550781,2.431029319763184,1.46608567237854,-9.57752799987793,-70.24951171875,-63.13438415527344,-11.355231285095217,-6.225611686706543,-0.94110369682312,1.618189811706543,70.67025756835938,-1.5977061986923218,41.05974578857422,3.401820182800293,10.495244979858398,1.8454694747924805,-178.48182678222656,-71.90132904052734,115.64604949951172,-0.7045785188674927,2.4711480140686035,-3.846848487854004
1433.0670692920685,-179.66336059570312,-82.68348693847656,-136.06439208984375,-1.1769227981567385,-2.073593616485596,-1.163294792175293,-154.99081420898438,-50.37516403198242,-60.676231384277344,1.2496893405914309,-0.4590367674827575,-5.123880386352539,-68.1815414428711,-61.87415313720703,-17.76643180847168,-4.865464210510254,-0.8956031799316406,-0.9768457412719728,67.17057037353516,-11.796595573425291,44.846771240234375,8.661897659301758,13.209129333496094,3.953038215637207,177.2151336669922,-72.3690185546875,119.14788055419922,0.57902991771698,1.372666358947754,-6.191259384155273
1433.1217966079712,179.86114501953125,-80.81502532958984,-135.55087280273438,-0.3072457909584045,-4.962700843811035,-1.7894620895385742,-160.12258911132812,-50.91120910644531,-53.95249557495117,8.934925079345703,-2.8972463607788086,-2.493448257446289,-63.71369934082031,-59.29240798950195,-25.08433723449707,-2.205298900604248,-0.8742103576660156,-3.60189151763916,58.614532470703125,-20.388370513916016,54.920631408691406,14.685422897338867,19.48923110961914,0.7434329986572266,171.60818481445312,-72.34398651123047,123.23031616210938,1.567533016204834,-0.8678880929946899,-7.5940399169921875
1433.1520936489103,176.27688598632812,-77.61312103271484,-131.0588836669922,-1.888279676437378,-1.681485891342163,-1.8744139671325684,-162.33128356933594,-53.53312301635742,-52.02030563354492,14.43112564086914,-4.9006757736206055,-6.128762245178223,-58.66365432739258,-55.42464828491211,-33.55611801147461,0.4702460169792175,-0.4963839054107666,-5.510707855224609,57.77214431762695,-28.420825958251957,62.76848220825195,11.872713088989258,19.36711883544922,-6.278683662414551,163.2537384033203,-72.40959167480469,129.5012664794922,-0.1318526268005371,0.4092525839805603,-5.546076774597168
1433.1825618743896,173.2860565185547,-73.35942077636719,-129.18630981445312,-1.1004276275634766,-1.6514766216278076,0.086954116821289,-159.61338806152344,-55.09172439575195,-52.50537872314453,-6.37666130065918,4.5254621505737305,12.980989456176758,-54.605690002441406,-50.54564666748047,-42.9635009765625,0.4978566169738769,-2.1656126976013184,-5.931781768798828,64.48702239990234,-30.91658592224121,59.19960021972656,11.75953483581543,4.116427421569824,6.741750717163086,154.69052124023438,-72.99254608154297,137.24424743652344,-5.350508689880371,-0.617340087890625,-3.373131275177002
1433.2124609947205,170.51133728027344,-68.13349914550781,-130.31809997558594,-2.4246644973754883,1.0773987770080566,2.597127914428711,-162.4724884033203,-54.56878662109375,-53.5652961730957,14.584869384765623,-2.461219787597656,0.7946462631225586,-54.09648132324219,-45.41965103149414,-52.38605880737305,0.2261185646057129,-3.826247215270996,-4.179971694946289,67.36578369140625,-27.78448867797852,51.94843292236328,15.044939041137695,14.924249649047852,-9.192289352416992,148.82351684570312,-73.76121520996094,143.0445098876953,2.208282470703125,3.1155247688293457,-5.13986873626709
1433.24156498909,169.16201782226562,-62.057952880859375,-131.71653747558594,3.4889473915100098,-1.180797100067139,-3.7179980278015137,-160.48794555664062,-55.88013458251953,-55.45021057128906,6.050915718078613,-12.515813827514648,13.2601318359375,-61.83861541748047,-38.722442626953125,-59.97570037841797,-6.23020076751709,1.9666106700897217,4.026314735412598,75.93330383300781,-25.95989990234375,47.92116165161133,19.29584503173828,18.73490524291992,-11.290754318237305,144.8820037841797,-72.65879821777344,146.82008361816406,-0.1678868234157562,1.067150592803955,5.969030380249023
1433.272324800491,171.3946990966797,-56.09355163574219,-132.66256713867188,3.116294860839844,1.0445611476898191,-1.246664047241211,-160.36627197265625,-53.97576522827149,-57.226192474365234,-1.6586689949035645,-13.704694747924805,13.042879104614258,-65.69178009033203,-29.76651763916016,-65.05725860595703,-0.8149499893188477,14.517017364501951,21.45987701416016,81.8593978881836,-28.42850875854492,46.66453552246094,12.776512145996094,16.035110473632812,4.616206169128418,142.71356201171875,-70.44763946533203,148.24217224121094,-5.133083343505859,-2.193335056304932,11.18886947631836
1433.3019318580627,173.92529296875,-51.97434616088867,-133.36526489257812,4.027800559997559,-0.5034343004226685,2.3070030212402344,-157.39376831054688,-49.75878143310547,-58.13953399658203,-4.826662063598633,-13.41484260559082,14.626104354858398,-68.17350006103516,-20.18161392211914,-66.2169189453125,-5.270451545715332,19.823047637939453,18.11309051513672,84.5452880859375,-35.82512664794922,46.358642578125,15.11102294921875,12.181922912597656,12.70844841003418,142.0246124267578,-70.19576263427734,147.511474609375,-3.126637458801269,0.5360202789306641,13.512632369995115
1433.3367767333984,175.14239501953125,-50.54065704345703,-133.55691528320312,2.0396270751953125,1.44976544380188,1.851729393005371,-151.6938934326172,-44.82558822631836,-58.76457214355469,6.430885314941406,-22.5566520690918,12.043447494506836,-66.26757049560547,-7.149726390838623,-61.90513229370117,-3.964597702026367,10.115604400634766,26.058494567871094,93.0947723388672,-44.41339492797852,45.07189178466797,3.8668971061706543,11.26584243774414,15.264137268066406,141.1224822998047,-69.71158599853516,146.8214874267578,-3.6215367317199703,-3.248224258422852,8.401605606079102
1433.3667085170746,175.92494201660156,-51.47453308105469,-132.97189331054688,2.009674549102783,0.2651005387306213,0.926677703857422,-155.16305541992188,-39.24357223510742,-58.81866836547852,-2.058313369750977,-12.40866470336914,4.254740715026856,-53.35860061645508,4.721908092498779,-54.26814270019531,-4.502307891845703,1.2947402000427246,8.251287460327148,96.96395111083984,-52.67418670654297,44.12686538696289,-0.8551523685455322,1.0268855094909668,13.425308227539062,139.32901000976562,-70.3728256225586,148.03302001953125,-5.725249290466309,-2.67653751373291,5.8810014724731445
1433.3970136642456,176.65188598632812,-53.67668914794922,-132.24659729003906,-1.4923386573791504,0.906193733215332,2.8467931747436523,-163.97378540039062,-36.21725463867188,-58.4365463256836,5.940126419067383,-4.447425842285156,4.440182685852051,-36.76630783081055,10.81567096710205,-44.5438346862793,-7.314094543457031,-4.4898881912231445,5.235122680664063,105.7606964111328,-58.41950988769531,45.776817321777344,-1.6045143604278564,-1.6657888889312744,6.645551681518555,139.28829956054688,-72.1694107055664,149.1763153076172,-7.458071708679199,-0.8896477222442627,7.346824645996094
1433.4536681175232,177.42376708984375,-56.81871032714844,-132.3612823486328,0.0134974997490644,1.5733094215393066,2.357417106628418,-165.12911987304688,-37.55219650268555,-59.34955596923828,2.108048915863037,3.446842670440674,4.113757133483887,-17.69875144958496,11.422234535217283,-36.31978225708008,-4.403694152832031,-8.270597457885742,2.502847671508789,117.70491027832033,-62.59035873413086,49.21881103515625,-5.508068084716797,-8.875638961791992,2.3961668014526367,143.0420684814453,-74.26617431640625,148.0861358642578,-3.109201431274414,0.3655896186828613,2.8463001251220703
1433.4824664592743,177.96630859375,-61.47513198852539,-132.303955078125,0.3519001007080078,0.9338200092315674,3.1250696182250977,-163.4538116455078,-41.44123840332031,-61.91797256469727,5.836162567138672,9.531057357788086,-1.6777009963989258,-0.9770383834838868,10.457435607910156,-32.15935134887695,0.6575732231140137,-6.099189758300781,0.0026540756225585,129.07174682617188,-65.13836669921875,50.940425872802734,-3.5650782585144043,-7.301717758178711,-5.768481254577637,151.1316680908203,-75.6424331665039,142.8891143798828,-0.4027193784713745,1.4981293678283691,-0.2049932479858398
1433.5120005607605,175.27354431152344,-69.85031127929688,-132.41552734375,-4.824823379516602,5.073976516723633,2.32486629486084,-158.3455047607422,-46.55683898925781,-67.5233383178711,8.35426139831543,10.69717025756836,-6.586788177490234,10.632162094116213,10.164886474609377,-31.268644332885746,-0.455031156539917,-5.868891716003418,-2.47391128540039,144.4272003173828,-66.20173645019531,49.77600860595703,-2.7864198684692383,-6.84739875793457,-11.30268669128418,161.34608459472656,-76.63875579833984,135.3418731689453,-0.4314039349555969,1.6420292854309082,-4.600006103515625
