Timestamp,D4:22:CD:00:05:5D_EulerX,D4:22:CD:00:05:5D_EulerY,D4:22:CD:00:05:5D_EulerZ,D4:22:CD:00:05:5D_FreeAccX,D4:22:CD:00:05:5D_FreeAccY,D4:22:CD:00:05:5D_FreeAccZ,D4:22:CD:00:05:5E_EulerX,D4:22:CD:00:05:5E_EulerY,D4:22:CD:00:05:5E_EulerZ,D4:22:CD:00:05:5E_FreeAccX,D4:22:CD:00:05:5E_FreeAccY,D4:22:CD:00:05:5E_FreeAccZ,D4:22:CD:00:05:6B_EulerX,D4:22:CD:00:05:6B_EulerY,D4:22:CD:00:05:6B_EulerZ,D4:22:CD:00:05:6B_FreeAccX,D4:22:CD:00:05:6B_FreeAccY,D4:22:CD:00:05:6B_FreeAccZ,D4:22:CD:00:05:6E_EulerX,D4:22:CD:00:05:6E_EulerY,D4:22:CD:00:05:6E_EulerZ,D4:22:CD:00:05:6E_FreeAccX,D4:22:CD:00:05:6E_FreeAccY,D4:22:CD:00:05:6E_FreeAccZ,D4:22:CD:00:49:AA_EulerX,D4:22:CD:00:49:AA_EulerY,D4:22:CD:00:49:AA_EulerZ,D4:22:CD:00:49:AA_FreeAccX,D4:22:CD:00:49:AA_FreeAccY,D4:22:CD:00:49:AA_FreeAccZ
554.0274922847748,131.37142944335938,-52.80353546142578,-124.28854370117188,-4.658226013183594,-4.723237037658691,-3.5592617988586426,106.59183502197266,-82.44270324707031,42.45928192138672,-11.840093612670898,0.7348133325576782,-2.429173469543457,-2.284360885620117,60.16750717163086,-73.40315246582031,0.4547300338745117,-15.01158332824707,-39.61749267578125,-34.41078186035156,9.83585262298584,-29.407615661621094,7.8798370361328125,1.2251267433166504,-11.967391967773438,148.24740600585938,-74.29288482666016,-165.1314697265625,-0.9186718463897704,-2.3133082389831543,-6.880019187927246
554.0480558872223,176.1376190185547,-53.07977294921875,-113.24398040771484,-0.6571452617645264,0.7052707672119141,1.3704490661621094,136.38328552246094,-75.49772644042969,-7.333754539489746,16.263526916503906,-7.214017868041992,10.284114837646484,-45.20541763305664,-1.6406255960464478,-55.66226577758789,5.048681259155273,-4.957987785339356,23.04052352905273,-25.70385360717773,9.67536163330078,-22.801971435546875,16.55227279663086,0.4534478783607483,-13.863285064697266,139.71080017089844,-73.64399719238281,149.04701232910156,-1.5264911651611328,-0.5726159811019897,9.572103500366213
554.0940508842468,176.98008728027344,-56.44388198852539,-116.39374542236328,0.0751902014017105,1.8820350170135496,2.8029441833496094,166.88412475585938,-55.70500946044922,-40.895973205566406,0.4596982002258301,0.3704760670661926,4.036942481994629,-4.011066913604736,16.8851375579834,-43.36822509765625,-1.0472493171691897,-9.029256820678713,0.331395149230957,130.19252014160156,-78.470703125,-1.7773889303207395,-3.077322006225586,-2.6483044624328613,2.289113998413086,175.30886840820312,-72.95063781738281,117.32307434082033,-5.357409477233887,-3.51041030883789,7.142236709594727
554.1241374015808,179.29861450195312,-60.89458465576172,-120.01143646240234,3.2592310905456543,0.4969162344932556,3.4741029739379883,179.33950805664062,-60.943504333496094,-47.84201431274414,1.990180492401123,3.57613468170166,-2.045859336853028,-2.818181037902832,22.34161376953125,-41.52798080444336,-4.896166801452637,-9.244504928588867,-1.966383457183838,123.82896423339844,-79.54605865478516,17.724937438964844,-3.814889430999756,-0.6599069833755493,0.4729881286621094,-158.14102172851562,-70.74555969238281,96.23773193359376,0.1974991559982299,0.6490288972854614,4.287418365478516
554.183690071106,-178.91233825683594,-67.21893310546875,-121.66498565673828,-1.932190418243408,-3.06235933303833,6.325952529907227,-165.48187255859375,-66.2950210571289,-57.07514190673828,6.313494682312012,3.969424247741699,-10.18177604675293,-5.538959980010986,27.278060913085938,-39.10002899169922,-3.703493118286133,-5.357622146606445,-3.9380712509155273,150.1749725341797,-81.41184997558594,8.413599967956543,-10.616680145263672,-1.1394243240356443,-2.306405544281006,-144.3583526611328,-69.4105453491211,88.4442138671875,-0.5716643333435059,-0.375393807888031,-3.683701038360596
554.2136890888214,176.6300811767578,-74.83615112304688,-120.08522033691406,0.4250321984291076,-3.826021194458008,1.2094526290893557,-137.7757568359375,-72.03706359863281,-80.1531982421875,7.55531120300293,5.43247127532959,-12.607229232788086,-9.373068809509276,31.48006248474121,-36.97137069702149,-4.535624504089356,-3.3749632835388184,-7.745526313781738,-174.70245361328125,-78.6002426147461,-13.90848445892334,-8.797819137573242,-7.3803863525390625,-5.023903846740723,-133.86839294433594,-66.74472045898438,85.54243469238281,-3.808538913726807,-1.7097957134246826,-7.977938652038574
554.2432069778442,170.16165161132812,-75.46441650390625,-108.41988372802734,4.474730491638184,4.78763484954834,-3.312915802001953,-96.42843627929688,-73.01166534423828,-120.31372833251952,4.513026237487793,7.562503814697266,-9.268350601196287,-10.168931007385254,33.543636322021484,-37.85313034057617,-3.303550720214844,-1.8240456581115725,-9.276603698730469,-160.34536743164062,-74.75884246826172,-19.78569793701172,-4.144868850708008,-5.203828811645508,-6.536148071289063,-125.55148315429688,-64.14217376708984,84.36762237548828,0.0457148551940918,0.6039167642593384,-9.747274398803713
554.2738852500916,167.60565185546875,-72.00312805175781,-97.43405151367188,-0.7293747663497925,-4.06546688079834,-8.91366958618164,-70.09982299804688,-67.34010314941406,-149.31336975097656,-5.534185409545898,5.419175148010254,-7.164155960083008,-10.314825057983398,32.17266082763672,-42.83269119262695,-1.049133062362671,1.853667974472046,-12.405557632446287,-148.07443237304688,-71.79145050048828,-23.21828842163086,-1.060105800628662,-4.974072456359863,-5.968866348266602,-119.66722106933594,-64.54978942871094,82.85294342041016,6.649293899536133,3.5545549392700195,-8.27247428894043
554.3039817810059,165.3326416015625,-71.71539306640625,-90.3078384399414,1.5032565593719482,-6.065417289733887,-11.927236557006836,-63.92988967895508,-61.3694953918457,-162.70529174804688,-10.952327728271484,5.578527450561523,-3.523016929626465,-11.697166442871094,27.1972599029541,-52.42269515991211,1.1289355754852295,3.1459507942199707,-13.119840621948242,-138.02859497070312,-70.11283874511719,-24.7480525970459,0.8849314451217651,-5.582705497741699,-6.1588897705078125,-114.75334167480467,-67.21244049072266,80.22882080078125,1.6119112968444824,1.028562307357788,-6.211146354675293
554.3339900970459,167.7443084716797,-72.69094848632812,-87.32951354980469,1.8885419368743896,5.381961822509766,4.750105857849121,-63.50994110107422,-56.55302047729492,-169.27316284179688,-14.252347946166992,7.857753753662109,-1.8989219665527344,-15.61274528503418,18.331031799316406,-64.17513275146484,1.622633934020996,-4.760988235473633,-14.418771743774414,-133.6471405029297,-69.8221664428711,-23.572296142578125,1.8867933750152588,-6.015225410461426,-4.587680816650391,-106.74991607666016,-69.78617095947266,75.52667236328125,-1.102100133895874,-0.5691522359848022,-4.763893127441406
554.3633859157562,169.46726989746094,-72.57176971435547,-86.52860260009766,2.3220553398132324,-2.7905445098876958,-2.9525628089904785,-64.7813720703125,-54.63076400756836,-171.26324462890625,-17.898174285888672,5.991522789001465,-9.790334701538086,-25.63149070739746,6.714090347290039,-73.90079498291016,4.191271781921387,-20.532691955566406,-13.609460830688477,-134.67466735839844,-69.88392639160156,-20.066614151000977,3.9631752967834473,-6.138903617858887,-1.8733673095703125,-100.89461517333984,-71.4608383178711,72.4381103515625,1.85178017616272,4.492810249328613,-2.116156101226806
554.393373966217,171.23374938964844,-71.82286834716797,-85.08871459960938,-0.3766676187515259,-2.3331189155578613,1.0472412109375,-73.80410766601562,-56.25533676147461,-167.75479125976562,-14.67380714416504,6.480279922485352,-6.710906028747559,-39.0584831237793,-3.793048620223999,-79.3009033203125,-7.277941703796387,-8.48038101196289,-14.712472915649414,-136.96788024902344,-69.73661804199219,-16.960010528564453,5.533917427062988,-5.696898460388184,-2.2436118125915527,-100.2540054321289,-72.9542007446289,70.37421417236328,3.5466036796569824,4.749313354492188,0.2331056594848632
554.4235420227051,170.73223876953125,-71.45206451416016,-83.15158081054688,-0.3467957377433777,-1.4355254173278809,2.7364416122436523,-91.91383361816406,-58.760623931884766,-155.8394012451172,-14.264249801635742,6.173860549926758,-6.589349746704102,-55.34451675415039,-2.0455710887908936,-72.65151977539062,-3.364687919616699,3.51580810546875,2.915593147277832,-137.77450561523438,-68.85433959960938,-15.674463272094728,7.036285400390625,-5.278221130371094,-2.1634325981140137,-99.89086151123048,-74.36001586914062,67.91499328613281,0.3352059125900268,-1.4998459815979004,1.9162664413452148
554.4843022823334,168.90695190429688,-71.58776092529297,-80.62168884277344,1.233090877532959,-2.3201327323913574,2.7296600341796875,-119.66643524169922,-58.25236129760742,-135.9246368408203,-11.11591911315918,5.341281890869141,4.232494354248047,-63.20948028564453,4.858461856842041,-62.38431930541992,0.343390941619873,-13.105907440185549,6.225912094116211,-138.71792602539062,-67.17227172851562,-14.518315315246582,10.644247055053713,-5.915341377258301,-2.774209976196289,-101.83264923095705,-76.05355072021484,67.56910705566406,-1.3163321018218994,-1.6077959537506104,1.733808517456055
554.5140721797943,165.593505859375,-72.00318145751953,-77.20094299316406,-1.2475347518920898,-0.874289870262146,1.6051454544067385,-133.92416381835938,-56.91595458984375,-122.41668701171876,-1.8355588912963867,-17.743484497070312,-2.8322572708129883,-57.96979141235352,12.489143371582031,-51.61299133300781,7.269650459289551,-9.275789260864258,-3.783884048461914,-142.83116149902344,-65.46026611328125,-12.768917083740234,13.339580535888672,-7.305783271789551,-3.695010185241699,-107.46025848388672,-77.18354034423828,70.56201934814453,0.473436176776886,-1.3570780754089355,2.024478912353516
554.5439715385437,159.77743530273438,-72.46560668945312,-72.11766815185547,0.8321470022201538,-1.7702436447143557,0.1156949996948242,-138.60447692871094,-58.7071418762207,-115.2554702758789,-6.116868019104004,-14.460235595703123,-2.5652589797973637,-53.61604690551758,18.658206939697266,-40.66818618774414,1.4741272926330566,-1.2497296333312988,2.978952407836914,-154.31793212890625,-64.50650024414062,-9.023448944091797,10.569530487060549,-7.0518293380737305,-2.9121785163879395,-111.12346649169922,-77.85408782958984,71.91917419433594,-0.101917877793312,-1.018397569656372,-2.1717300415039062
554.5739243030548,152.10308837890625,-72.77029418945312,-65.46426391601562,-0.6788609027862549,-0.9160329103469848,1.7412519454956057,-145.5787811279297,-60.60976791381836,-107.92904663085938,0.0369844660162925,-6.090062141418457,-0.0672721862792968,-46.55391311645508,21.85267448425293,-29.63018035888672,-3.861820697784424,2.0609402656555176,-0.958465576171875,-173.1629180908203,-63.51373291015625,-2.5567216873168945,10.829574584960938,-3.656405448913574,0.0400962829589843,-118.1312484741211,-77.61524963378906,77.097900390625,1.014314889907837,-0.5402826070785522,-0.8043899536132812
554.6039237976074,143.28282165527344,-72.61903381347656,-57.7207145690918,-0.4104146957397461,-1.581632137298584,1.698221206665039,-150.82247924804688,-61.14231872558594,-102.79894256591795,-7.86453914642334,-1.942793369293213,-5.262863159179688,-40.47356414794922,22.022619247436523,-17.846805572509766,-10.443344116210938,6.897882461547852,-0.4666147232055664,169.77767944335938,-61.88193130493164,3.674445867538452,13.32935905456543,1.644680738449097,1.7410011291503906,-124.55584716796876,-77.41925048828125,81.38710021972656,3.169610023498535,-1.430588722229004,1.383671760559082
554.6334490776062,132.1107177734375,-72.00901794433594,-48.90553665161133,4.044841766357422,-5.309661865234375,2.7160749435424805,-152.6122283935547,-59.98982620239258,-99.8243408203125,-0.7698863744735718,-0.7038983106613159,0.7071542739868164,-36.388973236083984,20.152793884277344,-4.350656509399414,-10.026281356811523,8.017631530761719,-7.213590621948242,156.10980224609375,-61.06669998168945,11.561482429504396,12.012495040893556,1.2283401489257812,0.763310432434082,-130.44842529296875,-75.97212219238281,84.90164947509766,3.422182559967041,-1.603567361831665,-0.2777004241943359
554.66366147995,121.0285186767578,-70.04747772216797,-44.28730773925781,7.924223899841309,2.695300579071045,1.989275932312012,-155.6502685546875,-57.97378540039063,-97.03607940673828,-1.5038220882415771,-3.490753173828125,0.5588350296020508,-42.28460693359375,16.917091369628906,10.54938507080078,-10.77703094482422,13.086658477783203,-17.259944915771484,140.6956329345703,-60.05978775024414,22.716876983642575,1.6415586471557615,0.7916358709335327,-1.8110952377319336,-134.90997314453125,-73.81224060058594,87.23717498779297,5.821939468383789,2.345170021057129,-2.737152576446533
554.6936848163605,120.6100616455078,-65.80621337890625,-55.21215057373047,20.576679229736328,19.78036117553711,5.51374626159668,-157.4897003173828,-56.16843795776367,-94.8438720703125,-2.123166084289551,-3.707510471343994,-0.5696344375610352,-59.15967559814453,13.337124824523926,24.71404838562012,-2.449087142944336,-0.3751348257064819,-13.75595474243164,125.785888671875,-57.90126419067383,32.702388763427734,-0.038597822189331,7.4922027587890625,-6.313715934753418,-137.66624450683594,-72.75554656982422,87.15145874023438,5.8017683029174805,3.192391395568848,-0.8219842910766602
554.7236959934235,131.5529022216797,-57.631622314453125,-72.36689758300781,16.313602447509766,11.42466163635254,4.03966236114502,-158.96116638183594,-54.39154815673828,-93.16323852539062,-2.7275829315185547,-3.793063163757324,-0.8594217300415039,-72.52887725830078,8.413540840148926,36.24138259887695,4.410116195678711,2.135247230529785,1.5769023895263672,116.67135620117188,-56.21946716308594,41.586673736572266,-3.854472160339356,6.92724609375,-5.521010398864746,-139.71461486816406,-72.3859634399414,88.63066864013672,-0.1773570775985717,3.08958101272583,-0.4230833053588867
554.8138418197632,139.89529418945312,-47.77854919433594,-87.80443572998047,9.298633575439451,1.5676817893981934,-1.6664094924926758,-160.54864501953125,-52.38551712036133,-91.77313995361328,-2.243630886077881,-3.9621329307556152,-1.4636831283569336,-75.61515808105469,3.6375362873077393,44.89551544189453,-4.311384201049805,7.132518768310547,0.8064241409301758,112.51055145263672,-55.41918182373047,49.7811164855957,-6.788573265075684,2.554952621459961,-2.125148296356201,-141.99835205078125,-72.11357116699219,90.84265899658205,2.552365303039551,2.6219677925109863,0.5748929977416992
554.8198471069336,145.9781951904297,-37.3469123840332,-99.76390075683594,1.5550076961517334,-1.7149152755737305,-6.071307182312012,-162.08953857421875,-49.63514709472656,-90.58293914794922,-1.8394901752471924,-3.589216709136963,-1.3264341354370115,-77.51180267333984,-1.0096720457077026,51.96015930175781,-4.116687774658203,5.585893630981445,-4.737386703491211,111.36622619628906,-54.41212844848633,55.718849182128906,-6.106321334838867,-0.2276058197021484,-0.9174737930297852,-142.17872619628906,-72.06269836425781,90.60031127929688,4.708246231079102,4.366291046142578,1.6594953536987305
554.8440177440643,152.56100463867188,-27.59443473815918,-108.14860534667967,-1.5259881019592283,-1.7636315822601318,-10.602231979370115,-163.78829956054688,-45.32666015625,-89.98834228515625,-3.4026269912719727,-4.708977699279785,-2.5966763496398926,-80.8187026977539,-5.968170166015625,58.42911529541016,-2.53759241104126,5.611541748046875,-3.328344821929932,111.4551773071289,-53.042667388916016,59.2857780456543,-1.9921855926513672,1.5595903396606443,-3.31318473815918,-142.94931030273438,-72.92961120605469,90.76863098144533,2.978410243988037,3.389913558959961,-1.8402624130249023
554.8741526603699,159.47415161132812,-20.215206146240234,-114.72059631347656,-2.502124786376953,-0.8840811252593994,-9.749914169311523,-164.80178833007812,-40.81293487548828,-89.7907943725586,-2.819025039672852,-4.3689069747924805,-1.5935869216918943,-83.61309051513672,-12.739072799682615,64.03482055664062,-0.7392880916595459,6.492940902709961,-4.294028282165527,113.84432983398438,-51.67628479003906,61.435325622558594,0.3221076726913452,0.2905033230781555,-3.971525192260742,-144.2027587890625,-74.0787582397461,90.49203491210938,2.993119716644287,2.193854808807373,-2.47146987915039
554.9041578769684,163.38058471679688,-17.57455825805664,-120.3751449584961,-8.568115234375,-3.644854068756104,-12.119768142700195,-165.10946655273438,-37.30159759521485,-89.587646484375,-3.238759994506836,-4.241544723510742,-1.47772216796875,-87.0811996459961,-24.27795791625977,69.49481201171875,3.957557201385498,14.313070297241213,3.5418777465820312,118.79937744140624,-50.07176971435547,62.45459365844727,4.702962875366211,-1.2256243228912354,-3.10176944732666,-145.70932006835938,-75.06289672851562,89.85399627685547,4.179333686828613,2.2883076667785645,-1.7025442123413086
554.9335346221924,163.06785583496094,-20.26740074157715,-123.9868392944336,-10.240524291992188,-4.256031036376953,-11.851329803466797,-165.1470947265625,-34.62500762939453,-88.95774841308594,-2.5778603553771973,-3.2499823570251465,-0.1452064514160156,-85.76953125,-41.83940505981445,74.21316528320312,0.4221458435058594,40.13495635986328,25.07488250732422,125.76019287109376,-48.39998626708984,63.79021835327149,7.544037818908691,-2.5475902557373047,1.3943023681640625,-145.89663696289062,-76.05503845214844,87.29663848876953,2.2322254180908203,1.2834837436676023,-1.771015167236328
554.979211807251,161.3607177734375,-22.74825859069824,-125.58018493652344,-12.543142318725586,-4.87928581237793,25.43809127807617,-165.66885375976562,-33.23665237426758,-87.98558807373047,-2.7616686820983887,-3.964351177215576,0.002791404724121,-79.92501831054688,-50.52365493774414,72.51966094970703,10.55113410949707,26.70552444458008,-0.5103683471679688,126.22335815429688,-45.75382614135742,66.48387908935547,11.568075180053713,-13.454778671264648,21.921794891357425,-146.9171905517578,-76.95450592041016,85.77631378173828,-1.0733606815338137,-0.4398131370544433,-1.0679340362548828
554.9942092895508,162.30111694335938,-24.11610984802246,-123.39498901367188,-19.33687973022461,-12.199214935302734,12.417356491088867,-166.76515197753906,-32.966556549072266,-86.39472961425781,-1.7230618000030518,-4.34539794921875,0.5596714019775391,-84.4586181640625,-39.18403244018555,67.30107879638672,19.30782699584961,20.45376205444336,8.84820556640625,113.13531494140624,-38.99722671508789,68.6177749633789,18.38050842285156,-0.8570497035980225,18.074996948242188,-149.8609161376953,-77.25362396240234,87.19346618652344,0.5923311710357666,-2.1925859451293945,5.643566131591797
555.0234043598175,163.0579833984375,-20.89448547363281,-119.33731079101562,-14.718992233276367,-12.618383407592772,14.577814102172852,-168.163330078125,-33.71311569213867,-84.43526458740234,-3.017299175262451,-4.044659614562988,0.5701045989990234,-82.35332489013672,-25.52451515197754,59.096927642822266,13.09954071044922,18.70355224609375,13.560155868530272,100.9374771118164,-26.36216354370117,71.27172088623047,24.209556579589844,-0.1766503155231475,21.03152084350586,-153.7703399658203,-76.97051239013672,89.00936126708984,0.6297544240951538,0.3871070146560669,8.457759857177734
555.0840048789978,164.1908416748047,-13.918278694152832,-116.1096420288086,-7.5947723388671875,-18.041828155517575,12.841127395629885,-169.75625610351562,-35.5851936340332,-82.84779357910156,-3.1058831214904785,-4.136661529541016,1.2100753784179688,-78.28105926513672,-19.173864364624023,49.618873596191406,12.59050750732422,5.9256792068481445,-6.077037811279297,91.89680480957033,-8.113779067993164,71.58871459960938,19.847091674804688,7.392338752746582,15.249969482421877,-155.21014404296875,-77.02749633789062,87.7878189086914,-0.8604868650436401,1.825110673904419,4.412152290344238
555.118574142456,161.32745361328125,-6.705169677734375,-115.7027359008789,-8.167619705200195,-12.276992797851562,7.398738861083984,-172.0147247314453,-38.58756256103516,-81.64344787597656,-2.053428173065185,-5.995858192443848,3.322528839111328,-86.25926971435547,-19.044715881347656,42.199520111083984,3.5217413902282715,-4.859029769897461,-1.8855891227722168,83.82090759277344,11.943119049072266,68.76787567138672,16.52730941772461,10.928991317749023,6.274686813354492,-158.3538360595703,-76.28780364990234,89.76934814453125,4.776974678039551,3.989493370056152,7.914976119995117
555.1443996429443,158.98062133789062,-1.581201672554016,-116.93502807617188,-1.4722394943237305,-4.70246696472168,-2.534331798553467,-173.65481567382812,-42.84560012817383,-80.47361755371094,2.583481311798096,-13.000383377075195,6.916055679321289,-92.87489318847656,-27.03046417236328,38.25913238525391,-4.486998558044434,-3.495069026947021,-0.762455940246582,75.56470489501953,28.72634506225586,64.15757751464844,8.584463119506836,8.03884506225586,1.1883516311645508,-161.13975524902344,-75.7352523803711,90.24468231201172,6.943825721740723,4.173796653747559,6.963905334472656
555.1734647750854,160.00662231445312,-0.3330572843551636,-119.09880065917967,0.6516529321670532,1.3285086154937744,-10.47275733947754,-168.4617156982422,-50.07781982421875,-79.2698974609375,8.27255630493164,0.0506089180707931,2.763845443725586,-100.94297790527344,-39.79832458496094,39.73735809326172,-4.30375862121582,-2.588670253753662,-3.724888801574707,63.23507308959961,39.88971328735352,57.77970504760742,-2.8309764862060547,8.452083587646484,0.1417036056518554,-161.24295043945312,-75.48728942871094,87.99298858642578,3.735795021057129,2.38370132446289,3.474154472351074
555.2044885158539,160.26841735839844,-4.203349113464356,-122.00394439697266,-2.6123838424682617,3.750591278076172,-13.29054832458496,-168.21728515625,-50.5382194519043,-81.97406005859375,0.1222462207078933,-0.7106461524963379,-7.061751365661621,-117.18035125732422,-53.087345123291016,48.89705657958984,-7.147207260131836,-0.9589953422546388,-1.4515504837036133,45.45154571533203,46.59326934814453,50.37960052490234,-4.98921012878418,3.006255626678467,-5.517971038818359,-161.0690460205078,-75.34442901611328,85.93633270263672,1.0666749477386477,0.0680339932441711,-0.302865982055664
555.2335033416748,157.6361541748047,-13.02849578857422,-125.047607421875,-7.084565162658691,1.7352490425109863,-17.21800994873047,-160.1925048828125,-51.64386749267578,-89.75498962402344,8.920732498168945,-5.838360786437988,-7.979892730712891,-143.85340881347656,-63.53122329711914,71.38555145263672,-7.638440132141113,1.2943947315216064,-1.8439083099365237,29.29829788208008,52.43520736694336,43.46477508544922,-1.7396578788757324,2.546895980834961,-6.783736228942871,-162.923583984375,-74.80045318603516,85.77234649658203,1.274928092956543,-0.2320804297924041,-2.892342090606689
555.2640898227692,153.26422119140625,-25.41134262084961,-127.17581176757812,-10.457796096801758,-1.1805987358093262,-15.549480438232422,-160.40553283691406,-52.00093460083008,-97.43041229248048,-9.498334884643556,0.2755677700042724,-11.49102020263672,178.24072265625,-65.4300537109375,103.6016082763672,-8.506315231323242,2.7706398963928223,-2.811184883117676,17.123823165893555,59.000274658203125,36.17469024658203,2.852524757385254,0.1551161110401153,-8.122596740722656,-165.43112182617188,-74.68330383300781,86.87120819091797,1.2911710739135742,-0.4329284429550171,-7.03868293762207
555.2942535877228,150.7201385498047,-39.27861404418945,-127.62680053710938,-8.829421997070312,-3.026841640472412,-10.768333435058594,-177.36940002441406,-47.813751220703125,-101.93846893310548,-11.301328659057615,3.696357250213623,3.036698341369629,147.85899353027344,-60.540992736816406,125.17273712158205,-7.34791088104248,1.5375142097473145,-5.576021194458008,11.78841781616211,66.9256362915039,29.25790786743164,5.698171615600586,1.4003279209136963,-7.794711112976074,-169.88880920410156,-75.44219970703125,88.72042083740234,2.014796257019043,2.4972872734069824,-12.064445495605469
555.3232550621033,149.6858673095703,-54.36911010742188,-126.45397186279295,-6.504591941833496,-1.550002098083496,-3.9972519874572754,173.7421112060547,-44.406517028808594,-105.88436889648438,-12.902942657470703,5.50667667388916,-3.608002185821533,128.74085998535156,-54.41078567504883,134.6454315185547,-7.982328414916992,1.985410213470459,-8.363388061523438,13.343777656555176,76.27318572998047,29.80631446838379,2.918911933898926,2.5166268348693848,-9.819507598876951,-176.08383178710938,-76.89703369140625,90.37176513671876,1.8723549842834477,0.4685023427009582,-9.65325164794922
555.3840489387512,145.24777221679688,-70.95513153076172,-120.8133544921875,-2.073441982269287,-0.3295977711677551,7.367631912231445,174.08273315429688,-43.104862213134766,-106.08308410644533,-1.7749145030975342,-5.423320770263672,-3.338106632232666,115.15182495117188,-49.195709228515625,138.35745239257812,-7.225614547729492,4.427431106567383,-8.148658752441406,67.2303695678711,83.60009765625,89.08463287353516,-0.8009982109069824,-0.059964120388031,-10.739662170410156,177.76124572753906,-78.17884826660156,92.9818344116211,-1.0154049396514893,-0.4700794816017151,-6.63198184967041
555.4140527248383,95.74627685546876,-84.54364776611328,-68.083740234375,13.86686897277832,7.566903114318848,14.17867660522461,176.47813415527344,-41.897010803222656,-106.39590454101562,-3.996220588684082,-8.914796829223633,-0.1324214935302734,103.74339294433594,-44.90898513793945,139.66732788085938,-6.445079803466797,6.097378730773926,-7.915749549865723,117.83352661132812,72.06500244140625,146.7550811767578,-5.856873512268066,-0.4848871827125549,-15.240118026733398,177.04428100585938,-78.22649383544922,91.04249572753906,1.2574656009674072,-1.065633773803711,-1.194000244140625
555.444028377533,18.794279098510746,-78.91890716552734,12.602210998535156,14.254314422607422,18.49665069580078,2.842979431152344,174.96629333496094,-39.95313262939453,-108.15570068359376,-2.5727453231811523,-7.120518684387207,2.2166624069213867,93.5000228881836,-41.77719497680664,139.1890869140625,-6.158450126647949,6.524921417236328,-8.903558731079102,117.9394760131836,54.35858154296875,152.0860137939453,-17.637645721435547,9.596092224121094,-27.282421112060547,177.0381622314453,-78.75347900390625,89.12921142578125,4.633389472961426,-0.010124297812581,-1.7533893585205078
555.47403383255,9.32972812652588,-73.91371154785156,19.20011711120605,15.44308090209961,8.83200454711914,-6.234241485595703,176.13987731933594,-39.41538238525391,-109.58968353271484,-7.5085649490356445,-5.868283271789551,-1.5502004623413086,87.22884368896484,-39.50700378417969,136.9922332763672,-7.690953254699707,11.317012786865234,-8.594100952148438,128.50408935546875,43.540283203125,154.94781494140625,0.31646329164505,-9.15999984741211,-5.480355262756348,177.28883361816406,-78.72985076904297,87.73506164550781,0.7608126401901245,-0.2566972374916076,1.2811250686645508
555.5042064189911,14.500306129455566,-74.07982635498047,14.154488563537598,14.12318992614746,5.768319129943848,-7.377774238586426,179.05496215820312,-39.437801361083984,-111.5385971069336,-2.2295961380004883,-6.892009735107422,2.5857648849487305,85.95736694335938,-38.3271369934082,133.41514587402344,-5.133224487304688,13.123363494873049,-5.395541191101074,153.25315856933594,46.91542053222656,159.78842163085938,-0.3869863152503967,6.731016159057617,7.284523010253906,-178.7709197998047,-79.17469024658203,83.11991119384766,3.753603458404541,1.2653346061706543,5.34816837310791
555.5344684123993,36.91407012939453,-78.54716491699219,-5.081174850463867,13.12112808227539,5.525434494018555,1.7381601333618164,-178.32623291015625,-40.18622970581055,-114.10977172851562,-3.682908535003662,-5.294239044189453,1.7184133529663086,88.14289855957031,-39.03407669067383,129.31832885742188,-4.2777910232543945,15.577354431152344,-3.9354805946350098,162.7753143310547,56.795066833496094,168.92352294921875,-11.26482391357422,13.662416458129885,-7.52375316619873,-175.41859436035156,-79.00492095947266,80.05650329589844,5.6136579513549805,0.2636637091636657,1.1423826217651367
555.5639679431915,74.24413299560547,-81.39360046386719,-40.35007858276367,-3.1449942588806152,-5.788668632507324,3.794978141784668,-175.60452270507812,-41.4551010131836,-116.86669921875,-4.055527687072754,-6.860925674438477,1.3302507400512695,94.01115417480467,-41.15436935424805,125.64234161376952,-4.198672294616699,15.94487190246582,-1.5024652481079102,177.19288635253906,68.85814666748047,-169.70217895507812,-4.745244026184082,0.8757468461990356,-19.78012466430664,-175.53231811523438,-77.92357635498047,80.97757720947266,4.390429496765137,1.2787885665893557,3.0758628845214844
555.5949683189392,100.95603942871094,-81.34011840820312,-66.80178833007812,-9.416379928588867,-17.880313873291016,6.580514907836914,-171.27395629882812,-43.17850112915039,-120.3598861694336,-7.799492835998535,-5.620684623718262,-3.5095815658569336,101.94490051269533,-44.36857604980469,122.76333618164062,-2.577722549438477,14.20357894897461,1.2484502792358398,-140.3683319091797,75.61651611328125,-126.88455963134766,-4.589931488037109,4.97841739654541,-5.373372077941895,-177.2174835205078,-76.8021469116211,83.38317108154297,1.973689317703247,-0.1298900842666626,2.115520477294922
555.6136500835419,116.2031021118164,-81.12860870361328,-79.18524932861328,-3.008450508117676,7.768835067749023,11.979961395263672,-163.1494903564453,-44.70018768310547,-123.67462158203124,-12.511972427368164,-0.8286728858947754,-4.035455703735352,110.36095428466795,-48.468170166015625,119.8544921875,-0.8821134567260742,10.622289657592772,1.764547348022461,-88.13063049316406,74.57286834716797,-74.35639953613281,-2.3047595024108887,-7.288113594055176,-0.6913270950317383,-177.18643188476562,-74.9354019165039,85.11671447753906,-0.8851001262664795,-0.5690181255340576,0.3071050643920898
555.6838438510895,133.52809143066406,-80.76373291015625,-93.94230651855467,0.5140259265899658,0.1515007615089416,-3.3806967735290527,-150.2117156982422,-43.81436920166016,-124.29457092285156,-15.801517486572266,16.22046661376953,5.206315994262695,121.06584167480467,-51.581085205078125,115.8362274169922,0.1924147605895996,5.505449295043945,-1.9813036918640137,-51.10953140258789,67.3464584350586,-43.67522048950195,-1.042900323867798,-7.480103492736816,1.8277263641357424,-179.28228759765625,-72.53170013427734,88.80022430419922,-1.206639289855957,0.0826973319053649,-0.5357732772827148
555.7139277458191,149.4336395263672,-80.55227661132812,-107.3758544921875,2.821180820465088,-3.800789833068848,2.5109663009643555,-143.3905487060547,-37.824066162109375,-120.0359344482422,-21.366893768310547,9.794214248657228,3.698460578918457,135.13851928710938,-52.84856033325195,111.77861785888672,2.788657665252685,0.1627149581909179,-1.6985406875610352,-25.615907669067383,58.67219924926758,-31.780494689941406,6.4796953201293945,-11.106063842773438,2.5656986236572266,178.17088317871094,-70.84341430664062,93.38408660888672,-3.233187198638916,-1.6018133163452148,-0.7484855651855469
555.7435393333435,161.061279296875,-79.63404846191406,-116.65802001953124,2.7152342796325684,-1.5792641639709473,-0.6040611267089844,-144.7524871826172,-29.813913345336918,-111.84406280517578,-14.642499923706056,2.402164936065674,-4.491765975952148,144.85311889648438,-54.02615737915039,108.32203674316406,2.527698040008545,-2.4709057807922363,-0.6671857833862305,5.402894020080566,54.5598258972168,-27.432525634765625,-5.1851301193237305,-22.957496643066406,-0.0237045288085937,178.3629913330078,-69.73687744140625,96.35150909423828,-3.649242401123047,0.5786839723587036,-0.6584978103637695
555.7735333442688,167.4815673828125,-77.77769470214844,-119.26170349121094,-1.3932380676269531,1.631906270980835,1.0008821487426758,-148.59793090820312,-22.625770568847656,-102.21248626708984,-8.282764434814453,-0.7734676599502563,-7.444020271301269,147.77236938476562,-55.46194076538086,105.84098815917967,-1.8345487117767332,-1.2786645889282229,0.6719121932983398,50.5340461730957,53.20680236816406,-16.271686553955078,-6.024658203125,13.940593719482422,-15.041589736938477,177.82737731933594,-69.84713745117188,98.88452911376952,-1.8903450965881348,1.753697633743286,0.035745620727539
555.8036222457886,171.081787109375,-75.56076049804688,-119.71942138671876,-0.8261964321136475,0.8221904039382935,0.3946056365966797,-154.22084045410156,-16.722885131835938,-92.4102783203125,-4.5985517501831055,-3.230605125427246,-9.927053451538086,146.8809051513672,-56.82344818115234,104.97586059570312,-5.0892744064331055,0.7024815082550049,-1.5566186904907229,86.73432922363281,46.87912368774414,-6.811126232147217,5.965972900390625,17.095298767089844,-2.8056516647338867,177.0166778564453,-70.08045959472656,101.74494171142578,-3.61702299118042,2.266906261444092,1.2591943740844729
555.8337054252625,173.76974487304688,-73.24104309082031,-120.0773468017578,-0.5776509046554565,1.007829189300537,0.5220193862915039,-162.3756103515625,-13.082905769348145,-83.08155822753906,-2.989896774291992,-4.203876495361328,-7.613726615905762,145.5341033935547,-58.12291717529297,104.97759246826172,-4.452667236328125,2.785872459411621,-3.5603485107421875,111.8578872680664,36.12540817260742,-2.114025592803955,14.868824005126951,8.916675567626953,5.7313337326049805,174.97669982910156,-70.9816665649414,105.69353485107422,-2.726719379425049,0.2271188795566558,0.0464849472045898
555.8642838001251,175.47715759277344,-70.94447326660156,-120.7147979736328,-1.192962884902954,0.4359325170516968,0.0317106246948242,-168.65736389160156,-13.096139907836914,-74.24042510986328,6.539546966552734,-9.03244972229004,-11.033599853515623,144.5999755859375,-59.830116271972656,104.0631103515625,-3.9766130447387695,3.7583742141723633,-4.758295059204102,116.09977722167967,22.215532302856445,-1.3579249382019043,15.407257080078123,1.5605003833770752,12.094575881958008,171.16171264648438,-72.52949523925781,110.7859878540039,-0.5817594528198242,-0.0786132961511612,-2.363835334777832
555.8942835330963,176.1857147216797,-68.43812561035156,-121.10370635986328,0.1728309392929077,-0.7147297859191895,-0.2239398956298828,-167.10841369628906,-18.64386558532715,-67.33651733398438,18.82040405273437,-11.561307907104492,-15.58258819580078,145.20492553710938,-62.06855773925781,100.92938232421876,-5.733146667480469,4.932058334350586,-5.064408302307129,99.19902801513672,4.339408874511719,-1.5495730638504028,9.76064109802246,8.453815460205078,4.685103416442871,165.31295776367188,-74.10836029052734,117.45726013183594,-0.3786684870719909,0.4978854656219482,-3.753810405731201
555.9235622882843,176.01278686523438,-65.56380462646484,-120.23956298828124,1.3774926662445068,-0.6243358850479126,-0.4626331329345703,-159.32290649414062,-25.938623428344727,-63.190574645996094,6.038541793823242,-6.578338623046875,22.49315643310547,150.79116821289062,-65.0853500366211,94.78722381591795,-8.12087631225586,9.412750244140623,-4.4104509353637695,72.97152709960938,-16.469449996948242,1.470239281654358,28.25537872314453,3.3707847595214844,1.818934440612793,159.41897583007812,-75.08667755126953,123.83137512207033,-0.4990490674972534,0.7497618198394775,-3.4948740005493164
555.9844119548798,174.87034606933594,-62.687313079833984,-118.45130157470705,0.4347814321517944,0.0609208047389984,-0.3822202682495117,-159.8711395263672,-28.29730987548828,-62.493385314941406,13.41620635986328,-10.947956085205078,0.7849769592285156,164.09815979003906,-69.2211685180664,81.94788360595703,-5.647475242614746,10.052474975585938,-2.6302595138549805,46.20981597900391,-26.240890502929688,9.933987617492676,29.26430892944336,5.124214172363281,6.603610992431641,153.17137145996094,-75.44931030273438,130.2188720703125,-1.2333357334136963,0.056308276951313,-2.300459384918213
556.0138885974884,173.0129852294922,-59.61466217041016,-115.84465789794922,-1.7357089519500732,-0.1357704699039459,-0.1767530441284179,-163.8287811279297,-28.58106231689453,-62.86653137207031,14.29058074951172,-10.743928909301758,3.1478281021118164,-165.82562255859375,-73.01744079589844,52.754913330078125,-12.004600524902344,14.037715911865234,1.099313735961914,35.94122695922852,-27.192073822021484,8.274515151977539,11.323719024658203,-11.694353103637695,-5.258647918701172,146.1250762939453,-75.4791488647461,138.49435424804688,-0.7107272148132324,-1.1888041496276855,-3.2250895500183105
556.0435523986816,171.5879364013672,-56.26917266845703,-112.94425201416016,-0.7943122386932373,1.013343095779419,0.0584602355957031,-165.9508514404297,-27.447359085083008,-63.35177993774414,0.0822554528713226,-20.25317001342773,5.496532440185547,-125.48690032958984,-69.43511962890625,14.153482437133787,-13.423713684082031,16.860706329345703,2.2329702377319336,46.3259391784668,-21.257104873657227,2.488450288772583,20.689529418945312,-13.55512237548828,-5.111804962158203,142.7991485595703,-74.85391235351562,142.82821655273438,-2.2976551055908203,0.6488286256790161,4.606809616088867
556.0737824440002,171.3304443359375,-53.350711822509766,-110.58391571044922,-0.8561418056488037,0.043144479393959,1.991724967956543,-164.0907745361328,-25.957550048828125,-62.93035888671875,-2.4478540420532227,-21.216495513916016,3.5521764755249023,-100.46395874023438,-57.92778396606445,-8.10484790802002,-13.6536865234375,23.28388977050781,8.936145782470703,65.92499542236328,-10.877098083496094,0.4618771374225616,23.08076858520508,11.349349975585938,-6.732368469238281,140.2895965576172,-74.8865966796875,147.0863800048828,-1.1243863105773926,1.4713196754455566,8.269552230834961
556.1039583683014,171.7842254638672,-51.31299209594727,-109.24324035644533,2.8423852920532227,1.98529314994812,-2.366030693054199,-160.1817626953125,-23.44384002685547,-62.48632049560547,9.83555030822754,-23.90338134765625,2.7982044219970703,-82.8236083984375,-42.1500244140625,-19.90509796142578,-5.624457359313965,23.78082656860352,13.969100952148438,74.86100769042969,-4.060041427612305,2.261801242828369,20.083541870117188,7.0611066818237305,-7.6161909103393555,137.652099609375,-75.96747589111328,151.0686492919922,-2.0482664108276367,2.44340181350708,9.932329177856444
556.1341528892517,173.09519958496094,-51.26289367675781,-109.73388671875,2.768771171569824,0.4121935367584228,2.1884889602661133,-163.83033752441406,-20.523759841918945,-64.68153381347656,1.0913653373718262,-20.30858612060547,-6.754717826843262,-66.58063507080078,-23.02302360534668,-26.66939163208008,7.032265663146973,15.559602737426758,16.937458038330078,78.41252136230469,-4.4464874267578125,7.258289337158203,13.984621047973633,4.464363098144531,-1.5214757919311523,139.43020629882812,-76.84367370605469,149.59262084960938,-2.7090392112731934,0.3884047269821167,10.96122932434082
556.1640779972076,174.37181091308594,-53.12380599975586,-110.16139221191406,-0.812841534614563,0.8425601720809937,4.003726959228516,-171.0542755126953,-19.895387649536133,-65.14551544189453,10.025678634643556,-9.405492782592772,0.7397432327270508,-49.07016372680664,-4.598466396331787,-30.705440521240234,9.112964630126951,5.704770088195801,8.45684814453125,80.62449645996094,-11.129652976989746,13.347578048706056,9.031513214111328,5.053030967712402,5.703911781311035,140.5547637939453,-77.23841094970703,149.60845947265625,-4.784543991088867,-0.91059672832489,6.999048233032227
556.1940453052521,176.17391967773438,-56.34910202026367,-109.97577667236328,-1.6086547374725342,2.1880035400390625,2.410594940185547,-168.91798400878906,-25.07568359375,-66.71876525878906,5.590444564819336,-3.017902374267578,-0.4949941635131836,-35.44343948364258,10.991841316223145,-33.96501541137695,8.954854965209961,2.6316123008728027,4.907352447509766,84.27445220947266,-20.934288024902344,18.72938537597656,1.4112775325775146,3.512932300567627,-1.6762962341308594,138.39418029785156,-78.31829833984375,154.26248168945312,-4.199631690979004,-0.2171783745288849,3.808704376220703
556.22416472435,177.2810516357422,-60.832969665527344,-108.51126861572266,-3.8252458572387695,0.7722800970077515,5.930401802062988,-164.87179565429688,-32.83196258544922,-69.09989166259766,8.645845413208008,2.4236416816711426,-2.2255120277404785,-30.30971336364746,23.86237525939941,-35.96393966674805,0.6891754865646362,-0.5989387035369873,-0.9243803024291992,87.95677185058594,-32.981224060058594,24.703842163085938,-1.2641479969024658,6.853523254394531,0.7873373031616211,142.63426208496094,-79.64571380615234,154.00210571289062,-3.3249287605285645,0.0411835983395576,0.3074464797973633
556.2840416431427,176.36695861816406,-66.03048706054688,-103.9939422607422,-1.4907639026641846,-4.251041412353516,6.958362579345703,-156.01495361328125,-41.73382186889648,-74.02181243896484,7.289912223815918,3.8706021308898926,-3.766336441040039,-30.7952938079834,33.60008239746094,-36.09411239624024,-3.071940422058105,-2.292224407196045,-2.133897304534912,92.06934356689452,-45.1284294128418,29.616493225097656,-3.48884916305542,5.488582611083984,2.194258689880371,157.3841552734375,-79.68224334716797,144.07736206054688,-0.9464595317840576,-0.2908214330673218,-2.5687689781188965
556.3140366077423,168.1280517578125,-72.49800872802734,-99.10455322265624,3.3155007362365723,-0.9685817956924438,-2.352379322052002,-149.09080505371094,-49.5670051574707,-81.806884765625,0.5093053579330444,4.468796730041504,-3.836480617523194,-33.055030822753906,40.02522659301758,-37.74338150024414,-4.782088279724121,-2.49193811416626,-5.2909135818481445,102.36807250976562,-55.456573486328125,31.03539657592773,-3.2708582878112797,1.5951082706451416,-0.3103981018066406,170.91893005371094,-78.46442413330078,134.17369079589844,1.589559555053711,2.3027329444885254,-8.25068473815918
556.3435597419739,162.94313049316406,-74.6432113647461,-92.71529388427734,5.749041557312012,-0.9770058393478394,-8.712888717651367,-144.60455322265625,-55.42973709106445,-92.5041732788086,-5.28122615814209,8.022523880004883,-2.840022087097168,-34.8765754699707,41.84626770019531,-45.02760696411133,-5.816547393798828,-1.56172513961792,-9.44908332824707,118.27815246582033,-62.474517822265625,29.546743392944336,-2.773632049560547,-0.4768532514572143,-4.358737945556641,176.84446716308594,-76.99604034423828,129.90464782714844,3.50644588470459,3.2054505348205566,-10.409019470214844
556.3730421066284,159.1942901611328,-77.4782485961914,-87.52530670166016,0.9008055925369264,-2.75234317779541,-7.809863090515137,-139.3449249267578,-58.992557525634766,-105.0744171142578,-10.046850204467772,5.795310020446777,-1.373369216918945,-35.03202438354492,37.551048278808594,-56.83930206298828,-1.7677412033081057,1.1604249477386477,-13.259056091308594,136.33676147460938,-67.22025299072266,27.15097999572754,-2.706471920013428,-0.7494214773178101,-4.7985429763793945,177.97848510742188,-77.46277618408203,130.2734832763672,-0.8451262712478638,1.233783721923828,-8.356660842895508
556.4036929607391,158.52381896972656,-80.32933807373047,-86.10125732421875,0.4230725765228271,12.26079559326172,-3.64203691482544,-132.93161010742188,-60.043888092041016,-117.3286361694336,-12.70536994934082,5.8735198974609375,0.5265092849731445,-33.6165657043457,26.1510009765625,-72.29517364501953,3.2597861289978027,-4.99761962890625,-15.47344970703125,152.63072204589844,-70.85601043701172,23.90487670898437,-1.873457431793213,-4.813526153564453,-3.285926818847656,177.59088134765625,-79.70703887939453,132.17530822753906,-2.1835451126098637,-0.090007483959198,-7.666889190673828
556.4337050914764,155.72247314453125,-80.58307647705078,-85.2315902709961,-2.0439658164978027,2.1402506828308105,-1.9270882606506348,-124.54656219482422,-60.26227569580078,-125.97557067871094,-20.79550552368164,7.360807418823242,-5.166224479675293,-26.39000701904297,10.404128074645996,-89.99846649169922,-0.7517299652099609,-37.93659973144531,-16.331634521484375,165.6161346435547,-73.63375091552734,17.958637237548828,-0.0012624291703104,-6.381887435913086,-0.1713714599609375,177.7226104736328,-80.9017333984375,133.78224182128906,-1.4017226696014404,1.1638362407684326,-3.273007869720459
