Timestamp,D4:22:CD:00:05:5D_EulerX,D4:22:CD:00:05:5D_EulerY,D4:22:CD:00:05:5D_EulerZ,D4:22:CD:00:05:5D_FreeAccX,D4:22:CD:00:05:5D_FreeAccY,D4:22:CD:00:05:5D_FreeAccZ,D4:22:CD:00:05:5E_EulerX,D4:22:CD:00:05:5E_EulerY,D4:22:CD:00:05:5E_EulerZ,D4:22:CD:00:05:5E_FreeAccX,D4:22:CD:00:05:5E_FreeAccY,D4:22:CD:00:05:5E_FreeAccZ,D4:22:CD:00:05:6B_EulerX,D4:22:CD:00:05:6B_EulerY,D4:22:CD:00:05:6B_EulerZ,D4:22:CD:00:05:6B_FreeAccX,D4:22:CD:00:05:6B_FreeAccY,D4:22:CD:00:05:6B_FreeAccZ,D4:22:CD:00:05:6E_EulerX,D4:22:CD:00:05:6E_EulerY,D4:22:CD:00:05:6E_EulerZ,D4:22:CD:00:05:6E_FreeAccX,D4:22:CD:00:05:6E_FreeAccY,D4:22:CD:00:05:6E_FreeAccZ,D4:22:CD:00:49:AA_EulerX,D4:22:CD:00:49:AA_EulerY,D4:22:CD:00:49:AA_EulerZ,D4:22:CD:00:49:AA_FreeAccX,D4:22:CD:00:49:AA_FreeAccY,D4:22:CD:00:49:AA_FreeAccZ
1355.931292772293,166.87599182128906,-74.41093444824219,-105.6313934326172,1.7250118255615234,-6.418998718261719,-11.304204940795898,-4.892059326171875,-51.19575881958008,-174.17930603027344,-24.57271194458008,-2.65289306640625,1.6969146728515625,16.63690757751465,65.53242492675781,-105.53993225097656,-3.7788257598876953,1.679607391357422,-7.881434440612793,178.13912963867188,-78.0097885131836,41.05819320678711,0.6929563283920288,-6.595606803894043,-8.99850082397461,-170.06011962890625,-72.49984741210938,78.37145233154297,3.7696356773376474,2.241117477416992,-10.758493423461914
1355.9535865783691,-163.71644592285156,-82.17240905761719,-158.3602294921875,1.438659906387329,-1.6334702968597412,-0.5239677429199219,-13.657516479492188,-40.43842315673828,-166.30645751953125,-11.801490783691406,-6.246720314025879,-13.362640380859377,-57.07125473022461,-34.6973991394043,-78.73894500732422,3.197641372680664,-1.7093143463134766,-4.856258392333984,-116.4841079711914,-78.03877258300781,-25.47762107849121,4.1646881103515625,-4.619040489196777,-3.3291444778442383,-166.24853515625,-77.82545471191406,79.76624298095703,-1.5676984786987305,-1.3650476932525637,-7.76765251159668
1355.9971313476562,-178.46690368652344,-66.21747589111328,-127.16571807861328,2.084946632385254,1.526905536651611,1.0159530639648438,171.11178588867188,-83.09317016601562,4.484035491943359,-7.739382743835449,4.397610664367676,15.548677444458008,-40.338478088378906,-33.617733001708984,-97.61055755615234,1.4155166149139404,-1.2780086994171145,1.4114418029785156,63.348262786865234,-61.39164733886719,58.59101486206055,7.726088523864746,-3.017789363861084,9.425045013427734,-91.72943115234376,-82.38005828857422,11.771331787109377,3.2002673149108887,1.6854417324066162,1.804692268371582
1356.0281386375427,179.4377899169922,-62.22099685668945,-121.70173645019533,2.48333740234375,2.2868056297302246,0.3844537734985351,-170.02830505371094,-75.2419662475586,-12.203743934631348,-1.9402167797088623,-3.453526020050049,14.227727890014648,-48.0141830444336,-27.463830947875977,-98.2558364868164,-2.1440463066101074,-1.4232192039489746,9.18183708190918,44.96508407592773,-56.546871185302734,67.12998962402344,-2.846097469329834,8.975688934326172,9.613571166992188,-76.92626190185547,-86.09716033935547,-1.5622140169143677,3.03368616104126,-0.6605708599090576,4.476267814636231
1356.057137966156,179.8998565673828,-59.02266311645508,-118.2987289428711,-0.4924765825271606,2.8281707763671875,1.5730953216552734,-174.97523498535156,-67.26029205322266,-4.483911514282227,4.713475227355957,-3.464944362640381,19.97271728515625,-56.42565536499024,-17.69791030883789,-97.40303802490234,0.0441422462463378,6.962603569030762,35.38141632080078,51.38692855834961,-63.990684509277344,59.41124725341797,13.797861099243164,12.818187713623049,11.817859649658203,-139.9438018798828,-88.90229034423828,62.94062423706055,3.853311538696289,-2.133279323577881,10.815277099609377
1356.0871515274048,-179.21658325195312,-57.82198333740234,-116.18424987792967,0.329813003540039,2.36344051361084,1.8386774063110352,-174.95240783691406,-68.78592681884766,3.7270054817199703,8.626983642578125,-0.9474716186523438,14.199493408203123,-54.84180450439453,-4.1012773513793945,-95.63406372070312,15.517019271850586,-1.921271800994873,33.96122741699219,50.66355514526367,-75.03160858154297,66.76171875,-0.263150155544281,9.98570442199707,11.654167175292969,157.0716552734375,-87.06855773925781,127.68500518798828,1.7052550315856934,-2.8813748359680176,11.589960098266602
1356.1171264648438,-178.1798553466797,-58.27592468261719,-114.97661590576172,-2.1093497276306152,3.4581546783447266,1.6238431930541992,179.41407775878906,-68.61538696289062,7.505367755889893,2.821738719940185,-4.865874290466309,10.24696159362793,-40.37654876708984,11.070046424865724,-92.4588394165039,6.347692489624023,-7.521900177001953,23.600662231445312,37.92143630981445,-82.15162658691406,89.05620574951172,-7.452449798583984,5.984375953674316,6.959878921508789,160.0840606689453,-85.08657836914062,126.11588287353516,2.871187210083008,-0.8682411909103394,6.94328498840332
1356.1476166248322,-176.68785095214844,-59.631614685058594,-115.8939971923828,-3.666390419006348,2.523958683013916,1.0617990493774414,172.7894287109375,-70.53327941894531,12.484737396240234,-0.7997369766235352,4.075542449951172,3.5630874633789062,-16.814144134521484,22.130998611450195,-88.9222183227539,-1.256593942642212,-3.430408477783203,7.963466644287109,-17.235280990600586,-83.46526336669922,151.93304443359375,-10.700801849365234,1.7715904712677002,2.4819412231445312,166.70046997070312,-82.86752319335938,121.83983612060548,-0.1018302589654922,-2.686598300933838,6.680305480957031
1356.177078962326,-173.6682891845703,-62.19840621948242,-118.97606658935548,0.247266799211502,3.384758472442627,2.41324234008789,166.54541015625,-76.18830108642578,17.26380729675293,-0.4320717453956604,3.511383056640625,-4.512560844421387,-2.188776016235352,28.82653045654297,-87.67028045654297,-5.676253318786621,-0.3731555938720703,1.0407066345214844,-43.31062698364258,-77.11601257324219,-173.50405883789062,-10.980697631835938,-0.1691794097423553,-0.3308010101318359,177.5050506591797,-81.94119262695312,114.1308822631836,-2.0695457458496094,-1.9217956066131592,7.221841812133789
1356.207710981369,-170.5797576904297,-66.9259033203125,-122.60546112060548,1.4877095222473145,3.166647434234619,3.41680908203125,133.74693298339844,-85.2284164428711,49.1046142578125,3.1762266159057617,5.20885181427002,-8.428276062011719,-0.0057390793226659,34.43656539916992,-91.58578491210938,-7.978597640991211,-1.2286608219146729,-7.312686920166016,-42.28466796875,-68.38080596923828,-160.49502563476562,-13.992929458618164,-1.2471256256103516,-5.550854682922363,-167.50852966308594,-81.36487579345703,103.24683380126952,1.2511472702026367,0.4848143458366394,4.756084442138672
1356.2675244808197,-165.6300811767578,-74.17154693603516,-128.45091247558594,-0.5923755168914795,-4.762001991271973,11.139154434204102,17.772981643676758,-78.984619140625,164.42662048339844,2.824526309967041,3.3117923736572266,-6.8601179122924805,-3.001452207565308,40.633182525634766,-102.55384063720705,-4.881168365478516,1.7182047367095947,-12.934993743896484,-39.10930252075195,-60.37503433227539,-148.15554809570312,-11.722810745239258,-8.050832748413086,-11.640531539916992,-153.85084533691406,-80.69010925292969,93.43685150146484,2.67373275756836,1.195661544799805,-0.1493082046508789
1356.2977430820465,-156.78543090820312,-79.94587707519531,-145.34934997558594,1.4554719924926758,-2.925027847290039,-0.1534919738769531,6.998269081115723,-63.20667266845703,173.1561737060547,-4.754755973815918,2.653948307037353,-5.609447479248047,-10.736705780029297,45.66930389404297,-119.43375396728516,-3.958603382110596,-4.270839691162109,-14.43120574951172,-45.72591018676758,-53.19367599487305,-135.17385864257812,-6.138513565063477,-9.599699020385742,-12.382064819335938,-144.48052978515625,-79.42726135253906,87.37762451171875,0.0357174798846244,0.4201502799987793,-7.031441688537598
1356.3272466659546,-161.86083984375,-79.24911499023438,-143.05479431152344,8.734342575073242,10.191038131713867,-5.704656600952148,2.7567641735076904,-47.45890808105469,172.64498901367188,-15.93636703491211,-2.6869430541992188,-5.607997894287109,-25.732969284057617,46.86592864990234,-142.44993591308594,-8.03066635131836,-1.864108085632324,-20.4222412109375,-51.72772979736328,-49.418418884277344,-125.99141693115234,-0.9311057329177856,-12.80168342590332,-12.745868682861328,-143.64785766601562,-78.1293716430664,87.9028549194336,1.2896442413330078,1.9862864017486568,-10.30080795288086
1356.3574216365814,-174.78573608398438,-75.38245391845703,-127.88671875,-2.0905866622924805,-5.00717830657959,-8.783395767211914,-3.33899474143982,-34.42997360229492,169.41543579101562,-24.94974899291992,-0.7485870122909546,-9.92848777770996,-39.81881332397461,39.9103889465332,-166.46934509277344,-17.685161590576172,-0.5381641387939453,-24.79565048217773,-53.91103744506836,-50.20021057128906,-121.95203399658205,-3.3731393814086914,-6.770788192749023,-12.55548858642578,-141.83749389648438,-77.86448669433594,84.39246368408203,2.482553005218506,0.9839948415756226,-10.690120697021484
1356.3875079154968,-174.70950317382812,-74.66987609863281,-122.5554656982422,0.262505829334259,-3.730417728424072,-13.573186874389648,-8.957091331481934,-26.42398452758789,167.50302124023438,-13.10102653503418,12.406656265258787,-20.198802947998047,-51.28776931762695,32.37361526489258,-177.7163543701172,-9.709102630615234,8.961885452270508,-21.119369506835938,-58.53787612915039,-53.042945861816406,-119.7173843383789,-1.7684228420257568,-6.341595649719238,-8.125244140625,-138.20635986328125,-78.17578125,79.76469421386719,-0.7479814291000366,1.5209698677062988,-8.985151290893555
1356.4171974658966,-177.27284240722656,-74.29344940185547,-119.34366607666016,2.4435911178588867,4.46403694152832,1.7862749099731443,-6.486557960510254,-23.75670623779297,169.3582763671875,-9.812503814697266,6.878321647644043,-33.30293273925781,-75.91566467285156,39.19767379760742,-172.8115997314453,-17.399608612060547,3.5792388916015625,20.48291778564453,-58.38008499145508,-55.89731216430664,-118.7296142578125,1.135035276412964,-1.0116982460021973,-6.286039352416992,-135.08053588867188,-79.25621795654297,77.17914581298828,-2.465954303741455,1.8206110000610352,-6.775853157043457
1356.4472649097445,-178.62713623046875,-72.68653106689453,-113.96886444091795,-1.1706843376159668,-4.596704483032227,1.3259601593017578,-5.313194751739502,-28.20433616638184,174.14151000976562,-14.730476379394531,-5.146604537963867,-17.75655746459961,-63.8460693359375,44.1246223449707,-169.07229614257812,-3.328270435333252,-0.0572052001953125,-9.511022567749023,-56.015262603759766,-58.009727478027344,-117.49314880371094,2.542928695678711,-8.44350814819336,-4.490509033203125,-133.05503845214844,-80.32368469238281,76.28079986572266,-2.0819945335388184,-3.1381325721740723,-5.661670684814453
1356.477258682251,179.2012481689453,-71.10208892822266,-107.95227813720705,0.3463011384010315,-3.3342747688293457,2.119752883911133,-9.54440689086914,-35.32852935791016,-179.58718872070312,-16.8870849609375,-3.572595596313477,-10.344766616821287,-45.34934997558594,49.984466552734375,-157.715087890625,0.1674969792366027,1.9684922695159912,-19.50130844116211,-57.49192428588867,-59.628700256347656,-115.7264404296875,1.95158052444458,-9.389293670654297,-0.2824048995971679,-134.39370727539062,-80.768798828125,78.00373840332031,-1.01647686958313,-1.7563188076019287,1.801405906677246
1356.5071940422058,175.21304321289062,-69.60078430175781,-101.46773529052734,-0.5316143035888672,-0.5396009683609009,3.0218677520751958,-17.13237953186035,-43.81722640991211,-173.279052734375,-12.535600662231444,-10.276138305664062,-5.6332197189331055,-28.01756477355957,54.36143493652344,-134.58135986328125,-9.836883544921877,1.180715560913086,-17.298595428466797,-62.01691436767578,-61.3958625793457,-113.46721649169922,1.379322528839111,-9.657220840454102,1.09814453125,-135.73326110839844,-81.67831420898438,77.47113800048828,1.3132953643798828,2.31748104095459,7.446632385253906
1356.5675342082975,170.06370544433594,-68.645263671875,-94.6488037109375,-0.7786587476730347,1.057654619216919,3.8533639907836914,-27.06287002563477,-52.63731002807617,-167.50064086914062,-15.804069519042969,-8.396625518798828,-10.60820770263672,-9.485296249389648,52.83447265625,-109.86531829833984,-3.316084861755371,-2.6728219985961914,-17.836666107177734,-68.57066345214844,-63.92432022094727,-111.31632232666016,2.692447662353516,-7.1588640213012695,1.234389305114746,-136.93470764160156,-82.49807739257812,76.2287368774414,-0.7304174900054932,-1.4229471683502195,2.17740249633789
1356.597721576691,163.85345458984375,-68.4056396484375,-88.84611511230469,-2.8754000663757324,-0.0165332518517971,3.057823181152344,-35.3280029296875,-57.70481872558594,-163.7258758544922,14.387041091918944,-4.575949668884277,15.158782958984377,-1.4799233675003052,47.48250198364258,-90.5142593383789,-2.04964542388916,1.0137672424316406,-8.936100006103516,-75.01396179199219,-66.78204345703125,-110.10337829589844,2.7451510429382324,-6.593462944030762,2.0236377716064453,-132.61915588378906,-83.5546646118164,70.31122589111328,-4.31242561340332,-1.0057737827301023,2.1704721450805664
1356.6272614002228,156.652587890625,-67.9126205444336,-82.97691345214844,0.2737287282943725,-1.0197458267211914,1.626699447631836,-31.757648468017575,-60.40523147583008,-165.56887817382812,-13.093000411987305,-11.557634353637695,4.243208885192871,0.6668800711631775,40.92480850219727,-78.85369110107422,-0.2522070407867431,4.8321733474731445,-4.0557050704956055,-80.13532257080078,-69.79290771484375,-110.63441467285156,1.0654230117797852,-4.10237979888916,2.5771169662475586,-129.99600219726562,-83.95902252197266,66.00395202636719,-2.148808002471924,0.0781895220279693,0.5313138961791992
1356.6572489738464,148.91049194335938,-66.78367614746094,-77.69183349609375,1.903052806854248,-4.135444641113281,2.773662567138672,-34.847938537597656,-63.630985260009766,-164.87835693359375,-5.9485578536987305,3.3072657585144043,5.222429275512695,-3.0340735912323,34.12969970703125,-71.58660888671875,0.6314685344696045,5.715635299682617,5.61063289642334,-83.09205627441406,-72.66030883789062,-112.87535095214844,0.3933777213096618,0.334472119808197,2.70710563659668,-133.15399169921875,-82.82022857666016,66.99758911132812,3.885310173034668,-3.677861213684082,-3.18660831451416
1356.6872754096985,141.7906951904297,-65.2856674194336,-73.71719360351562,2.566638946533203,-5.308361053466797,8.405435562133789,-39.87022399902344,-66.73373413085938,-163.92245483398438,-7.144615173339844,-2.817298889160156,-2.430723190307617,-9.860069274902344,27.42133140563965,-65.96028137207031,7.389698028564453,10.725147247314451,5.005471229553223,-84.29946899414062,-74.5446548461914,-116.54578399658205,-1.25701642036438,0.5469470024108887,2.383127212524414,-139.85894775390625,-80.40745544433594,71.20979309082031,2.6347804069519043,-3.418099403381348,-0.987238883972168
1356.7178082466123,131.5640869140625,-65.03588104248047,-73.90868377685547,14.34720230102539,1.1438491344451904,1.767683029174805,-37.931434631347656,-68.94477081298828,-166.509521484375,-6.628396987915039,-2.754179000854492,-1.097529411315918,-24.17428207397461,19.6418514251709,-61.83412170410156,3.0053858757019043,3.1171369552612305,3.35634708404541,-85.72867584228516,-74.8447494506836,-120.57240295410156,-2.553189277648926,4.602463722229004,0.5807104110717773,-145.37562561035156,-77.46937561035156,72.80927276611328,6.255434036254883,-1.0399231910705566,1.0265512466430664
1356.7478921413422,133.1640167236328,-62.22069549560547,-84.28959655761719,19.766265869140625,16.193065643310547,5.276643753051758,-35.72301483154297,-69.99504089355469,-169.19027709960938,-7.926509857177734,0.4058894515037536,0.8518447875976562,-32.56705093383789,11.872684478759766,-58.88356018066406,0.4596667289733886,-8.067367553710938,10.849729537963867,-83.24665069580078,-74.40144348144531,-124.58941650390624,-3.77318286895752,4.606040954589844,-0.1496171951293945,-148.79324340820312,-75.8259506225586,72.67240905761719,3.605034828186035,-0.2820631861686706,1.2306804656982422
1356.778423786163,140.93807983398438,-55.60529327392578,-98.2828598022461,16.12359619140625,9.135080337524414,2.96368408203125,-30.649248123168945,-69.6418228149414,-173.72943115234375,-6.250598907470703,0.8238555192947388,-2.2152857780456543,-36.81257247924805,4.838223457336426,-57.06325912475586,6.433289527893066,2.4590282440185547,-3.503908157348633,-74.2844467163086,-74.08263397216797,-130.788330078125,-7.282432556152344,2.287957191467285,-0.5094308853149414,-152.8671417236328,-75.2219467163086,75.60384368896484,-2.0574045181274414,2.040027141571045,2.031198501586914
1356.8071451187134,148.42254638671875,-46.3510627746582,-110.7331771850586,6.002007484436035,2.224696159362793,-1.2417612075805664,-26.79491806030273,-69.71660614013672,-176.8221435546875,-6.449089050292969,0.3489161133766174,-1.12725830078125,-47.612300872802734,-1.996933460235596,-54.33316421508789,-4.925171852111816,-8.141790390014648,6.806314468383789,-62.02809143066406,-74.47686004638672,-138.27633666992188,-8.277641296386719,0.6259467601776123,-1.446660041809082,-154.78016662597656,-74.08085632324219,77.91151428222656,3.45520544052124,1.9051756858825684,0.1736268997192382
1356.8677101135254,155.782470703125,-36.10190963745117,-120.13651275634766,-0.422153890132904,0.0441261529922485,-8.050167083740234,-27.42144012451172,-70.80706024169922,-175.88262939453125,-5.042404174804688,0.2292712032794952,-2.21897554397583,-48.4637336730957,-7.987833976745605,-50.655643463134766,-3.961297035217285,-3.804119110107422,6.129940032958984,-48.0953483581543,-75.65409851074219,-146.52386474609375,-5.620773315429688,-1.5251245498657229,-2.46675968170166,-156.20852661132812,-72.94221496582031,80.2956314086914,6.121585845947266,2.0625786781311035,0.9687652587890624
1356.897735118866,163.43399047851562,-26.97460556030273,-126.93199157714844,-1.9328832626342771,-0.166407823562622,-11.198047637939451,-29.950925827026367,-72.17479705810547,-172.0987548828125,-3.7184224128723145,-3.6530165672302246,-2.0837178230285645,-48.33579635620117,-13.572744369506836,-46.09540557861328,-1.914172887802124,-0.1193575263023376,-4.299260139465332,-32.84918212890625,-76.67488098144531,-156.28067016601562,-1.0527820587158203,-4.286508560180664,-3.631303310394287,-159.07652282714844,-72.73267364501953,84.07843017578125,0.7431068420410156,1.695835828781128,-1.3946800231933594
1356.9272644519806,169.5132598876953,-20.751155853271484,-132.71511840820312,-3.980611324310303,0.854782223701477,-10.242179870605469,-35.57270050048828,-74.07908630371094,-165.48043823242188,-5.556036949157715,-6.45583438873291,-4.162363052368164,-51.11264801025391,-20.28143882751465,-41.26953887939453,-2.141672134399414,-0.6064169406890869,-3.158494472503662,-18.032508850097656,-76.68559265136719,-166.23666381835938,2.3494362831115723,-5.735630989074707,-8.699338912963867,-161.69049072265625,-73.15617370605469,87.70503234863281,-0.6803889274597168,0.4011625051498413,-5.564664840698242
1356.9574728012085,170.733642578125,-18.98361015319824,-138.17984008789062,-11.18600845336914,-0.9357937574386596,-14.623153686523438,-47.67465972900391,-75.89532470703125,-153.3634490966797,-5.59495735168457,-1.7948055267333984,-3.6721482276916495,-51.06841659545898,-28.99495887756348,-38.34760284423828,0.5848003625869751,-0.5832642316818237,-4.387644767761231,-8.856983184814453,-75.88992309570312,-174.87701416015625,5.707716941833496,-6.674949645996094,-7.7764892578125,-164.10128784179688,-73.442138671875,91.6015396118164,2.38081693649292,1.2158021926879885,-6.078363418579102
1356.9865927696228,164.69207763671875,-23.061342239379883,-141.2473907470703,-19.91078186035156,-2.848063945770264,-14.566122055053713,-65.55720520019531,-76.83064270019531,-135.6319580078125,-5.867647171020508,-1.2842509746551514,-2.454925537109375,-48.374637603759766,-40.59782028198242,-37.99137496948242,7.820709228515625,-1.5725877285003662,-1.3258447647094729,1.4693658351898191,-73.20494079589844,173.7264862060547,1.8304519653320312,-9.609519958496094,-0.8067598342895508,-165.389404296875,-72.89443969726562,94.26130676269533,4.74578857421875,2.425888061523437,-1.6020193099975586
1357.0172772407532,164.823974609375,-29.66944122314453,-141.0130157470703,-1.1667366027832031,-3.593688488006592,39.65813446044922,-81.03233337402344,-77.02305603027344,-120.48297882080078,-7.664236068725586,-0.0469672232866287,0.4534645080566406,-39.1979866027832,-53.91558074951172,-43.87624740600586,13.058723449707031,-7.409334182739258,21.74531555175781,18.523120880126957,-68.1109390258789,154.95440673828125,-5.66727352142334,-10.106199264526367,14.328214645385742,-164.73468017578125,-72.44064331054688,93.8146743774414,4.62845516204834,-0.1688490509986877,1.083846092224121
1357.0476672649384,170.57107543945312,-28.7210693359375,-135.29150390625,-19.250057220458984,-4.683018684387207,15.154014587402344,-88.5575942993164,-77.36309051513672,-112.98619079589844,-6.657230377197266,-0.1022016257047653,-0.4969673156738281,-17.433460235595703,-60.99701690673828,-59.6319694519043,13.492111206054688,-13.30889129638672,23.99458694458008,40.23775100708008,-56.22289657592773,134.01654052734375,-5.314395904541016,0.3039364814758301,29.526596069335938,-165.4562530517578,-72.66744995117188,93.92981719970705,-1.01189923286438,-2.6592345237731934,-2.579357147216797
1357.0776629447937,172.81504821777344,-21.21316337585449,-129.51409912109375,-16.150569915771484,-11.707290649414062,12.748319625854492,-91.4535675048828,-78.55609893798828,-109.78230285644533,-6.952707290649414,-0.0001016983878798,-1.0242633819580078,-15.883317947387695,-58.30279541015625,-60.71968460083008,15.099714279174805,-13.257980346679688,-0.166478157043457,58.426544189453125,-37.259578704833984,117.05796813964844,-12.778221130371094,-1.7521989345550537,27.293045043945312,-168.08331298828125,-70.38873291015625,96.51043701171876,-4.3950042724609375,-0.2845855951309204,10.634241104125977
1357.1072251796722,165.78884887695312,-13.038524627685549,-127.68798065185548,-17.32666015625,-10.857072830200195,10.95435905456543,-89.4999771118164,-79.92161560058594,-111.67332458496094,-8.161691665649414,-0.7949168682098389,-1.791996955871582,-31.3304500579834,-49.31249237060547,-49.31786346435547,9.824615478515623,-17.956031799316406,12.61928939819336,67.90773010253906,-18.199609756469727,102.76177215576172,-0.9782871007919312,1.2635200023651123,16.700027465820312,-169.55279541015625,-69.86917877197266,97.66123962402344,0.1161569952964782,-1.0027103424072266,9.71656608581543
1357.1674394607544,160.7124481201172,-6.056334018707275,-127.751220703125,-7.62418270111084,-9.204061508178713,-0.907756805419922,-79.7085952758789,-80.46895599365234,-122.34913635253906,-8.514883041381836,-1.1168060302734375,-2.03620719909668,-37.84706115722656,-39.209720611572266,-45.04376220703125,3.339316368103028,-15.993759155273438,4.757543563842773,74.33560180664062,-2.508898496627808,89.0922622680664,5.5598344802856445,-1.023481845855713,7.112403869628906,-171.4951934814453,-70.78620910644531,98.92696380615234,5.716172218322754,2.998847007751465,5.977387428283691
1357.1982064247131,159.6699981689453,-3.3708741664886475,-128.53211975097656,-2.5607218742370605,-1.7714450359344482,-9.762609481811523,-63.2723274230957,-79.69197082519531,-140.93162536621094,-8.634830474853516,-0.4840210676193237,-0.8333330154418945,-43.57368087768555,-33.5623664855957,-45.06487655639648,-2.1902174949646,-7.83437442779541,-3.3324780464172363,77.2952880859375,6.8191819190979,75.82405090332031,2.4462709426879883,-3.5048093795776367,5.875062942504883,-176.5102996826172,-71.19924926757812,102.3356475830078,5.393238067626953,3.1159677505493164,10.647220611572266
1357.2270758152008,160.8236541748047,-7.086306571960449,-129.26971435546875,-1.192615985870361,0.6225020885467529,-15.284799575805664,-42.04340362548828,-76.93791198730469,-165.07562255859375,-9.080652236938477,1.5279436111450195,1.9716854095458984,-50.91004943847656,-32.43497085571289,-46.9119987487793,-6.3057050704956055,-2.4174227714538574,0.5429916381835938,76.80138397216797,9.33499813079834,66.99234771728516,-4.819937705993652,-0.3378691077232361,3.513025283813477,-179.78994750976562,-71.47886657714844,102.6784439086914,5.342248916625977,1.923893928527832,7.99310302734375
1357.2570714950562,160.63137817382812,-17.678773880004883,-130.35455322265625,-3.3587379455566406,-0.6701745986938477,-15.335508346557615,-22.72062873840332,-68.55970001220703,174.20010375976562,-5.462777137756348,3.000467300415039,1.5862932205200195,-54.992130279541016,-34.94362258911133,-50.10641098022461,-4.224448204040527,0.0477778911590576,-0.6832304000854492,69.19847869873047,9.01317024230957,64.1880111694336,-8.168680191040039,4.7212629318237305,2.8322105407714844,176.1695098876953,-71.59442901611328,103.52294158935548,3.2972121238708496,2.1189961433410645,4.030495643615723
1357.2873678207395,157.61019897460938,-33.311038970947266,-131.94107055664062,-4.895479202270508,-3.238098621368408,-10.077718734741213,-15.370118141174316,-64.00675201416016,167.91128540039062,-9.054136276245115,1.1839346885681152,-5.804695129394531,-59.62127685546875,-39.9476203918457,-53.098731994628906,-3.2669973373413086,1.7517521381378174,-1.5057783126831057,55.88548278808594,10.232874870300291,65.38579559326172,-2.145637035369873,0.0992418229579925,-8.763816833496094,170.66383361816406,-71.0981216430664,106.2264404296875,-0.6200571060180664,0.5671985149383545,-0.8241558074951172
1357.317269563675,154.31724548339844,-51.46994018554688,-133.60891723632812,-5.044429779052734,-4.358355522155762,-4.859577178955078,-16.213809967041016,-63.68120193481445,169.90354919433594,-14.18405532836914,11.066307067871094,-15.35378074645996,-62.80520248413086,-45.63579177856445,-56.298927307128906,-1.4217848777770996,3.493619441986084,-3.0717921257019043,46.40240097045898,14.225347518920898,69.9922866821289,2.69337797164917,1.3156790733337402,-8.816791534423828,166.82894897460938,-70.9354476928711,107.9871826171875,-1.402326583862305,-0.8929835557937622,-8.417196273803711
1357.347270488739,154.54579162597656,-71.14239501953125,-136.37930297851562,-2.229081153869629,-2.9158935546875,9.276603698730469,-23.437091827392575,-66.2250747680664,179.53561401367188,-0.1690335571765899,-1.209395170211792,-7.458234786987305,-64.27516174316406,-50.04273986816406,-60.157691955566406,0.1537152528762817,1.741483211517334,-6.87126350402832,39.75846099853516,21.44249153137207,76.63965606689453,-4.300223350524902,5.411139488220215,-6.922670364379883,162.48611450195312,-70.79527282714844,110.69668579101562,1.0368552207946775,-1.284842014312744,-10.067977905273438
1357.3769421577454,-108.24713134765624,-89.05436706542969,129.5176239013672,12.262882232666016,3.602619171142578,14.512447357177734,-34.3802490234375,-67.2489013671875,-174.2044219970703,12.369029998779297,-15.991170883178713,-0.4542160034179687,-67.52428436279297,-52.54970550537109,-63.60282516479492,0.2136430740356445,2.511227607727051,-5.831352233886719,34.980979919433594,31.111804962158203,85.93255615234375,-3.599271297454834,6.825085639953613,-11.730401992797852,155.76966857910156,-71.48904418945312,115.11105346679688,1.6845407485961914,1.0193519592285156,-9.704336166381836
1357.4071209430697,-17.889617919921875,-75.86343383789062,48.27072143554688,15.06649398803711,10.160587310791016,4.954294204711914,-38.2735595703125,-67.18755340576172,-173.25331115722656,-6.445761680603027,-1.840235471725464,1.419170379638672,-69.72620391845703,-53.56943130493164,-67.27487182617188,0.4979242086410522,3.6018309593200684,-4.374466896057129,38.87582015991211,41.19076919555664,100.23828887939452,-7.488399505615234,12.501285552978516,-20.151416778564453,148.1562957763672,-72.74127960205078,120.50418090820312,0.944265365600586,1.6662368774414062,-12.031696319580078
1357.4676306247711,-12.193685531616213,-71.26899719238281,45.10855102539063,8.71335220336914,21.322399139404297,-27.84731674194336,-47.28184509277344,-69.09339904785156,-165.45640563964844,-0.3097366690635681,-2.0886850357055664,-2.613581657409668,-68.91912841796875,-53.67123031616211,-71.50321960449219,1.0816268920898438,2.1334266662597656,-4.878478050231934,60.58636093139648,48.89435577392578,119.15879821777344,-4.734585762023926,9.495126724243164,-24.952556610107425,140.91258239746094,-73.13738250732422,125.09429931640624,1.157703876495361,-3.2539453506469727,-9.159151077270508
1357.49689412117,-7.1133246421813965,-74.81993103027344,37.59526824951172,5.360598564147949,-2.05753231048584,-2.585898399353028,-64.040283203125,-70.36426544189453,-150.70700073242188,-9.297870635986328,-6.691264152526856,1.6102218627929688,-68.50248718261719,-53.33363342285156,-75.58659362792969,3.260087490081787,1.8629980087280276,-2.6208724975585938,88.82271575927734,52.89937973022461,128.87527465820312,-10.304683685302734,-7.506631851196289,2.526921272277832,140.0011749267578,-72.16639709472656,123.2765121459961,-1.4123892784118652,-3.617795944213867,1.797903060913086
1357.5271337032318,6.584212779998779,-78.93711853027344,24.788244247436523,5.297886848449707,6.563173294067383,0.6542549133300781,-75.19837951660156,-69.78546142578125,-139.77267456054688,-7.7236480712890625,-0.1715969145298004,2.2012290954589844,-66.70831298828125,-53.07934188842773,-80.5269546508789,2.216768741607666,2.2283849716186523,-2.5287442207336426,92.04126739501952,57.35464859008789,125.0572509765625,-3.977185249328613,-0.6965444087982178,-6.098667144775391,141.92352294921875,-72.32220458984375,120.26438903808594,-1.3032917976379397,2.28676700592041,0.99755859375
1357.5573072433472,35.36273193359375,-82.18083953857422,-2.511242151260376,3.658932685852051,-4.179924964904785,2.378232002258301,-80.09730529785156,-68.58721923828125,-134.85400390625,-7.284355163574219,2.249518871307373,1.2449073791503906,-65.93164825439453,-53.33226776123047,-84.00556945800781,2.164224624633789,1.123176097869873,-1.4056291580200195,82.4123306274414,62.76387405395508,110.59380340576172,-4.597323417663574,-6.285732269287109,-11.47244644165039,147.02029418945312,-72.80023956298828,115.0710678100586,5.848117828369141,3.612216472625733,-0.8566474914550781
1357.5871496200562,78.97270965576172,-83.15731048583984,-41.7182731628418,8.216629028320312,-2.306781768798828,4.110072135925293,-81.56253051757812,-66.8830795288086,-134.37533569335938,-7.599299430847168,-0.4396703243255615,2.05568790435791,-67.31127166748047,-54.378665924072266,-83.92298889160156,2.1929306983947754,3.0562233924865723,4.528180122375488,56.71650314331055,67.96675109863281,78.3646240234375,-4.461715698242188,7.64201545715332,-13.67282485961914,153.32603454589844,-73.5486068725586,108.57804870605467,5.721488952636719,1.2479071617126465,7.027622222900391
1357.617139339447,102.26481628417967,-83.04723358154297,-62.71701049804688,0.6416440010070801,-8.77684211730957,3.651300430297852,-80.20426940917969,-64.75043487548828,-136.23013305664062,-6.678206443786621,-2.819516658782959,1.441086769104004,-67.70049285888672,-55.680274963378906,-81.3187026977539,2.77555513381958,2.584947109222412,8.41563606262207,23.196807861328125,63.869384765625,36.716583251953125,-1.6281797885894775,7.960809707641602,-15.794641494750977,158.23374938964844,-73.32085418701172,103.83740997314452,1.3852434158325195,0.9064265489578248,4.983914375305176
1357.647453069687,117.13300323486328,-83.95442199707031,-78.26551055908203,0.4778635501861572,-6.739933013916016,5.183752059936523,-77.10563659667969,-62.594635009765625,-138.68426513671875,-8.561433792114258,-6.0824785232543945,0.0603456497192382,-67.27029418945312,-56.66572952270508,-77.94672393798828,2.865004062652588,-1.0154094696044922,5.882317543029785,8.981691360473633,52.226932525634766,13.499223709106444,-0.3871342539787292,4.084323883056641,-12.434593200683594,163.74879455566406,-72.16899871826172,99.77722930908205,-1.6222031116485596,-0.6028188467025757,1.1463031768798828
1357.6774516105652,133.76698303222656,-83.3085708618164,-92.65570068359376,-2.813504695892334,1.191300630569458,2.1712512969970703,-68.14738464355469,-60.557891845703125,-144.18215942382812,-7.808444023132324,-8.943035125732422,-1.4207305908203125,-66.9073486328125,-57.1064682006836,-74.4327392578125,3.3632755279541016,-5.398104667663574,1.228017807006836,5.835302352905273,40.26537322998047,0.6007455587387085,1.6084587574005127,-2.3338608741760254,-5.60502815246582,168.1295166015625,-70.57728576660156,98.52310180664062,-2.0786800384521484,-1.58931303024292,1.110761642456055
1357.7069861888883,148.9014129638672,-82.86067199707031,-105.62403106689452,-1.972273111343384,3.1139793395996094,1.0233087539672852,-52.91471481323242,-59.139747619628906,-147.56553649902344,-20.80854034423828,-1.804161071777344,-10.613754272460938,-70.53291320800781,-56.92475891113281,-69.76020050048828,1.610910415649414,-4.735559463500977,-1.2830486297607422,9.808171272277832,30.994070053100582,-8.700723648071289,-1.4521527290344238,-9.004386901855469,2.495330810546875,171.46751403808594,-69.08702087402344,99.88992309570312,-2.1989235877990723,0.287685751914978,1.6968088150024414
1357.7673020362854,164.0800323486328,-82.57323455810547,-120.82432556152344,1.4077644348144531,0.036789558827877,-0.0285749435424804,-46.168704986572266,-62.3203010559082,-140.51898193359375,-33.283241271972656,-9.949487686157228,-17.616825103759766,-74.43946075439453,-56.848663330078125,-64.95904541015625,-0.7783520221710205,-1.6278831958770752,1.4942550659179688,22.688627243041992,26.47595596313477,-13.527812004089355,-2.6547021865844727,-17.66372299194336,7.586074829101562,174.2583465576172,-67.78704833984375,102.91583251953124,-2.6734113693237305,-0.1597283780574798,-1.4611835479736328
1357.797485589981,174.7385711669922,-81.69437408447266,-131.2093048095703,0.7410348653793335,-1.4716882705688477,0.1892042160034179,-60.34013366699219,-69.35836791992188,-120.77114868164062,-13.334512710571287,-9.477075576782228,-10.804742813110352,-73.93941497802734,-56.66969680786133,-62.13106918334961,-0.9900203943252563,-0.5406637191772461,1.017470359802246,47.51724243164063,25.079965591430664,-11.206403732299805,-4.335190773010254,-1.4322779178619385,-4.380745887756348,177.3723602294922,-66.7258071899414,105.2086181640625,-0.56854248046875,1.2084286212921145,-0.9588871002197266
1357.8272700309751,-179.67686462402344,-80.6710433959961,-136.01904296875,0.3977994322776794,0.519506573677063,0.4603242874145508,-89.49055480957031,-74.6989517211914,-88.58887481689453,-2.65885066986084,-3.7604260444641113,-10.339988708496094,-71.54690551757812,-56.25170516967773,-63.68549728393555,-0.7885299921035767,-0.0621382892131805,2.073561668395996,58.53014373779297,20.863849639892575,-7.88787317276001,3.811283588409424,5.17286491394043,12.78986930847168,177.11476135253906,-66.85985565185547,107.30363464355467,1.7445006370544434,3.9394121170043945,2.416844367980957
1357.8568060398102,-176.37887573242188,-79.77434539794922,-139.0250244140625,-0.2082376182079315,0.7028094530105591,0.3923282623291015,-125.22541046142578,-75.3465347290039,-50.900177001953125,-0.160545527935028,0.944938898086548,-12.435342788696287,-69.63533020019531,-54.830474853515625,-69.10791015625,-2.7867021560668945,1.0057532787322998,2.846406936645508,61.67078399658203,14.369845390319824,-4.2135748863220215,-3.255980491638184,-7.286303520202637,-3.1213393211364746,175.24942016601562,-67.33911895751953,109.57756805419922,-2.6710972785949707,0.9270554780960084,1.4133281707763672
1357.887174367905,-174.6555633544922,-78.85812377929688,-141.09690856933594,-0.6924288272857666,-0.1528349220752716,-0.0732069015502929,-152.2205810546875,-72.9935302734375,-24.02422332763672,-0.0097567811608314,0.5307689905166626,-9.018558502197266,-67.32061004638672,-52.44186019897461,-76.04679107666016,-0.2076315879821777,-2.708413600921631,-3.329090118408203,70.7630386352539,5.114262104034424,0.7799792885780334,2.860257625579834,1.728102207183838,-5.8355255126953125,173.18948364257812,-68.22824096679688,112.75709533691406,-4.692086219787598,1.2320435047149658,-1.9631004333496092
1357.9174344539642,-175.7899932861328,-77.25092315673828,-140.41685485839844,-0.332830011844635,-2.9688920974731445,-0.871495246887207,-170.93858337402344,-70.53936767578125,-6.821564197540283,0.8671615123748779,-0.5068553686141968,-4.776841163635254,-69.40583038330078,-49.27273941040039,-82.19796752929688,-4.622323989868164,-0.77039635181427,-3.637117862701416,75.46490478515625,-6.963263511657715,4.226630687713623,3.4228620529174805,8.173093795776367,1.501481056213379,170.08404541015625,-68.93180847167969,115.835693359375,-0.8258771896362305,0.977840542793274,-5.275269508361816
1357.9474318027496,-179.749755859375,-74.6623306274414,-136.86399841308594,-0.7031658887863159,-2.4914193153381348,-0.5979804992675781,174.92771911621094,-69.0547866821289,5.630607604980469,-1.3617100715637207,0.1203308701515197,-1.1755485534667969,-68.364501953125,-45.651611328125,-88.83407592773438,-1.27624773979187,0.5745530128479004,-4.181795120239258,72.03482818603516,-21.710004806518555,7.479981899261475,10.314203262329102,1.043215036392212,-3.636500835418701,165.4599151611328,-69.2319107055664,119.64796447753906,1.7065610885620115,0.7218059301376343,-7.635125160217285
1357.9775235652924,176.02601623535156,-70.74134826660156,-132.60447692871094,2.2924628257751465,-4.447819709777832,-2.5475425720214844,168.31002807617188,-70.00591278076172,18.07350349426269,-6.156371116638184,9.909475326538086,2.432270050048828,-67.3091812133789,-41.15663909912109,-95.59388732910156,0.2218022346496582,-1.2087228298187256,-7.393387794494629,67.34261322021484,-37.4412841796875,13.14315414428711,14.980949401855469,2.9986491203308105,6.002903938293457,159.42251586914062,-68.9100112915039,124.23966979980467,-0.0386550426483154,-0.7079569101333618,-8.486074447631836
1358.037385225296,173.9623565673828,-66.3836441040039,-128.83291625976562,1.2238709926605225,-0.5415877103805542,-0.7678699493408203,169.5089569091797,-71.1029281616211,23.65261650085449,-8.041488647460938,6.241641998291016,1.468976974487305,-69.63764190673828,-36.09215927124024,-101.82477569580078,-2.4622578620910645,0.7382590770721436,-7.140311241149902,60.14486312866211,-50.73291015625,18.38143348693848,11.078350067138672,-0.2456255257129669,15.55282974243164,153.74488830566406,-68.0420150756836,128.3309783935547,-0.628975510597229,0.8524713516235352,-3.4008584022521973
1358.0674629211426,173.11695861816406,-61.87895965576172,-126.02317810058594,0.2621386647224426,0.7771972417831421,-0.2633752822875976,167.69586181640625,-71.41494750976562,21.941621780395508,10.710405349731444,3.723111152648926,3.602672576904297,-71.36138153076172,-30.907026290893555,-107.99519348144533,-2.1075568199157715,3.9554176330566406,-1.6291685104370115,54.83891677856445,-56.17130279541016,15.929239273071287,7.39493465423584,1.185236930847168,3.575992584228516,148.7087860107422,-67.15381622314453,131.6540069580078,0.9156394004821776,0.3230687379837036,-0.0438566207885742
1358.0976309776306,172.64683532714844,-57.53478240966797,-124.1819076538086,-0.0370441377162933,0.7691959142684937,0.5430622100830078,164.0207977294922,-74.6115493774414,21.03093147277832,-4.253793716430664,8.082832336425781,16.221458435058594,-71.41756439208984,-25.01942443847656,-113.84868621826172,1.536057710647583,4.161492347717285,2.9996700286865234,56.89836120605469,-56.0552978515625,9.309637069702148,14.211374282836914,-3.213090419769287,2.891551971435547,144.01669311523438,-66.95465850830078,135.36769104003906,-2.81326961517334,1.293372631072998,1.6418352127075195
1358.1271409988403,172.62286376953125,-53.90393829345703,-123.17591857910156,0.0775985568761825,0.2015488743782043,1.2574005126953125,165.836669921875,-72.97013854980469,15.34658145904541,-4.831897735595703,3.716074466705322,16.242530822753906,-73.1225814819336,-17.651752471923828,-118.79304504394533,6.871492385864258,5.744609832763672,15.83091926574707,59.00208282470703,-53.56508255004883,5.561722755432129,13.567264556884766,-1.5587923526763916,13.682977676391602,143.51519775390625,-66.33728790283203,136.00311279296875,-6.166050910949707,2.2245359420776367,10.029376983642578
1358.15714097023,173.55795288085938,-51.74335479736328,-122.57587432861328,1.148620843887329,1.1804161071777344,2.468939781188965,172.5684814453125,-69.57574462890625,8.300592422485352,8.208654403686523,-7.070407867431641,15.179805755615234,-73.80391693115234,-8.766077041625977,-122.04873657226562,15.810916900634766,1.371675968170166,26.51963806152344,62.7884407043457,-51.36720275878906,2.9949119091033936,19.34986114501953,-0.3677111864089966,5.853259086608887,141.75389099121094,-66.444091796875,138.4969482421875,0.5994759798049927,3.0840325355529785,8.469127655029297
