Timestamp,D4:22:CD:00:05:5D_EulerX,D4:22:CD:00:05:5D_EulerY,D4:22:CD:00:05:5D_EulerZ,D4:22:CD:00:05:5D_FreeAccX,D4:22:CD:00:05:5D_FreeAccY,D4:22:CD:00:05:5D_FreeAccZ,D4:22:CD:00:05:5E_EulerX,D4:22:CD:00:05:5E_EulerY,D4:22:CD:00:05:5E_EulerZ,D4:22:CD:00:05:5E_FreeAccX,D4:22:CD:00:05:5E_FreeAccY,D4:22:CD:00:05:5E_FreeAccZ,D4:22:CD:00:05:6B_EulerX,D4:22:CD:00:05:6B_EulerY,D4:22:CD:00:05:6B_EulerZ,D4:22:CD:00:05:6B_FreeAccX,D4:22:CD:00:05:6B_FreeAccY,D4:22:CD:00:05:6B_FreeAccZ,D4:22:CD:00:05:6E_EulerX,D4:22:CD:00:05:6E_EulerY,D4:22:CD:00:05:6E_EulerZ,D4:22:CD:00:05:6E_FreeAccX,D4:22:CD:00:05:6E_FreeAccY,D4:22:CD:00:05:6E_FreeAccZ,D4:22:CD:00:49:AA_EulerX,D4:22:CD:00:49:AA_EulerY,D4:22:CD:00:49:AA_EulerZ,D4:22:CD:00:49:AA_FreeAccX,D4:22:CD:00:49:AA_FreeAccY,D4:22:CD:00:49:AA_FreeAccZ
403.69745922088623,176.92930603027344,-55.76332473754883,-107.12335968017578,-0.6964330673217773,1.2389395236968994,1.5412101745605469,-156.1653594970703,-38.709754943847656,-91.58513641357422,7.174309730529785,4.325611114501953,-5.913498878479004,-18.92008209228516,-2.1584954261779785,-86.0595932006836,-9.436458587646484,-7.72479248046875,9.238147735595703,111.41427612304688,-59.8893928527832,123.37181091308594,5.269876480102539,0.9588041305541992,9.78960418701172,137.57835388183594,-71.16471099853516,148.14739990234375,-2.958861827850342,1.6817915439605713,5.377006530761719
403.7137453556061,163.28677368164062,-66.23780059814453,-115.16123962402344,0.2676107287406921,-0.9914536476135254,-0.3122158050537109,-140.00123596191406,-54.67232894897461,-100.39898681640624,5.109975814819336,0.1514872312545776,-5.999761581420898,-89.09783935546875,-32.9993782043457,-54.06646728515625,1.772471904754639,3.806930541992188,-2.149364471435547,159.6383819580078,-75.53509521484375,83.5372314453125,13.093072891235352,1.766038417816162,6.135176658630371,140.97872924804688,-74.65853881835938,146.923095703125,-4.804716110229492,-0.0392953604459762,6.245388031005859
403.7646367549896,-179.56719970703125,-64.21907806396484,-129.94427490234375,1.0490212440490725,-0.0487869530916214,-0.2955513000488281,147.6978759765625,-75.88896942138672,41.84881591796875,1.7213199138641355,0.4935996532440185,20.611759185791016,-82.64872741699219,-10.397144317626951,-54.04203414916992,5.663654327392578,-2.927608013153076,16.922264099121094,27.630603790283203,-70.78899383544922,137.78421020507812,-14.492609024047852,-0.7585746049880981,14.318986892700195,101.83170318603516,-56.85104751586914,-172.44862365722656,-6.58189868927002,-4.722179412841797,2.0040197372436523
403.7945613861084,-177.02957153320312,-61.931785583496094,-131.51805114746094,-0.5170451402664185,3.3302817344665527,1.3783092498779297,141.20008850097656,-79.21668243408203,52.43837356567383,-7.028409957885742,-0.1193000376224517,8.456588745117188,-80.7094497680664,-0.4788769483566284,-50.94903945922852,5.671414375305176,-7.012310981750488,16.460697174072266,88.1959457397461,-68.46786499023438,81.7235107421875,-10.92552375793457,2.293593406677246,13.895275115966797,119.28079986572266,-66.26509094238281,170.6224365234375,-2.078588485717773,-2.4992966651916504,7.088058471679688
403.8551049232483,-175.7913360595703,-60.1384162902832,-132.24371337890625,0.2139054536819458,2.1467065811157227,0.1792106628417968,161.27427673339844,-77.68805694580078,32.022239685058594,-0.7887470722198486,3.388395309448242,4.459566116333008,-76.70713806152344,9.807467460632324,-46.04730224609375,17.562541961669922,-9.57195281982422,16.869220733642578,131.07200622558594,-57.62986373901367,50.067527770996094,-5.254047393798828,12.188165664672852,6.413637161254883,138.99661254882812,-68.80776977539062,151.56224060058594,-3.6163015365600586,-3.9269556999206543,12.313169479370115
403.8847815990448,-174.42340087890625,-58.84688186645508,-132.76048278808594,0.0027655255980789,1.6009061336517334,1.9428730010986328,-177.8618927001953,-79.54718780517578,15.13083267211914,-4.1811933517456055,3.678145408630371,-1.2766103744506836,-65.82373046875,18.401948928833008,-38.885372161865234,22.129547119140625,-12.45746612548828,16.681438446044922,169.1635284423828,-61.31177520751953,28.59481239318848,-6.711872100830078,-2.2295026779174805,7.521215438842773,153.40367126464844,-70.2173843383789,138.43276977539062,-3.714139461517334,-0.6408143043518066,5.628972053527832
403.9150333404541,-173.5184326171875,-58.58023834228516,-132.61671447753906,3.4079384803771973,-0.8011007308959961,0.6495199203491211,-144.6036376953125,-82.87999725341797,-14.16629409790039,-3.9120569229125977,3.724510669708252,-5.667824745178223,-46.54090118408203,24.061458587646484,-29.649110794067383,13.795379638671877,-15.722803115844728,9.420492172241213,-161.34661865234375,-62.02130126953125,6.445087909698486,-2.966293334960937,-16.142372131347656,2.203139305114746,163.25094604492188,-71.9056396484375,130.15882873535156,-1.5766537189483645,-0.6916239261627197,5.513688087463379
403.9448883533478,-171.9892578125,-59.67219924926758,-132.693359375,0.9816726446151732,1.5376408100128174,2.09213924407959,-72.21365356445312,-84.11700439453125,-82.78533935546875,-0.9091026782989502,3.33438777923584,-5.887408256530762,-29.92493057250977,27.13625144958496,-20.96111297607422,2.7247414588928223,-11.573999404907228,1.6758537292480469,-145.6515350341797,-60.43780899047852,-9.28290843963623,0.272644579410553,-12.914606094360352,-3.5715723037719727,173.6711883544922,-73.8479232788086,122.39318084716795,-2.249805450439453,-0.2106247544288635,7.262853622436523
403.9748899936676,-170.03172302246094,-62.25758361816406,-132.6404571533203,0.5987639427185059,2.2748327255249023,2.8312015533447266,-22.276891708374023,-76.93370056152344,-132.6746368408203,-1.3751914501190186,-0.3414869308471679,-4.1966657638549805,-13.551606178283691,29.12748146057129,-16.460384368896484,-3.9467926025390634,-15.347904205322266,-4.704745292663574,-125.21221923828124,-58.99399566650391,-22.17875099182129,1.7866265773773191,-18.162643432617188,-7.226242065429687,-175.27088928222656,-75.90086364746094,114.52350616455078,-0.6781798601150513,-0.2725378274917602,2.7747011184692383
404.0050399303436,-167.25949096679688,-66.12443542480469,-134.20303344726562,-3.644230842590332,1.601205587387085,6.289424896240234,-10.74022102355957,-66.04492950439453,-148.29554748535156,-9.387311935424805,-4.509843826293945,-4.094545364379883,1.0680794715881348,30.955629348754883,-15.231151580810549,-5.971734046936035,-8.538703918457031,-9.554832458496094,-107.32535552978516,-57.6043815612793,-31.5131893157959,1.1274969577789309,-18.904342651367188,-11.636314392089844,-164.1566925048828,-77.30870819091797,106.43602752685548,-0.1983192265033722,-0.5976930856704712,-0.7814598083496094
404.03455924987793,-164.4944610595703,-70.0605239868164,-138.24612426757812,-7.088080406188965,-3.1755847930908203,7.607645034790039,-9.110530853271484,-56.37105178833008,-155.1815643310547,-13.95500946044922,-5.649204254150391,-8.15066909790039,11.77890682220459,32.44728088378906,-16.007108688354492,-1.7207810878753662,-3.843928337097168,-5.612600326538086,-94.8429718017578,-55.13630676269531,-37.88994216918945,-0.1994895040988922,-9.722053527832031,-12.298154830932615,-155.34423828125,-77.73045349121094,100.34632110595705,0.6636136770248413,-1.225918531417847,-4.329331398010254
404.06455969810486,-163.2681884765625,-74.22710418701172,-142.77059936523438,-5.348723411560059,-4.411559104919434,-1.3748245239257812,-9.743481636047363,-48.90229797363281,-158.2886199951172,-13.946353912353516,-3.87122106552124,-9.474187850952148,20.89219284057617,34.05154037475586,-20.26745986938477,0.8726873397827148,4.619762420654297,-4.999283790588379,-86.0239486694336,-50.70037078857422,-42.1611328125,3.3848609924316406,-8.869855880737305,-12.72321891784668,-152.57887268066406,-77.34751892089844,99.40674591064452,0.0490448847413063,1.2086529731750488,-7.298721313476562
404.0946154594421,-163.98443603515625,-78.99645233154297,-141.77566528320312,5.020959854125977,1.6940038204193115,-8.153730392456055,-9.509425163269045,-43.71036529541016,-160.25845336914062,-10.055749893188477,-8.159648895263672,-13.66500473022461,20.025917053222656,35.81803894042969,-27.7718505859375,2.9378676414489746,7.701516151428223,-6.506397247314453,-81.618408203125,-45.25608444213867,-44.512813568115234,4.483217239379883,-5.758098602294922,-11.476696014404297,-149.6724090576172,-77.26566314697266,97.63241577148438,-1.4850895404815674,0.3573100566864013,-8.018415451049805
404.15497970581055,-168.0580291748047,-82.34716796875,-130.349609375,3.3826780319213867,1.290463924407959,-8.047866821289062,-10.07712173461914,-41.7723388671875,-162.41607666015625,-10.248735427856444,-3.741604804992676,-14.319883346557615,10.836291313171388,38.45213317871094,-38.83194732666016,5.478176116943359,3.702840805053711,-9.382112503051758,-79.560302734375,-39.603965759277344,-45.26582336425781,4.476736068725586,-3.656025886535645,-10.38648796081543,-140.19142150878906,-77.86591339111328,90.05014038085938,-1.9405386447906492,-1.681509494781494,-10.06744384765625
404.1849820613861,-179.5313262939453,-83.8725357055664,-112.59365844726562,4.864768981933594,6.647686958312988,-6.71092414855957,-12.196529388427734,-44.28226852416992,-162.2976531982422,-11.41522216796875,-4.734058380126953,-14.201553344726562,-4.286481857299805,40.7940788269043,-55.58895111083984,-1.8889875411987305,1.4910953044891355,-17.055641174316406,-77.99589538574219,-34.623130798339844,-45.38479232788086,6.189447402954102,-3.333622932434082,-9.93821907043457,-128.9405517578125,-78.17350006103516,81.56524658203125,-0.5482832193374634,-1.5539019107818604,-7.370049476623535
404.21411871910095,171.56480407714844,-83.65742492675781,-101.30640411376952,-0.9476882219314576,6.73088264465332,-4.298463821411133,-18.51743507385254,-51.37476348876953,-159.67041015625,-9.548309326171877,-6.685975074768066,-8.495269775390625,-19.262107849121094,39.219364166259766,-78.07080841064453,-2.760119915008545,-17.43465805053711,-22.64902877807617,-76.57939147949219,-30.942310333251957,-45.7916374206543,7.129800796508789,-3.163182258605957,-10.574968338012695,-119.9551010131836,-78.52027893066406,75.06588745117188,2.67207670211792,-1.2786247730255127,-4.996823310852051
404.2446041107178,161.12664794921875,-82.34432220458984,-91.58103942871094,0.5936336517333984,-6.246049880981445,-4.193243980407715,-27.764427185058597,-60.01548767089844,-154.4010772705078,-14.437015533447266,-5.440500259399414,-3.9085826873779297,-30.24671745300293,38.16985702514648,-91.440185546875,-9.644292831420898,-19.182491302490234,-27.94344711303711,-75.42898559570312,-28.69524383544922,-46.67237091064453,7.697113990783691,-3.672530174255371,-9.548583984375,-115.79489135742188,-78.06713104248047,72.46654510498047,1.3289101123809814,-2.1414995193481445,-2.9415998458862305
404.2747027873993,158.34197998046875,-79.47319793701172,-85.22328186035156,3.1657867431640625,-0.5005497932434082,0.2079277038574218,-30.45439910888672,-64.81193542480469,-151.06179809570312,13.551471710205078,-10.501087188720703,8.759458541870117,-53.565948486328125,50.80177688598633,-76.79401397705078,-26.72846221923828,-10.085138320922852,1.5913267135620115,-72.64371490478516,-27.599050521850582,-47.34312438964844,7.389847755432129,-6.319858551025391,-7.705780029296875,-117.74324035644533,-77.66581726074219,75.57756042480469,-1.3932085037231443,-1.8848223686218264,0.7003574371337891
404.3053894042969,155.28367614746094,-77.1028060913086,-81.24911499023438,0.8379017114639282,1.1057045459747314,4.569484710693359,-22.24791145324707,-67.37054443359375,-155.36964416503906,-4.54139518737793,-2.9648871421813965,4.778127670288086,-37.02625274658203,57.32731628417969,-43.95069122314453,1.5457477569580078,-15.23843765258789,-22.694374084472656,-68.72774505615234,-28.00301170349121,-46.821434020996094,12.924270629882812,-6.372888565063477,-5.844864845275879,-124.24283599853516,-77.37876892089844,82.89764404296875,-1.3638298511505127,0.8758432865142822,4.769063949584961
404.3349933624268,149.43865966796875,-76.02099609375,-76.18592834472656,-3.3162550926208496,-1.8842566013336184,7.32585334777832,-18.76385498046875,-69.70960998535156,-159.16293334960938,-4.051531791687012,-4.579907417297363,5.384602546691895,-13.26340389251709,51.47896957397461,-16.972509384155273,-0.3631335496902466,3.5007128715515137,-18.967357635498047,-65.84850311279297,-28.84402275085449,-45.64249420166016,13.724258422851562,-5.697236061096191,-6.90937614440918,-127.46961975097656,-76.93680572509766,85.87671661376953,-2.004833698272705,0.8148982524871826,8.365621566772461
404.3649752140045,141.54208374023438,-75.53187561035156,-67.88452911376953,-1.4481987953186035,1.5759027004241943,5.727128028869629,-18.797100067138672,-72.97864532470703,-159.25985717773438,-5.0685577392578125,-0.7919385433197021,-7.522697448730469,-13.403775215148926,39.75666046142578,-4.389625072479248,-12.253372192382812,3.667768001556397,-2.748900413513184,-69.5218734741211,-29.874670028686523,-43.20024871826172,15.243904113769531,-7.665439605712891,-3.0809245109558105,-134.68365478515625,-76.85709381103516,91.17208862304688,4.131461143493652,1.7239415645599363,3.390344619750977
404.395058631897,121.85262298583984,-76.84455871582031,-53.05695343017578,3.943084716796875,-2.4315876960754395,1.046870231628418,-17.942630767822266,-75.70057678222656,-159.5427703857422,-4.16068172454834,-3.9553842544555664,-0.5291233062744141,-23.433151245117188,25.147668838500977,2.5544214248657227,-9.660072326660156,-0.941199541091919,-4.419462203979492,-77.4954605102539,-31.873857498168945,-40.84144592285156,10.796592712402344,-1.404705047607422,-1.1418790817260742,-142.01644897460938,-75.55766296386719,94.63387298583984,8.963325500488281,1.9724526405334477,-5.133977890014648
404.45505809783936,112.05690002441406,-74.22509765625,-50.92827606201172,11.556621551513672,-3.660964012145996,1.2858514785766602,-21.957517623901367,-77.91815948486328,-155.9049835205078,-4.54237174987793,-4.301060676574707,-0.9602689743041992,-34.823089599609375,14.021683692932127,10.069098472595217,1.6123366355895996,9.666934967041016,17.99368667602539,-84.31114959716797,-34.82160186767578,-39.46980285644531,4.528036117553711,0.9753077030181884,-1.6163301467895508,-150.0486297607422,-73.09810638427734,96.8051528930664,10.41657829284668,-0.5183206796646118,-0.4942970275878906
404.4851000308991,117.83425903320312,-68.8749008178711,-66.83230590820312,24.476619720458984,18.519737243652344,8.687530517578125,-29.81342124938965,-79.6787338256836,-148.7882537841797,-3.9390945434570312,-0.6837044954299927,0.0411739349365234,-48.38285827636719,8.42048168182373,14.627614974975586,-1.0586249828338623,8.854373931884766,2.727479934692383,-89.93006134033203,-37.51058578491211,-39.06256866455078,0.6861839294433594,0.9738104343414308,-1.3991546630859375,-150.6074676513672,-72.99349212646484,93.71125030517578,-0.2892646193504333,0.0837306380271911,3.713578224182129
404.51527070999146,134.6589813232422,-57.20888137817383,-87.36251068115234,18.859760284423828,4.292308807373047,8.081113815307617,-35.729339599609375,-80.96340942382812,-142.79104614257812,-4.281068801879883,-2.166940689086914,-0.3072137832641601,-59.04854202270508,5.027526378631592,17.607934951782227,-0.2204668521881103,-5.572869300842285,19.151596069335938,-92.34800720214844,-39.015380859375,-40.8795280456543,0.8918423652648926,-5.843630790710449,0.5038022994995117,-146.4447479248047,-74.44412231445312,89.16212463378906,-4.735857009887695,3.0890793800354004,-1.7285184860229492
404.5445153713226,145.32286071777344,-45.17956161499024,-102.31160736083984,7.558490753173828,-3.578256607055664,-0.2877254486083984,-42.58256530761719,-81.8261489868164,-135.93075561523438,-3.116727352142334,-3.748703002929688,-1.681985855102539,-56.789459228515625,1.4269697666168213,20.87118530273437,-2.220249652862549,-3.3395228385925293,4.139462471008301,-91.5391082763672,-40.44596099853516,-43.83264923095703,0.9945790767669678,-7.403509140014648,2.3203163146972656,-142.8921661376953,-74.40070343017578,85.83938598632812,5.254254341125488,4.6802978515625,0.0881633758544921
404.5750136375427,152.1092987060547,-33.923824310302734,-113.25772857666016,0.8334815502166748,-3.495847702026367,-9.352291107177734,-55.09273147583008,-82.27604675292969,-123.9614486694336,-3.4530158042907715,-4.14369010925293,-2.089505195617676,-53.68988037109375,-2.4885642528533936,25.134048461914062,-0.3720014095306396,-0.3212639689445495,-1.5441160202026367,-87.91717529296875,-42.14059448242188,-45.75352096557617,2.0872879028320312,-8.723276138305664,-1.3149948120117188,-143.13865661621094,-75.10641479492188,86.11078643798828,7.290093421936035,4.581295013427734,2.500019073486328
404.6044986248016,159.9792938232422,-24.01858901977539,-120.65301513671876,-2.1251378059387207,0.0325485691428184,-11.849903106689451,-76.02843475341797,-81.86300659179688,-104.87938690185548,-3.5827207565307617,-2.7032604217529297,-1.8229446411132808,-49.83604049682617,-7.934758186340332,28.310007095336918,-1.1734089851379397,0.6869858503341675,-6.223485946655273,-84.91487121582031,-44.27090072631836,-46.2529525756836,3.780067443847656,-8.253366470336914,-3.687323570251465,-143.60926818847656,-76.603759765625,85.4573974609375,2.270406723022461,1.754518985748291,0.2842283248901367
404.6346392631531,168.8956298828125,-17.218341827392578,-126.6630630493164,-3.592824459075928,0.2365407347679138,-9.15631866455078,-100.77680206298828,-79.90097045898438,-82.7896499633789,-2.285994529724121,-1.8003923892974854,-0.5919895172119141,-48.472450256347656,-16.251787185668945,30.05463218688965,0.1169815063476562,1.751624584197998,-9.060636520385742,-83.44209289550781,-47.26018905639648,-46.57489013671875,3.9681272506713863,-5.351621627807617,-4.696017265319824,-141.3744354248047,-78.20306396484375,82.11103057861328,1.095693826675415,0.8386820554733276,-1.863214492797852
404.6650252342224,175.91880798339844,-14.901206970214844,-132.83348083496094,-10.49338722229004,-1.4740447998046875,-6.260075569152832,-115.40275573730467,-77.39954376220703,-70.2808609008789,-3.042726993560791,-1.5632405281066897,0.0534343719482421,-49.58479690551758,-28.761913299560547,31.076171875,4.153533935546875,2.5597715377807617,-2.6329965591430664,-78.83660125732422,-51.01069259643555,-48.9261474609375,3.3177390098571777,-2.3019614219665527,-4.224651336669922,-138.08871459960938,-79.43479919433594,78.03334045410156,3.768801212310791,2.5388951301574707,-3.030656337738037
404.6950163841248,177.62950134277344,-16.368024826049805,-138.17034912109375,-16.200302124023438,-2.607184410095215,-8.145431518554688,-122.9438705444336,-76.2107925415039,-63.2994270324707,-2.8532018661499023,-1.7354850769042969,0.2639331817626953,-48.635520935058594,-45.4234619140625,29.98714256286621,11.034500122070312,12.020172119140623,9.90522575378418,-67.08903503417969,-54.334022521972656,-54.81751251220703,4.3955841064453125,-4.618616104125977,-5.499567985534668,-135.0336151123047,-79.7415771484375,72.81806945800781,4.883772850036621,1.3134386539459229,-1.875697135925293
404.7550940513611,175.10365295410156,-20.884321212768555,-141.96083068847656,-16.619354248046875,-2.1537137031555176,-5.994014739990234,-128.64283752441406,-76.14566802978516,-57.47458267211914,-4.055238723754883,-2.046960830688477,0.0036745071411132,-50.7761116027832,-60.17359161376953,25.544248580932617,16.522205352783203,15.867620468139648,36.74970245361328,-52.77938079833984,-57.22332000732422,-63.71626663208008,12.435617446899414,-11.348527908325195,-3.90929651260376,-131.83143615722656,-80.07774353027344,67.26326751708984,-4.032886505126953,-1.5460150241851809,-2.3886914253234863
404.7852048873901,171.555908203125,-22.57190322875977,-143.7644500732422,-12.173925399780272,5.603996276855469,29.877471923828125,-133.08889770507812,-76.7490234375,-52.97056579589844,-4.50834846496582,-2.85059118270874,-0.3171930313110351,-47.837669372558594,-58.8558235168457,24.123300552368164,11.074922561645508,8.282363891601562,4.576754570007324,-35.54643249511719,-62.89447784423828,-80.68428802490234,21.487010955810547,-18.061424255371094,5.92424201965332,-129.93968200683594,-80.52214050292969,64.8906021118164,-0.7717233896255493,-1.9614536762237549,1.0304021835327148
404.8146185874939,171.8267059326172,-21.782941818237305,-141.6516571044922,-19.19639205932617,-10.902244567871094,-2.3552045822143555,-133.9922637939453,-77.8923110961914,-52.13248062133789,-4.760218620300293,-3.3797144889831543,-0.3335800170898437,-59.6397590637207,-43.62865829467773,31.70527458190918,23.28683853149414,7.009759902954102,23.49197769165039,-4.401100158691406,-67.74359130859375,-121.40576934814452,26.40300750732422,-23.19618225097656,17.40500259399414,-138.8356475830078,-79.82088470458984,72.50101470947266,1.8918135166168213,0.5326375961303711,5.139203071594238
404.84458565711975,172.1323699951172,-19.48525619506836,-138.37440490722656,-17.337539672851562,-6.17999267578125,9.326866149902344,-128.61996459960938,-79.53852844238281,-57.84028244018555,-4.839262962341309,-2.9922423362731934,-0.5355806350708008,-62.13771438598633,-27.52105140686035,30.95584487915039,22.45883178710937,3.820414543151856,4.623553276062012,31.80158042907715,-60.86922454833984,-168.25503540039062,13.15445327758789,1.2522034645080566,14.28618049621582,-140.49449157714844,-80.09642791748047,74.3321533203125,-1.2791333198547363,2.7101974487304688,4.646397590637207
404.874724149704,172.9213104248047,-16.05177116394043,-135.4897003173828,-15.393421173095703,-6.320662498474121,2.1561203002929688,-117.08922576904295,-81.23951721191406,-70.42191314697266,-4.498552322387695,-1.8551955223083496,-0.1519784927368164,-65.11180877685547,-16.08487319946289,24.720439910888672,8.09152603149414,-6.65003776550293,-9.728792190551758,58.28255081176758,-43.576419830322266,163.52000427246094,10.326017379760742,-3.97479772567749,4.787091255187988,-144.12037658691406,-80.16155242919922,78.86324310302734,3.376994132995605,1.8193769454956052,4.819393157958984
404.9049475193024,169.69500732421875,-14.504050254821776,-133.10791015625,-9.997135162353516,-2.6082472801208496,0.0909795761108398,-97.73458862304688,-82.60115814208984,-91.36000061035156,-4.309366226196289,-2.43027400970459,-0.2650671005249023,-69.58116149902344,-13.025156021118164,15.784666061401367,-6.934866905212402,-11.207233428955078,-6.007095336914063,71.3283462524414,-23.11432266235352,145.97373962402344,7.403341293334961,0.6311365365982056,7.556184768676758,-149.92213439941406,-80.38362121582031,84.1126708984375,5.205828666687012,4.71152400970459,2.5781078338623047
404.9346601963043,166.39297485351562,-15.803640365600586,-131.53065490722656,-5.052042007446289,-0.8239337205886841,-5.822595596313477,-68.24935150146484,-82.71880340576172,-122.46394348144533,-3.936471939086914,-1.5978431701660156,0.1191425323486328,-71.10604095458984,-18.003894805908203,6.455410957336426,-9.71298599243164,-6.330826759338379,-6.474277496337891,76.09027862548828,-4.781292915344238,132.27154541015625,4.016490936279297,-1.9095344543457031,-1.133195877075195,-156.90542602539062,-80.10977935791016,90.28897857666016,3.857241153717041,3.951182365417481,2.492361068725586
404.9650168418884,163.12918090820312,-21.0552978515625,-130.89096069335938,-4.74302864074707,0.8769385814666748,-9.23948097229004,-41.35489654541016,-80.77589416503906,-150.35971069335938,-3.423162937164306,-2.222348690032959,-0.152231216430664,-71.62369537353516,-28.066221237182617,-2.5990986824035645,-8.016300201416016,-3.257798671722412,-6.882362365722656,74.97844696044922,6.671484470367432,119.69230651855467,1.2382032871246338,-10.289936065673828,-4.109528541564941,-163.7015838623047,-79.7271499633789,95.56991577148438,2.4790477752685547,2.880825996398926,1.1384143829345703
404.9961783885956,158.7944793701172,-30.27023124694824,-130.60830688476562,-3.159626007080078,1.282639503479004,-8.147346496582031,-26.06348419189453,-77.65679931640625,-166.0654296875,-2.455235958099365,-1.8604090213775637,-1.326364517211914,-70.708984375,-40.38568115234375,-12.146102905273438,-6.712647438049316,-0.5164518356323242,-3.845276355743408,66.60330200195312,12.098699569702148,110.22107696533205,-6.374819755554199,-9.028961181640623,-2.9653611183166504,-170.26625061035156,-79.1823501586914,100.34966278076172,1.5723564624786377,1.0150821208953855,-1.8503804206848145
405.05451107025146,153.25428771972656,-42.8811149597168,-130.3217315673828,-2.9330496788024902,-0.9427248239517212,-7.080099105834961,-19.66061019897461,-74.72089385986328,-172.3480987548828,-1.237694263458252,-2.4865164756774902,-4.431408882141113,-68.11329650878906,-52.37085723876953,-23.024290084838867,-5.516219139099121,0.7759156227111816,-3.611693859100342,52.14829635620117,14.452103614807127,105.82827758789062,2.7945027351379395,-3.637223243713379,-13.01103401184082,-176.76356506347656,-78.7393569946289,105.264404296875,1.3684556484222412,0.2605487108230591,-3.533353805541992
405.0846815109253,146.88702392578125,-58.43169403076172,-128.68222045898438,-4.083433151245117,-2.165493965148926,-0.5022830963134766,-21.637041091918945,-73.48133850097656,-170.83441162109375,1.062419891357422,-7.817490577697754,-5.533647537231445,-59.58987808227539,-62.45599365234375,-37.683929443359375,-7.710166931152344,3.289320468902588,-0.9118022918701172,41.19718170166016,15.870088577270508,108.17034912109376,7.501947402954102,1.8171796798706052,-11.483524322509766,177.09877014160156,-78.60150146484375,109.7194366455078,2.026632308959961,0.5623171329498291,-5.236967086791992
405.1147572994232,133.97592163085938,-75.7813491821289,-118.86493682861328,0.2012081444263458,4.832755088806152,10.365236282348633,-25.543041229248047,-73.34728240966797,-166.2939453125,-1.736793041229248,-1.1166696548461914,2.503379821777344,-41.391357421875,-68.88941192626953,-57.91829681396485,-4.600602149963379,2.5642690658569336,-3.827775478363037,36.012203216552734,17.396520614624023,115.88045501708984,7.510015487670898,2.340135097503662,-11.335412979125977,172.5935516357422,-78.80973815917969,112.70287322998048,1.654022216796875,-0.1572297215461731,-5.77799129486084
405.1447277069092,40.85806274414063,-84.49369812011719,-28.290361404418945,13.213844299316406,7.784591674804687,7.621248245239258,-32.84975814819336,-74.00901794433594,-158.8523406982422,-3.4189748764038086,-4.289052963256836,-2.0627803802490234,-28.94854736328125,-71.42855834960938,-76.2026596069336,-3.93419361114502,3.6778855323791504,-4.588809013366699,35.55454635620117,17.853879928588867,127.13524627685548,5.59854793548584,0.7075356245040894,-8.532733917236328,170.53443908691406,-79.56742095947266,114.70832824707033,-0.4120147824287414,-2.608097076416016,-5.814525604248047
405.1751086711884,2.4343783855438232,-77.32571411132812,12.791999816894531,15.031978607177734,5.55987548828125,-5.333258628845215,-41.96028518676758,-73.68882751464844,-149.294921875,-3.3855433464050293,-3.361181735992432,-0.3721590042114258,-20.851747512817383,-72.40357971191406,-90.83885192871094,-5.2397565841674805,5.660957336425781,-3.922240734100342,37.9434700012207,16.405471801757812,142.51376342773438,-4.018105506896973,0.6233159303665161,-9.911842346191406,174.0839080810547,-80.22633361816406,113.26856994628906,1.717271089553833,-1.0524013042449951,-3.7158823013305664
405.2054696083069,7.310075759887695,-74.10403442382812,14.01626205444336,14.654157638549805,7.424315452575684,-10.06186294555664,-48.319786071777344,-72.4266586303711,-141.67713928222656,-5.451118469238281,-2.241483688354492,0.6375484466552734,-12.627737045288086,-73.38229370117188,-103.45604705810548,-2.7184457778930664,3.91872501373291,-4.013392448425293,40.11809921264648,12.17126750946045,161.99032592773438,-26.83149719238281,9.29029655456543,-11.07497215270996,-179.3126678466797,-79.91944885253906,108.35903930664062,7.640785217285156,3.1447577476501465,2.251598358154297
405.2345449924469,26.657331466674805,-75.622802734375,0.8366893529891968,16.686813354492188,7.037393569946289,-9.025285720825195,-51.37957382202149,-70.45710754394531,-138.1248016357422,-4.932929039001465,-2.012068271636963,0.7918081283569336,-7.91158390045166,-75.34627532958984,-113.44023895263672,-4.785697937011719,5.988072395324707,0.834904670715332,52.56345748901367,8.735038757324219,176.8715057373047,-15.584796905517578,-7.108354568481445,-20.368377685546875,-176.1083221435547,-79.11888122558594,105.05579376220705,7.2554826736450195,3.838065624237061,0.2033061981201172
405.2646052837372,53.90206909179688,-79.263916015625,-20.887575149536133,2.5213098526000977,-14.266368865966797,4.686859130859375,-51.6637077331543,-68.0905990600586,-137.77337646484375,-3.742110729217529,-3.4213013648986816,2.5902862548828125,-0.117370069026947,-77.40626525878906,-122.20421600341795,-4.443787574768066,5.527424812316895,2.095198631286621,78.80538940429688,13.974385261535645,173.14553833007812,6.061281204223633,-23.73727798461914,12.157108306884766,-176.2289276123047,-77.45063781738281,103.96353149414062,2.2023067474365234,-1.5820820331573486,0.3104181289672851
405.2946076393128,71.06005096435547,-82.26006317138672,-38.15777587890625,-0.8883408308029175,6.971099853515625,2.0612335205078125,-47.722599029541016,-65.34400939941406,-139.93374633789062,-1.220095157623291,-4.580580711364746,3.587321281433105,11.035025596618652,-79.70342254638672,-130.7969207763672,-2.3216443061828613,4.7476654052734375,2.9283599853515625,75.3711166381836,21.298349380493164,159.17063903808594,-27.37969970703125,-7.182686805725098,2.16561222076416,-177.47105407714844,-76.70162963867188,103.47997283935548,0.3707520961761474,1.0935368537902832,0.3528060913085937
405.3542001247406,90.76190948486328,-85.5782241821289,-64.4978256225586,-7.55924129486084,-3.591726779937744,5.598252296447754,-43.71380233764648,-61.9145393371582,-140.0268096923828,-4.3592023849487305,-7.814239501953125,-1.6444034576416016,25.45489501953125,-81.62918853759766,-141.82872009277344,-1.4813697338104248,3.549886703491211,3.4185237884521484,66.85208129882812,28.745800018310547,140.0031280517578,-15.29393196105957,3.325692176818848,-10.707115173339844,-177.64170837402344,-75.49642944335938,104.2393035888672,0.8993171453475952,-0.9380149841308594,0.6247949600219727
405.3846912384033,134.4524383544922,-83.96639251708984,-104.59577178955078,0.2219997644424438,-10.13658332824707,-0.0316057205200195,-47.36765670776367,-61.51144790649414,-131.8248291015625,-29.398468017578125,-6.250533103942871,-10.138858795166016,38.83577346801758,-82.36714172363281,-152.92396545410156,-1.140101432800293,1.8224589824676516,4.779874801635742,58.07492065429688,31.85145378112793,120.38806915283205,-1.1111514568328855,-1.6692049503326416,-6.756894111633301,-179.0935821533203,-73.13928985595703,107.07212829589844,1.3101727962493896,-0.5480613708496094,2.116552352905273
405.4146976470947,160.87246704101562,-80.54609680175781,-123.66199493408205,0.2838804125785827,3.41528844833374,-2.792468547821045,-65.97090148925781,-63.4473762512207,-109.79149627685548,-23.25840377807617,-10.674331665039062,-1.1027469635009766,43.78327560424805,-82.3760986328125,-158.15814208984375,-1.3708183765411377,0.3287210464477539,3.770463943481445,51.80304718017578,29.951919555664062,102.86341094970705,10.159357070922852,-4.728415489196777,-8.066734313964844,175.94839477539062,-71.81189727783203,111.83758544921876,-3.3276147842407227,-2.0735092163085938,-0.6432762145996094
405.4446213245392,171.634521484375,-77.14381408691406,-132.2823486328125,0.2464999258518219,-2.649642944335937,1.9643058776855469,-85.09502410888672,-62.929012298583984,-83.7253646850586,-10.907743453979492,-9.767253875732422,-1.888596534729004,34.21879196166992,-83.57057189941406,-149.481689453125,-2.613309860229492,1.0743935108184814,1.5322637557983398,51.3520622253418,25.754785537719727,88.09571838378906,16.094482421875,-4.851688385009766,-7.564590454101562,175.47496032714844,-70.5462417602539,114.35386657714844,-6.9456329345703125,-3.0182018280029297,-2.307229995727539
405.4746279716492,176.99496459960938,-73.92025756835938,-134.3751983642578,1.085190773010254,0.2747228741645813,0.8486843109130859,-101.55574035644533,-59.99065017700195,-60.43239974975586,-3.5147452354431152,-8.217121124267578,-6.919981002807617,6.357489585876465,-84.79252624511719,-117.98758697509766,-1.2776000499725342,-1.8552498817443848,-0.6267251968383789,62.98397445678711,22.097251892089844,78.15137481689453,34.70404052734375,-10.702064514160156,-17.380550384521484,177.32467651367188,-69.9219970703125,115.83992767333984,-3.919422626495361,0.1814415454864502,-0.1058311462402343
405.5047433376312,179.71339416503906,-71.37145233154297,-134.5251922607422,-0.6800202131271362,1.5481634140014648,0.7977237701416016,-118.60728454589844,-55.925201416015625,-40.95283126831055,-0.0400233045220375,-3.5212130546569824,-10.581487655639648,-25.709888458251957,-84.00070190429688,-82.10128021240234,0.6656539440155029,-5.392212867736816,-1.6965818405151367,90.16007995605467,17.097381591796875,76.79962921142578,1.9900460243225095,-4.440080642700195,-6.665894508361816,178.73782348632812,-70.4547348022461,116.79849243164062,-1.5374200344085691,0.1244797259569168,3.486491203308105
405.5345289707184,-179.10202026367188,-69.83122253417969,-136.00294494628906,-0.1439427733421325,1.3046021461486816,1.0909223556518557,-135.7098388671875,-51.803958892822266,-25.811643600463867,0.9939361810684204,-0.1525818407535553,-11.931779861450195,-40.28952407836914,-82.78691864013672,-66.98523712158203,-2.213842391967773,-4.673372268676758,-2.530592918395996,97.39263153076172,9.390236854553224,75.4642105102539,-1.4895172119140625,-5.637332916259766,10.823333740234377,177.49642944335938,-71.43162536621094,120.17636108398438,-4.113288879394531,0.4067837595939636,3.0613231658935547
405.564528465271,-178.7681884765625,-69.15446472167969,-137.76324462890625,0.5518150329589844,1.445138931274414,1.2355260848999023,-153.36277770996094,-49.04165649414063,-14.64840316772461,-2.4214882850646973,-1.8088743686676023,-7.670028686523437,-38.120079040527344,-82.5851821899414,-68.07958221435547,-5.062151908874512,-3.783305168151856,-1.3043098449707031,100.44497680664062,2.587193727493286,70.57186889648438,8.044103622436523,-6.284661293029785,-13.934478759765623,174.75283813476562,-72.34949493408203,124.38367462158205,-2.374594211578369,1.0721502304077148,3.388763427734375
405.5944564342499,-178.29139709472656,-69.06989288330078,-139.27919006347656,0.2796674370765686,1.9409306049346924,1.2676477432250977,-167.29750061035156,-49.11471557617188,-5.252687931060791,6.68643856048584,6.731152534484863,-5.169301986694336,-32.85039520263672,-82.91790008544922,-72.53755187988281,-5.366084098815918,-3.0337071418762207,1.028620719909668,112.9336929321289,-4.136723518371582,62.57614517211914,-3.5654139518737797,-1.8793737888336184,8.227977752685547,173.0958251953125,-72.89737701416016,127.513427734375,-0.6785150766372681,1.5589678287506104,1.6511907577514648
405.65462017059326,-177.5157012939453,-69.44654083251953,-140.91331481933594,0.0405313894152641,0.8999065160751343,0.685420036315918,-175.01190185546875,-52.50420379638672,0.3730556964874267,7.368975639343262,6.023843765258789,-0.9210586547851562,-37.47062683105469,-82.67317199707031,-68.91169738769531,-5.583477973937988,0.0936896800994873,2.3535594940185547,113.56509399414062,-13.526153564453123,51.57634353637695,4.553068161010742,1.5686185359954834,-3.926582336425781,169.50230407714844,-73.5444564819336,132.10235595703125,-1.0490453243255615,2.0251150131225586,-0.4158468246459961
405.68462109565735,-176.724609375,-69.9388198852539,-142.58163452148438,-0.3781892657279968,0.3721948862075805,0.1322784423828125,-179.2802734375,-58.0428466796875,2.769251823425293,14.149518966674805,7.235747337341309,2.24848747253418,-46.57500076293945,-80.64594268798828,-60.56210708618164,-3.758236885070801,1.3616623878479004,-0.6382246017456055,116.48533630371094,-26.10234260559082,39.00634002685547,10.11176300048828,5.438994407653809,-1.5406618118286133,164.5794677734375,-73.97198486328125,136.83595275878906,-1.2136969566345217,1.2849838733673096,-2.658714771270752
405.7147045135498,-176.31228637695312,-70.03289031982422,-143.4859619140625,-0.5926190614700317,-0.6807374954223633,-0.632472038269043,-174.7695770263672,-61.67457962036133,2.9684958457946777,-39.67811584472656,-3.515206813812256,34.68126678466797,-53.539981842041016,-77.06230163574219,-54.10554885864258,-1.766697645187378,3.214540958404541,-4.772549629211426,121.69033813476562,-41.212158203125,22.56920623779297,18.7089958190918,3.6129207611083984,15.839744567871094,158.29940795898438,-74.23616790771484,142.1226348876953,-0.4876225590705871,-0.1850099265575409,-4.331437110900879
405.7443163394928,-177.9105224609375,-69.27487182617188,-141.1754150390625,0.2099899649620056,-3.9207992553710938,-2.082335948944092,-175.60874938964844,-61.62890625,1.498130440711975,6.700887680053711,1.9727137088775637,1.5046586990356443,-56.5975227355957,-72.96244812011719,-48.71847152709961,-0.1676840782165527,9.052328109741213,-4.6244401931762695,127.29359436035156,-54.15316390991211,4.873732566833496,26.05552291870117,-3.144601821899414,20.613792419433597,150.69769287109375,-74.53819274902344,148.90745544433594,0.6357442140579224,-0.7433435916900635,-6.153645515441895
405.77432513237,179.7261199951172,-67.64381408691406,-136.80882263183594,0.9191588163375854,-3.5598011016845703,-2.001473426818848,-175.64024353027344,-60.48057556152344,0.1569738686084747,10.395570755004885,1.442565679550171,11.97773551940918,-44.181617736816406,-69.42704010009766,-51.19911193847656,8.910316467285156,6.174979209899902,-2.562479019165039,129.6858367919922,-51.76912689208984,1.4450712203979492,15.483362197875977,-4.022820472717285,-11.8487548828125,145.4076690673828,-73.407470703125,153.16571044921875,0.5367170572280884,2.0593957901000977,-6.229182243347168
405.805047750473,179.46131896972656,-65.41474151611328,-134.6942138671875,-0.6734219789505005,1.0616190433502195,-0.004220962524414,-173.73904418945312,-56.91162490844727,-1.5349136590957642,10.739007949829102,-4.158668518066406,14.80612564086914,-47.561317443847656,-64.77737426757812,-50.49552536010742,-2.35945987701416,2.369152545928955,2.563974380493164,128.61936950683594,-44.294769287109375,11.034957885742188,15.110956192016602,-10.28799057006836,2.9059314727783203,140.8971710205078,-71.8969955444336,155.48963928222656,-2.161695003509521,0.4309535026550293,0.936894416809082
405.8347079753876,178.72019958496094,-62.73789596557617,-134.7039794921875,-2.0400643348693848,0.7692025899887085,0.0725564956665039,-170.08872985839844,-53.081336975097656,-2.202577352523804,12.857797622680664,1.0855724811553955,12.174348831176758,-54.78948211669922,-58.0693473815918,-45.77872467041016,-15.469085693359377,13.503854751586914,19.828754425048828,116.97612762451172,-38.60555648803711,24.2766227722168,18.85045623779297,3.1233553886413574,2.0391054153442383,139.25595092773438,-71.4263916015625,156.282470703125,-2.239938259124756,-1.352184534072876,4.594059944152832
405.8648405075073,178.87930297851562,-60.14298629760742,-136.31088256835938,2.1339778900146484,-0.0715943276882171,0.4847145080566406,-168.1549530029297,-51.231632232666016,-4.210535526275635,5.967630386352539,2.2988109588623047,1.488689422607422,-57.82753753662109,-46.15889739990234,-39.12120056152344,-13.713520050048828,5.077019691467285,19.113643646240234,110.0802993774414,-30.74691390991211,38.33606719970703,19.697677612304688,14.713323593139648,6.436794281005859,142.30393981933594,-71.40676879882812,153.6204376220703,-0.6515370607376099,-0.3206384778022766,2.920385360717773
405.8948209285736,179.0596466064453,-58.24219131469727,-138.04087829589844,1.9766652584075928,-0.5501360893249512,0.9968233108520508,-167.59417724609375,-50.52914810180664,-5.428163528442383,-1.2181124687194824,7.891016006469727,5.268436431884766,-60.029911041259766,-30.408634185791016,-31.261478424072266,-2.8089771270751958,2.0754714012146,21.126487731933597,106.85631561279295,-23.15879821777344,50.17113494873047,9.033674240112305,16.562522888183594,4.188170433044434,149.42218017578125,-71.15399169921875,147.30079650878906,-0.3785383701324463,-1.198723554611206,6.641519546508789
