Timestamp,D4:22:CD:00:05:5D_EulerX,D4:22:CD:00:05:5D_EulerY,D4:22:CD:00:05:5D_EulerZ,D4:22:CD:00:05:5D_FreeAccX,D4:22:CD:00:05:5D_FreeAccY,D4:22:CD:00:05:5D_FreeAccZ,D4:22:CD:00:05:5E_EulerX,D4:22:CD:00:05:5E_EulerY,D4:22:CD:00:05:5E_EulerZ,D4:22:CD:00:05:5E_FreeAccX,D4:22:CD:00:05:5E_FreeAccY,D4:22:CD:00:05:5E_FreeAccZ,D4:22:CD:00:05:6B_EulerX,D4:22:CD:00:05:6B_EulerY,D4:22:CD:00:05:6B_EulerZ,D4:22:CD:00:05:6B_FreeAccX,D4:22:CD:00:05:6B_FreeAccY,D4:22:CD:00:05:6B_FreeAccZ,D4:22:CD:00:05:6E_EulerX,D4:22:CD:00:05:6E_EulerY,D4:22:CD:00:05:6E_EulerZ,D4:22:CD:00:05:6E_FreeAccX,D4:22:CD:00:05:6E_FreeAccY,D4:22:CD:00:05:6E_FreeAccZ,D4:22:CD:00:49:AA_EulerX,D4:22:CD:00:49:AA_EulerY,D4:22:CD:00:49:AA_EulerZ,D4:22:CD:00:49:AA_FreeAccX,D4:22:CD:00:49:AA_FreeAccY,D4:22:CD:00:49:AA_FreeAccZ
2407.6815972328186,171.92295837402344,-53.98895263671875,-22.65409469604492,-3.1527915000915527,-1.2479565143585205,0.6499757766723633,-123.82363891601562,-10.632640838623049,-125.28020477294922,-23.959117889404297,-18.399494171142575,-5.371563911437988,-56.89120864868164,-77.72987365722656,-22.83093643188477,-10.116239547729492,10.045177459716797,-1.2555580139160156,64.55778503417969,-19.982715606689453,42.68518829345703,13.159564971923828,22.600154876708984,-5.222834587097168,140.44126892089844,-71.66021728515625,139.16387939453125,-2.227973937988281,1.7735295295715332,-0.2438793182373047
2407.6846051216125,171.55580139160156,-50.41604995727539,-18.5545597076416,-1.414839744567871,2.1288695335388184,-0.1965150833129882,-120.73422241210938,-4.596034049987793,-120.97468566894533,-26.03127670288086,-16.071144104003906,-10.136180877685549,-39.11286926269531,-68.10966491699219,-40.96994400024414,-9.938756942749023,11.105226516723633,5.104849815368652,77.75047302246094,-18.50563621520996,47.04689407348633,2.8079428672790527,21.565814971923828,-1.966296672821045,133.4040069580078,-73.11084747314453,147.12696838378906,6.480690002441406,-0.2702782154083252,6.40399169921875
2407.6876051425934,172.0437469482422,-48.605716705322266,-16.12998390197754,0.1946533024311065,3.3314929008483887,3.1007814407348637,-118.41729736328124,-0.2310078293085098,-116.74407958984376,-20.164630889892575,-12.787460327148438,-1.346414566040039,-39.41399002075195,-55.99198913574219,-43.24687194824219,-8.000823974609375,17.00165557861328,7.403297424316406,82.2208023071289,-22.53977394104004,52.11385726928711,1.6586885452270508,15.284303665161133,5.157186508178711,131.03341674804688,-72.61544799804688,149.91246032714844,-1.5243573188781738,-1.7258872985839844,5.657317161560059
2407.7653608322144,-168.8345184326172,-77.34639739990234,-128.75411987304688,-0.9806385040283204,0.039701260626316,1.7462406158447266,16.77219581604004,-52.73464584350586,-115.34121704101562,-12.375022888183594,-20.10865020751953,13.28582763671875,-97.72266387939452,-59.743282318115234,-78.37408447265625,2.135360717773437,2.119749069213867,0.8582744598388672,-101.36591339111328,-65.0335464477539,-160.43728637695312,7.325629234313965,-6.457790374755859,16.23830795288086,113.23983764648438,-68.98141479492188,175.96214294433594,0.5968160629272461,-2.172995090484619,-1.958665370941162
2407.794901371002,175.83377075195312,-72.95650482177734,-110.83927154541016,1.3872888088226318,3.3098387718200684,-2.206239700317383,-122.54502868652344,-77.37594604492188,22.837892532348636,11.569524765014648,-0.0197531804442405,17.108379364013672,-90.22227478027344,-47.3127326965332,-92.23045349121094,4.386836051940918,-3.7433557510375977,8.201559066772461,-60.51331329345703,-52.92692184448242,-171.54837036132812,-14.39650535583496,18.336048126220703,3.789459228515625,106.14400482177734,-66.92985534667969,-178.74737548828125,-1.1819632053375244,3.2940616607666016,-4.661312103271484
2407.855608701706,171.57984924316406,-67.11617279052734,-105.95276641845705,3.4941978454589844,7.865839958190918,-6.35184383392334,-156.7008819580078,-66.92092895507812,62.13151168823242,12.720590591430664,-0.6156145334243774,18.901161193847656,-86.83409881591797,-34.3002815246582,-103.46219635009766,2.3840208053588867,-2.7206573486328125,9.1051025390625,-71.1568374633789,-50.8184814453125,-154.19427490234375,-13.150535583496094,1.0293748378753662,1.290696144104004,91.97720336914062,-68.3385009765625,-166.90708923339844,-7.293012619018555,-0.2858431339263916,0.0282001495361328
2407.885624408722,172.26129150390625,-61.11501693725586,-106.44889831542967,5.892260551452637,7.007177352905273,-4.269669532775879,-177.16940307617188,-60.00372314453125,86.91354370117188,1.4151039123535156,5.051218032836914,19.20830535888672,-84.7217788696289,-20.06306266784668,-109.5994873046875,12.874639511108398,-1.913404941558838,14.06912612915039,-82.19579315185547,-51.4456672668457,-139.9470977783203,-10.023693084716797,-6.272080421447754,11.044923782348633,84.354736328125,-71.46129608154297,-159.5027618408203,-2.577054500579834,-1.83637809753418,3.991511344909668
2407.9151504039764,175.095703125,-56.65798568725586,-109.275146484375,2.1122779846191406,3.2191696166992188,-0.4534311294555664,176.39395141601562,-54.76094818115234,94.0986099243164,-5.298691749572754,-1.9899609088897705,8.85749626159668,-75.24591064453125,-3.81490707397461,-112.77922058105467,16.205867767333984,-3.07208251953125,12.924238204956056,-78.12177276611328,-51.09105682373047,-133.30152893066406,-20.06161117553711,-11.26095962524414,6.305339813232422,84.30718231201172,-73.91841888427734,-158.93643188476562,0.0470660179853439,-4.125994682312012,7.407989501953125
2407.945151090622,177.6861572265625,-54.24669647216797,-110.08717346191406,3.3505258560180664,3.0701699256896973,-1.8722128868103027,175.40670776367188,-52.37286758422852,93.63204193115234,-9.88845443725586,-3.569053649902344,-3.1667017936706543,-60.430694580078125,15.327216148376465,-110.34000396728516,7.8600921630859375,-18.72173309326172,21.896900177001957,-74.9488754272461,-50.05434036254883,-128.17587280273438,-19.50951766967773,-18.17419815063477,-1.7750673294067385,91.9686279296875,-75.44842529296875,-166.38827514648438,1.43393874168396,-0.8783482313156128,1.063852310180664
2407.975262403488,-179.78245544433594,-53.90482711791992,-111.11170196533205,2.0319132804870605,3.344290256500244,-0.4463129043579101,178.1572723388672,-54.42058181762695,89.72061920166016,-7.192675590515137,-4.737252235412598,-9.753131866455078,-32.765716552734375,31.73381805419922,-102.1097412109375,-8.387388229370117,-19.61314392089844,10.233861923217772,-70.91561126708984,-50.346378326416016,-122.01721954345705,-16.07870101928711,-16.9647216796875,-2.623321533203125,102.44754028320312,-76.42574310302734,-176.45408630371094,-4.521468162536621,-1.052579641342163,6.47422981262207
2408.004773378372,-178.21653747558594,-56.02216339111328,-111.97735595703124,-1.5633575916290283,0.0964623838663101,6.353893280029297,-178.3489990234375,-59.139869689941406,83.28280639648438,-8.090784072875977,-3.4273853302001958,-12.816619873046877,-1.5996476411819458,42.3603744506836,-88.45140075683594,-13.80518913269043,-14.37198257446289,1.240741729736328,-66.58922576904297,-52.67694854736328,-114.29524993896484,-13.083490371704102,-20.62432098388672,-4.970386505126953,118.92414093017578,-78.14891815185547,169.1390838623047,-8.62358283996582,-0.8709324598312378,8.819799423217773
2408.034911632538,-178.39108276367188,-59.53189468383789,-110.86540985107422,-6.917413711547852,-1.9524827003479004,11.204050064086914,-169.16964721679688,-65.4378433227539,73.228271484375,-5.226127624511719,-3.596431255340576,-16.640625,27.76531791687012,47.41989517211914,-72.74434661865234,-17.361839294433594,-3.6967382431030273,-8.923654556274414,-66.75723266601562,-57.08652877807617,-104.97037506103516,-6.443412780761719,-17.631595611572266,-5.881978988647461,142.8233642578125,-79.82649230957031,149.24134826660156,-6.329248428344727,-1.2800836563110352,9.029592514038086
2408.06498336792,-179.52777099609375,-63.69798278808594,-107.87328338623048,-2.872220993041992,-1.27911376953125,8.030176162719727,-154.25498962402344,-71.3023910522461,58.09169387817383,-3.258432388305664,-2.589771270751953,-16.46961212158203,47.46683883666992,46.63904571533203,-61.342655181884766,-7.814608573913574,2.915201187133789,-6.022198677062988,-76.12506103515625,-63.13841247558594,-92.52670288085938,-0.3023140430450439,-10.902080535888672,-7.927525520324707,168.3394775390625,-80.44319915771484,129.10975646972656,-1.877415418624878,0.4408276677131653,6.080451965332031
2408.095708608628,176.94410705566406,-70.2343521118164,-104.91316223144533,0.2461320161819458,-9.214838027954102,3.6867599487304688,-132.50393676757812,-75.93937683105469,34.955413818359375,-1.0298645496368408,-1.843165159225464,-12.704090118408203,56.480735778808594,46.19718551635742,-57.96274185180664,-0.1958608627319336,6.177696228027344,-1.7183904647827148,-95.35139465332033,-69.0820541381836,-74.03755187988281,3.166985511779785,-6.839227676391602,-8.641094207763672,-170.55892944335938,-80.31866455078125,112.51383209228516,1.932131290435791,0.9317895174026488,-0.0937747955322265
2408.155209302902,169.6737823486328,-74.34341430664062,-103.344970703125,7.407932281494141,-1.3435945510864258,-6.777986526489258,-99.1807632446289,-78.22081756591797,-0.5105515718460083,2.125511646270752,-2.973536491394043,-9.925107955932615,60.00740051269531,50.44284057617188,-62.06607818603516,7.600475311279297,4.025460243225098,-0.8396444320678711,-124.76179504394533,-71.40861511230469,-47.77042007446289,1.4316778182983398,-4.952342033386231,-11.448274612426758,-158.6002655029297,-79.77137756347656,103.26300811767578,4.596165657043457,3.2661375999450684,-7.036050796508789
2408.18537402153,171.85304260253906,-75.48055267333984,-100.16842651367188,10.31600570678711,-6.761229515075684,-8.04085922241211,-65.50086212158203,-76.50049591064453,-37.78153610229492,3.758443355560303,-6.835533142089844,-5.60799503326416,51.72075271606445,58.14898681640625,-74.4898452758789,8.25979232788086,-3.426295757293701,-7.08211612701416,-155.42910766601562,-69.5312271118164,-24.01206970214844,4.323334693908691,-2.4186229705810547,-10.778594970703123,-154.96026611328125,-79.78739166259766,99.56395721435548,3.552772521972656,4.225569725036621,-11.862722396850586
2408.215054512024,-178.76649475097656,-78.6280746459961,-101.67237854003906,2.437929630279541,-4.732465744018555,-6.345450401306152,-49.10569763183594,-72.70791625976562,-60.73381805419922,4.7518415451049805,-16.428882598876953,-1.7128162384033203,23.98589324951172,64.92194366455078,-101.12388610839844,8.171815872192383,-0.5377802848815918,-14.339925765991213,-173.96792602539062,-66.24629211425781,-10.344120025634766,6.289431571960449,-0.3034583330154419,-11.956409454345703,-150.58868408203125,-81.2739486694336,94.64297485351562,1.0673785209655762,1.1660537719726562,-9.810688018798828
2408.245053291321,-170.4927215576172,-81.44388580322266,-109.3567123413086,-9.106983184814451,20.059127807617188,-5.074245452880859,-47.97160720825195,-70.22360229492188,-70.04690551757812,3.5942282676696777,-19.729961395263672,-2.1917953491210938,-21.238414764404297,61.507110595703125,-143.0377197265625,-5.463695526123047,-0.960127592086792,-28.10919952392578,-178.11849975585938,-63.908470153808594,-7.501714706420898,5.689626693725586,-4.596016883850098,-11.849599838256836,-145.04617309570312,-83.3813247680664,88.66693878173828,-0.0709334462881088,-0.7850682735443115,-8.985952377319336
2408.2750613689423,179.34402465820312,-79.8205795288086,-102.43514251708984,-8.467365264892578,-0.8108932971954346,-3.5426487922668457,-50.82575988769531,-70.17748260498047,-70.29059600830078,-13.508283615112305,-25.186920166015625,-11.227994918823242,-33.24397277832031,47.40187454223633,-172.885986328125,-32.20507049560547,6.107913970947266,-33.13262939453125,-175.6553497314453,-63.559608459472656,-11.61158561706543,6.207670211791992,-2.6268763542175293,-9.444952011108398,-136.58181762695312,-84.4053955078125,79.65589141845703,-0.1002154946327209,-0.6751470565795898,-4.85966682434082
2408.3055984973907,171.20999145507812,-77.79035186767578,-91.0292510986328,2.739745616912842,-2.371072292327881,2.479517936706543,-55.458229064941406,-72.87173461914062,-64.952392578125,12.979204177856444,0.7779381275177002,1.7158927917480469,-17.689455032348633,46.52741241455078,-176.54238891601562,11.90219497680664,-12.300909042358398,-23.63189697265625,-165.0826416015625,-63.62904739379883,-21.319997787475582,6.996098518371582,-3.0402169227600098,-4.318775177001953,-111.6368637084961,-85.65202331542969,53.997745513916016,-2.198659896850586,0.054928533732891,-2.4046630859375
2408.335598707199,167.21517944335938,-76.05469512939453,-83.01372528076172,3.1253395080566406,1.3386805057525637,2.5032472610473637,-51.13053512573242,-75.3847885131836,-65.75173950195312,11.16952133178711,-2.296576499938965,5.307504653930664,-10.97973346710205,54.22527313232422,-150.85205078125,-18.820770263671875,8.03770637512207,-14.256633758544922,-154.8827362060547,-61.434661865234375,-30.78287696838379,12.63273811340332,-13.180593490600586,0.3581781387329101,-99.87863159179688,-86.71598052978516,41.538909912109375,-4.710487365722656,0.7330895662307739,-3.2148256301879883
2408.3655989170074,160.8767852783203,-74.99077606201172,-77.63361358642578,-1.8705265522003172,-1.791050672531128,2.359553337097168,-59.19105529785156,-78.1293716430664,-60.25953674316406,0.4213449358940124,-3.2889113426208496,8.36484146118164,19.62555313110352,56.96543502807617,-114.8823471069336,-11.962366104125977,-7.540209770202637,-34.115936279296875,-160.41554260253906,-59.83405685424805,-35.55890274047852,4.426087379455566,-17.393959045410156,8.356441497802734,-161.84005737304688,-86.75152587890625,101.60708618164062,-0.8383545875549316,-4.690068244934082,6.594697952270508
2408.3951466083527,153.0208740234375,-73.08297729492188,-71.56938934326172,0.5582678318023682,-4.805713653564453,0.5773420333862305,-70.5988540649414,-80.27300262451172,-52.1333236694336,-1.6521220207214355,-2.1913652420043945,5.26154899597168,45.06612777709961,49.51512145996094,-86.94856262207031,-3.910862922668457,-8.663373947143555,-12.635000228881836,174.78854370117188,-60.037227630615234,-35.52529525756836,4.2537031173706055,3.3790712356567383,15.164831161499023,179.45948791503906,-85.9798583984375,117.52886962890624,2.9696059226989746,-6.917338371276856,4.919758796691895
2408.455146074295,147.92697143554688,-70.20877075195312,-67.8960952758789,-0.3530150055885315,-5.208582878112793,8.384416580200195,-60.91198348999024,-82.57974243164062,-60.64311218261719,-2.1872386932373047,-4.584096908569336,-0.9286623001098632,59.89014434814453,41.450157165527344,-72.24272155761719,-6.647341728210449,-3.2118515968322754,3.219297409057617,155.53453063964844,-60.83930969238281,-33.22694396972656,3.0738492012023926,6.198797225952148,2.059010505676269,170.98944091796875,-86.60269927978516,124.23278045654295,4.219514846801758,1.859118938446045,0.9177026748657228
2408.485488653183,142.9757080078125,-67.3003921508789,-66.36131286621094,0.3804842829704284,-7.996349334716797,10.663166046142578,-14.427586555480955,-81.94624328613281,-102.11872863769533,0.5289887189865112,-5.184464454650879,-0.4935674667358398,60.768165588378906,34.08009719848633,-62.13543319702149,8.598245620727539,6.630855560302734,33.18415069580078,148.13809204101562,-61.11879348754883,-34.60524368286133,-4.070521354675293,5.297052383422852,1.968912124633789,173.8684844970703,-86.36207580566406,120.72713470458984,4.614934921264648,0.0825607627630233,4.744614601135254
2408.515261888504,137.06263732910156,-65.39586639404297,-66.1021499633789,12.026479721069336,6.498750686645508,0.7385797500610352,5.129896640777588,-79.8072509765625,-117.24797058105467,-0.1793829500675201,-5.059165954589844,-0.9806642532348632,19.942535400390625,25.316503524780277,-55.08439254760742,30.22464370727539,39.12359619140625,15.0185546875,149.3564910888672,-61.82615661621094,-39.83853530883789,-3.875882625579834,1.1724765300750732,2.2600040435791016,-172.6253662109375,-85.42903137207031,105.84494018554688,7.47468090057373,-0.3838850855827331,0.4825515747070312
2408.545262336731,138.1782684326172,-61.86669158935547,-71.90400695800781,11.139751434326172,15.19293212890625,5.882611274719238,14.97990608215332,-77.4719467163086,-123.67755889892578,1.4325697422027588,-4.826047897338867,-1.022563934326172,-28.558847427368164,18.06874084472656,-55.1818962097168,-15.875062942504885,-2.9205713272094727,-23.52159881591797,155.41294860839844,-62.73615646362305,-45.689788818359375,-2.362881183624268,-2.0309572219848637,2.0814285278320312,-168.21051025390625,-85.48030853271484,98.94513702392578,3.765780925750733,5.243712425231934,0.7462654113769531
2408.575278282165,139.7301025390625,-57.297359466552734,-80.83355712890625,8.19925308227539,8.87625503540039,-0.6999530792236328,21.61058235168457,-74.91376495361328,-126.68468475341795,-0.5242040157318115,-3.2261276245117188,-1.6340856552124023,-50.56943893432617,6.333929061889648,-56.87250518798828,-3.905398845672608,-16.631168365478516,11.041244506835938,161.80357360839844,-63.57133865356445,-47.36959838867188,-1.4277620315551758,-2.890929698944092,-2.5086207389831543,-166.6600799560547,-85.84829711914062,98.2607192993164,-0.6575733423233032,-0.0781188905239105,5.099442481994629
2408.605781555176,143.21847534179688,-51.60273361206055,-90.49649047851562,5.186419486999512,6.789430618286133,-5.668096542358398,27.97536277770996,-72.98605346679688,-128.4013214111328,-0.2068550884723663,-3.3081297874450684,-1.8577446937561035,-51.22414016723633,-5.221057891845703,-58.37001037597656,-2.6994166374206543,2.7874655723571777,22.56196975708008,166.47833251953125,-65.01929473876953,-45.44951629638672,-1.692188024520874,-2.114012718200684,-5.305086135864258,-169.8323211669922,-86.74671173095703,101.0125732421875,1.6344153881072998,0.8008733987808228,-1.309617042541504
2408.635279417038,148.77749633789062,-45.22061538696289,-99.45850372314452,0.527353048324585,3.2825350761413574,-9.145671844482422,34.484493255615234,-72.83557891845703,-130.5745391845703,3.0072126388549805,-1.1866905689239502,-1.7668581008911133,-42.297943115234375,-14.698122024536133,-59.04981994628906,-4.236690521240234,3.902827739715576,-3.894574642181397,171.69969177246094,-67.33026885986328,-42.980953216552734,-0.5300596952438354,-1.769618272781372,-6.348904609680176,-171.8168487548828,-87.22132110595703,103.26956176757812,2.8449130058288574,3.2805328369140625,-5.387840270996094
2408.665551185608,155.34317016601562,-39.0014533996582,-106.749755859375,-0.287669837474823,1.263211011886597,-11.174554824829102,43.26884460449219,-74.18205261230469,-135.45755004882812,6.689225196838379,-1.60380220413208,0.9441194534301758,-38.71456527709961,-24.583282470703125,-58.08250045776367,-1.2622921466827393,1.1761887073516846,-5.675872802734375,178.05184936523438,-70.61483764648438,-40.41070938110352,0.4391904473304748,-1.8035569190979004,-6.276131629943848,-168.38453674316406,-86.59935760498047,101.66683197021484,0.6432617902755737,1.850916147232056,-4.601357460021973
2408.695511817932,161.5786895751953,-33.6087760925293,-112.322998046875,-3.082247734069824,2.3309240341186523,-9.367488861083984,54.908912658691406,-77.06375122070312,-144.3955841064453,0.1923979222774505,-5.159030914306641,-1.395219802856445,-37.64570236206055,-35.69939041137695,-58.20759582519531,2.391800880432129,-1.2203030586242676,-4.249643325805664,-175.89645385742188,-74.60039520263672,-36.38563537597656,1.0677354335784912,-2.01121187210083,-5.021254539489746,-166.52317810058594,-85.2533950805664,101.2666473388672,1.01072359085083,0.1828044354915619,-4.147231101989746
2408.754907846451,165.46788024902344,-29.75062370300293,-117.046630859375,-3.5192880630493164,1.588795185089111,-8.61685562133789,75.97306060791016,-81.89624786376953,-167.46383666992188,-1.267826795578003,-4.735996246337891,-1.9251246452331543,-35.290992736816406,-47.717803955078125,-62.3615608215332,4.67474365234375,-3.9699010848999023,0.2761030197143554,-172.504638671875,-79.16162872314453,-29.562742233276367,2.2055864334106445,-1.9002933502197263,-3.641424655914306,-164.53961181640625,-84.06224822998047,100.91588592529295,2.380425453186035,-0.3552848696708679,-4.654209136962891
2408.784921646118,167.30979919433594,-27.95857048034668,-121.54615783691406,-4.229909896850586,1.0542032718658447,-6.756259918212891,126.26799011230467,-83.53826141357422,139.5297088623047,-0.4375075101852417,-8.428035736083984,-7.065411567687988,-24.710073471069336,-59.5854721069336,-75.07875061035156,2.3116002082824707,-7.093846321105957,7.686557769775391,176.08993530273438,-85.004638671875,-6.532604217529297,3.244937896728516,-5.61639404296875,1.2388191223144531,-162.5489501953125,-84.03471374511719,100.98246002197266,3.283986568450928,-0.6358715295791626,-3.4067344665527344
2408.815244197845,166.52342224121094,-29.25106811523437,-125.2832260131836,-10.579261779785156,-5.710138320922852,-4.334145545959473,150.99404907226562,-81.26319885253906,113.65773010253906,6.925415992736816,-4.2699079513549805,-0.1157798767089843,3.0803885459899902,-65.80242156982422,-99.25630950927734,-3.0513358116149902,-5.178949356079102,12.303443908691406,75.58926391601562,-83.37686157226562,103.69014739990234,1.7641966342926023,-3.734544277191162,7.768022537231445,-160.68389892578125,-84.81012725830078,101.0304183959961,2.4849538803100586,1.6548659801483154,-0.8630828857421875
2408.845243692398,166.66265869140625,-29.442405700683597,-124.93047332763672,-12.821298599243164,10.819778442382812,32.69319152832031,154.97738647460938,-79.52481079101562,110.10233306884766,-3.6305575370788574,-5.474124908447266,2.148440361022949,20.77878761291504,-65.51129913330078,-106.04254913330078,-1.624178171157837,-2.5145740509033203,5.448956489562988,66.39239501953125,-71.93852996826172,120.75997161865234,4.626916885375977,-8.427181243896484,20.126453399658203,-158.3981475830078,-86.48564910888672,98.70682525634766,3.0734047889709477,5.032071113586426,-1.290116310119629
2408.875241279602,166.629638671875,-27.16888999938965,-118.8923110961914,-13.82622528076172,-15.966730117797852,-0.0845050811767578,154.2894744873047,-78.67778015136719,110.13553619384766,-0.5062456130981445,-5.21988582611084,2.0419397354125977,16.595827102661133,-64.26892852783203,-95.8862762451172,13.841283798217772,-12.188400268554688,6.484762191772461,66.463623046875,-58.580841064453125,127.2230224609375,12.196474075317385,-12.256946563720703,22.60015869140625,-155.0764617919922,-87.58224487304688,95.45295715332033,-0.3947135806083679,2.461261749267578,0.1666040420532226
2408.9057800769806,169.6373291015625,-23.04234313964844,-112.0698699951172,-12.380346298217772,-12.101829528808594,15.115819931030272,148.35696411132812,-79.16787719726562,116.26731872558594,-0.7331018447875977,-6.23070240020752,1.2239046096801758,-13.945294380187988,-60.13047790527344,-76.58953857421875,4.912446022033691,-19.084720611572266,7.68297004699707,66.05657196044922,-42.46582412719727,130.5367431640625,14.18561553955078,-6.191107749938965,15.225345611572266,-174.1656494140625,-86.30912780761719,114.26090240478516,1.5303113460540771,-4.551576614379883,7.845281600952148
2408.9353201389317,169.0276641845703,-16.895158767700195,-106.60623931884766,-10.507257461547852,-13.30211067199707,10.544172286987305,134.72430419921875,-80.8833999633789,129.76234436035156,0.0900068134069442,-5.970355033874512,1.4751062393188477,-41.75376510620117,-51.55191802978516,-62.06927490234375,2.2071542739868164,-14.056770324707031,10.80044937133789,64.44403839111328,-23.93485450744629,130.7519073486328,10.03867530822754,-3.942815780639648,14.78757667541504,-174.0377655029297,-85.88072967529297,114.25969696044922,1.23518967628479,1.2359912395477295,11.043252944946287
2408.96532034874,164.03997802734375,-11.51138687133789,-103.81427764892578,-4.251614570617676,-7.994483947753906,7.05122184753418,105.13908386230467,-82.586669921875,158.71336364746094,0.2457621097564697,-4.935943603515625,5.200209617614746,-49.13727569580078,-44.048126220703125,-58.983917236328125,1.6252691745758057,-7.813535690307617,9.207168579101562,57.13865280151367,-6.065776824951172,128.74514770507812,6.128395080566406,5.161373138427734,7.239894866943359,-175.20738220214844,-86.06980895996094,115.50690460205078,3.7026047706604,3.132218837738037,8.310009002685547
2408.99485206604,160.8090362548828,-7.682687282562256,-103.71924591064452,-0.0229018069803714,-3.38232421875,-0.6338911056518555,63.78816223144531,-81.2274398803711,-159.98658752441406,-0.4976122379302978,-1.6533045768737793,6.841840744018555,-44.94855499267578,-42.07456970214844,-62.40725326538086,1.1728203296661377,-4.498950958251953,1.9596452713012693,49.34914016723633,8.531318664550781,126.24079132080078,2.925029754638672,4.17238712310791,3.067793846130371,174.42205810546875,-86.14086151123047,125.26561737060548,4.145174980163574,3.944572925567627,7.772424697875977
2409.055367231369,159.14601135253906,-6.931371688842773,-105.49950408935548,-1.0142593383789062,1.0155324935913086,-3.965002059936523,37.510498046875,-76.93667602539062,-133.49049377441406,1.4823722839355469,-0.8143825531005859,2.913266181945801,-43.030704498291016,-45.46117782592773,-68.06727600097656,-0.7356510162353516,-2.9304347038269043,-2.5051074028015137,39.53061676025391,18.05942916870117,123.8454818725586,-7.739706039428711,-2.55332612991333,3.373750686645508,166.04795837402344,-85.9676513671875,132.57017517089844,3.2283716201782227,2.008752822875977,5.894197463989258
2409.0853884220123,157.08116149902344,-9.17237377166748,-107.4788055419922,-1.9838204383850095,2.423609733581543,-8.900800704956055,24.40583229064941,-72.11307525634766,-120.7777862548828,3.3754773139953613,-7.606939315795898,-7.746563911437988,-47.121952056884766,-52.09473419189453,-74.6807861328125,-2.7833127975463867,0.2870535850524902,1.4849615097045898,23.18746757507324,21.934982299804688,121.5832290649414,-1.2269842624664309,0.1311579346656799,-3.7948365211486816,158.3483428955078,-85.43125915527344,139.51600646972656,2.0182580947875977,1.351196050643921,1.5217866897583008
2409.1149187088013,154.41090393066406,-14.363954544067385,-108.5747528076172,-4.089365005493164,1.4616549015045166,-17.300472259521484,14.78856372833252,-69.64696502685547,-115.95037078857422,6.543997764587402,-7.754360198974609,-9.718191146850586,-47.214385986328125,-59.55311584472656,-84.6517562866211,-4.5158891677856445,4.478483200073242,1.2878351211547852,9.96259307861328,23.093713760375977,121.60011291503906,0.1625138223171234,-1.31974196434021,-6.4101972579956055,154.79562377929688,-83.98106384277344,142.4815216064453,1.6085472106933594,2.488851547241211,-2.8185276985168457
2409.1449184417725,152.61016845703125,-22.672420501708984,-108.5325164794922,-8.389631271362305,-1.5681569576263428,-25.132614135742188,9.785725593566896,-67.42716217041016,-112.4665069580078,-4.165421485900879,-1.241569757461548,-8.471723556518555,-38.26821899414063,-66.15643310546875,-100.49055480957033,-1.9810771942138672,4.270359039306641,-4.508586883544922,1.1895560026168823,23.10465812683105,125.08341217041016,-1.308673620223999,-0.7185622453689575,-7.568675994873047,156.21832275390625,-82.06222534179688,140.5359344482422,-1.0441765785217283,1.4441542625427246,-6.153738021850586
2409.1749184131622,149.73568725585938,-35.906982421875,-106.1854476928711,-11.331439971923828,-4.327786445617676,-19.80510711669922,14.031091690063477,-65.04634857177734,-112.600830078125,-7.190371513366699,-6.178103446960449,-10.036842346191406,-25.637378692626957,-70.38391876220703,-120.59822082519533,-1.5608224868774414,3.903356075286865,-7.971672058105469,-2.9449284076690674,23.259218215942383,131.54248046875,-4.456764221191406,0.172821819782257,-6.8934831619262695,156.89004516601562,-80.20491790771484,139.85667419433594,-2.6782889366149902,0.713716983795166,-9.480941772460938
2409.205468416214,141.9694061279297,-53.72267150878906,-98.48565673828124,-1.7793567180633545,-3.714447021484375,-0.8479652404785156,14.045754432678224,-65.53933715820312,-111.51970672607422,6.007467269897461,0.8893647193908691,-2.326455593109131,-10.965326309204102,-71.843505859375,-142.5779266357422,-1.5949852466583252,4.517738342285156,-6.835522651672363,-2.879199504852295,23.778121948242188,140.930908203125,-7.894499778747559,0.6507279872894287,-8.082845687866211,152.9925079345703,-78.65290832519531,143.4565887451172,-0.495976984500885,0.4932335615158081,-9.34762191772461
2409.2354712486267,122.05252838134766,-73.00292205810547,-74.95771026611328,9.353384017944336,-3.1473331451416016,24.785472869873047,11.439010620117188,-68.58934783935547,-112.22840118408205,0.6827149391174316,-0.281046986579895,1.3812856674194336,3.0153629779815674,-71.1081771850586,-162.895751953125,-1.4811768531799316,3.11407470703125,-8.071481704711914,-1.2503204345703125,24.43299102783203,154.13104248046875,-22.78763198852539,3.200882911682129,-11.231084823608398,149.0482940673828,-77.65415954589844,145.57424926757812,2.3051505088806152,-0.1874755024909973,-8.99955940246582
2409.265462398529,51.94400024414063,-78.09298706054688,5.126065254211426,23.15011978149414,9.509307861328123,20.20537567138672,7.156013488769531,-72.39749908447266,-110.6897430419922,2.7773938179016118,-2.546381950378418,1.4960060119628906,10.885591506958008,-69.38329315185547,-177.81143188476562,-1.7677910327911377,2.5086474418640137,-8.149967193603516,6.185905456542969,27.849796295166016,167.7060546875,-21.66452407836914,9.215812683105469,-15.094295501708984,146.37313842773438,-77.73200225830078,146.57839965820312,3.075355529785156,-0.0656532943248748,-9.594022750854492
2409.2956063747406,45.38086318969727,-75.67452239990234,11.742301940917969,-0.2434722185134887,9.935937881469728,-11.583770751953123,-1.0237716436386108,-75.52151489257812,-104.37117004394533,3.988833427429199,-5.997899055480957,5.221800804138184,15.280553817749023,-67.62639617919922,169.56723022460938,-2.9404845237731934,3.193004608154297,-3.963730335235596,31.915794372558597,33.136024475097656,172.30645751953125,11.392587661743164,2.546565055847168,-10.365297317504885,148.01918029785156,-78.22779846191406,144.92161560058594,2.292051315307617,-2.971057891845703,-5.409870147705078
2409.355601787567,62.44483947753906,-75.62751007080078,-7.872665882110596,12.726285934448242,5.308399200439453,-9.88612174987793,-9.414998054504396,-76.24549865722656,-96.85619354248048,-1.3857543468475342,-6.034786224365234,5.036628723144531,17.12949562072754,-66.37810516357422,157.27691650390625,-4.365677833557129,5.649282455444336,-0.6764755249023438,57.46282577514648,40.068302154541016,168.6507568359375,13.25286865234375,-5.492088317871094,-16.67424774169922,157.86489868164062,-76.47246551513672,135.27667236328125,9.123342514038086,-3.26194429397583,7.543540954589844
2409.385623455048,96.95428466796876,-72.56604766845703,-38.37591552734375,7.25046443939209,-0.5964583158493042,6.934307098388672,-14.03097915649414,-74.4094009399414,-92.1023178100586,-1.6257655620574951,-5.35826301574707,5.57823657989502,17.440532684326172,-66.67778015136719,145.82884216308594,-3.668680667877197,7.356296539306641,4.387990951538086,82.3259048461914,48.90533065795898,161.22727966308594,-8.331363677978516,-23.18544006347656,-0.9520587921142578,161.7877197265625,-75.64901733398438,127.9167709350586,4.775197982788086,1.2980999946594238,3.6233081817626953
2409.4151504039764,118.0100555419922,-69.25885009765625,-56.59188079833984,9.860000610351562,-3.49448299407959,-3.0547537803649902,-15.215373992919922,-70.41725158691406,-89.97882843017578,5.506465911865234,-1.2371714115142822,6.541616439819336,18.91845321655273,-68.33580017089844,138.25086975097656,2.440223693847656,8.615930557250977,7.037433624267578,82.41620635986328,57.83964920043945,142.16224670410156,-17.206100463867188,-3.528298854827881,-4.408928871154785,167.6772003173828,-75.87036895751953,120.5466766357422,2.0670180320739746,2.2650179862976074,3.526738166809082
2409.4451513290405,131.20164489746094,-69.34698486328125,-67.4136734008789,-5.07408618927002,4.501583099365234,1.506016731262207,-12.48684310913086,-67.23756408691406,-87.20161437988281,8.344905853271484,-1.928804397583008,-3.5284676551818848,31.9364013671875,-70.80918884277344,133.39500427246094,1.518425226211548,8.489212036132812,5.367717742919922,61.39728164672852,60.62395477294922,115.52346801757812,-9.739694595336914,-4.747099876403809,-3.2789759635925293,174.43820190429688,-75.8107681274414,115.46308135986328,3.217360019683838,2.9039745330810547,7.218242645263672
2409.475150346756,137.07888793945312,-71.85337829589844,-79.36683654785156,-0.0999375581741333,-3.8610119819641113,6.791664123535156,-11.790352821350098,-68.22677612304688,-80.68473815917969,0.1838747262954712,-27.36170196533203,-0.1636886596679687,56.22515106201172,-73.22977447509766,130.15151977539062,-2.42763614654541,4.72703742980957,7.150470733642578,36.477657318115234,54.81991195678711,90.13838958740234,-1.374194622039795,-9.783483505249023,-3.993697166442871,-179.9752960205078,-75.86856079101562,114.1679916381836,2.937452793121338,-2.459164619445801,1.0386428833007812
2409.505581855774,145.4198760986328,-74.48439025878906,-91.51006317138672,-8.372194290161133,-6.301024436950684,8.430702209472656,-24.18052291870117,-73.0932846069336,-62.81004333496094,7.118600845336914,-24.804664611816406,0.7859420776367188,77.67469787597656,-76.08755493164062,132.406005859375,-0.5945539474487305,-5.25074577331543,6.644449234008789,20.75386619567871,42.92538070678711,71.9621810913086,7.980731964111328,-12.612838745117188,-6.973445892333984,-173.07080078125,-74.41110229492188,111.82833099365234,-1.3483574390411377,-5.269412994384766,-0.4704542160034179
2409.535582304001,155.50962829589844,-74.10244750976562,-96.8651885986328,-4.497300148010254,0.8224599361419678,1.5543937683105469,-53.29762268066406,-77.2862319946289,-28.27620506286621,3.6462440490722656,-11.756111145019531,-0.7903022766113281,82.33776092529297,-81.06578826904297,142.10987854003906,5.056628227233887,-8.126693725585938,0.0693693161010742,20.954893112182617,28.90841484069824,58.141056060791016,14.011167526245115,-9.14765167236328,-13.665464401245115,-169.97080993652344,-72.40406799316406,112.52567291259766,-4.480063438415527,-3.258068561553955,-3.492274284362793
2409.5655822753906,165.7979736328125,-73.57238006591797,-103.6377944946289,-0.9220906496047974,1.9481680393218996,1.9274492263793943,-89.01667022705078,-76.39867401123047,13.109986305236816,3.78648042678833,-5.273480415344238,-6.9849958419799805,35.44308090209961,-86.40022277832031,-170.4449920654297,0.3169820308685303,-6.056300163269043,-2.494292736053467,37.48064804077149,17.329191207885742,47.71864318847656,12.08651351928711,-3.0412845611572266,-6.8853759765625,-173.74844360351562,-70.35890197753906,118.38794708251952,-5.369004249572754,0.1082142442464828,-2.465266227722168
2409.595123529434,173.8149871826172,-74.1244888305664,-112.29407501220705,2.5839853286743164,0.0597066804766655,0.876948356628418,-116.57235717773438,-71.75811004638672,42.71929931640625,3.274415969848633,-2.005568027496338,-13.81582260131836,-36.50749206542969,-83.77777099609375,-105.27884674072266,-7.142083168029785,-4.1057233810424805,-3.211143970489502,58.04750442504883,9.908238410949709,40.07382583618164,-5.491686820983887,4.228559494018555,0.395543098449707,-179.1918182373047,-68.7532958984375,123.46942901611328,0.0709407776594162,-1.9161479473114011,5.192088127136231
2409.6551280021667,-178.58575439453125,-75.93846130371094,-122.63165283203124,-0.6174088716506958,1.438190460205078,0.5621023178100586,-138.1798553466797,-65.46127319335938,62.03276824951172,0.4930107593536377,0.398375391960144,-16.22067642211914,-40.66525268554688,-80.20234680175781,-107.00829315185548,-9.43730354309082,-0.874305248260498,-3.278182983398437,68.88518524169922,3.356239557266236,33.43418502807617,-4.374171257019043,3.069859981536865,2.1454076766967773,177.23880004882812,-67.70143127441406,127.4958267211914,-3.123220920562744,5.766097068786621,3.931771278381348
2409.685139656067,-172.57568359375,-76.82353973388672,-130.67047119140625,-0.8298313617706299,1.50783371925354,0.9795589447021484,-154.0255126953125,-59.61790084838867,73.95539093017578,-3.468493938446045,0.41072678565979,-15.34716796875,-35.38056564331055,-77.65544128417969,-116.49275970458984,-7.032328605651856,0.5083293914794922,-0.0998601913452148,82.94038391113281,-3.2163665294647217,28.252763748168945,-1.6757986545562744,1.8901662826538088,0.1145162582397461,175.45526123046875,-67.73542022705078,129.93359375,-4.727620124816895,2.385380268096924,0.5426731109619141
2409.71567606926,-167.96893310546875,-77.37505340576172,-137.50904846191406,-0.5389667749404907,1.3511669635772705,0.2949476242065429,-165.52455139160156,-56.14781951904297,81.88151550292969,-2.4644479751586914,-1.2905359268188477,-12.62435531616211,-32.547706604003906,-75.06986236572266,-124.18379974365234,-5.481180191040039,-0.5615878105163574,1.229631423950195,91.53221130371094,-11.746541023254396,25.47869682312012,1.5760390758514404,-0.0512814670801162,0.0070934295654296,175.8516082763672,-68.126953125,130.1431121826172,-1.8975625038146973,1.750662088394165,-0.5977230072021484
2409.744672060013,-166.31198120117188,-77.7377700805664,-141.90737915039062,-0.1648045778274536,-1.8321921825408936,-1.066877365112305,-173.7077178955078,-55.64730453491211,88.84821319580078,-3.796975135803223,0.7280292510986328,-4.298434257507324,-38.19229507446289,-71.90740203857422,-125.58676147460938,-5.518758773803711,-0.0800070762634277,-0.4870662689208984,92.2674789428711,-26.288278579711918,26.23923110961914,9.443872451782228,5.695766448974609,-2.9637413024902344,175.62283325195312,-68.29984283447266,129.91387939453125,0.2118670344352722,3.271254539489746,-1.1661977767944336
2409.7746720314026,-167.74420166015625,-77.16091918945312,-142.31150817871094,1.870537519454956,-4.97133731842041,-1.589308738708496,-175.37911987304688,-60.48941421508789,94.40384674072266,-7.57392692565918,9.7076416015625,-2.825197696685791,-46.1635856628418,-68.04700469970703,-123.31851959228516,-2.29512882232666,3.114309787750244,-1.1232585906982422,87.65026092529297,-45.50341033935547,30.3662052154541,16.950183868408203,7.073896408081055,16.77704620361328,173.86959838867188,-69.07278442382812,129.70291137695312,-0.2876166701316833,2.869953155517578,-3.667723178863525
2409.8052146434784,-172.69757080078125,-75.2944107055664,-137.64869689941406,1.3575503826141355,-4.179473876953125,-1.389791488647461,-174.77247619628906,-69.34989166259766,99.7678680419922,0.0763037353754043,-16.85564422607422,12.030767440795898,-47.72102355957031,-63.68683624267578,-123.0383071899414,0.182980477809906,2.1039481163024902,-2.062429904937744,80.0778579711914,-59.99324035644531,35.714324951171875,7.114471435546875,8.770809173583984,25.40692138671875,170.6331329345703,-69.93305206298828,129.82337951660156,-0.9999819993972778,0.4886839389801025,-5.463969230651856
2409.835214138031,-179.28225708007812,-71.84397888183594,-130.3450927734375,1.0881850719451904,-4.686959266662598,-2.52852201461792,178.3026885986328,-72.11613464355469,102.5435562133789,-6.64089298248291,19.995479583740234,4.834815979003906,-45.17113876342773,-58.48434066772461,-125.5545883178711,-1.3454136848449707,0.8279078006744385,-4.94859790802002,81.61971282958984,-57.3408317565918,25.106494903564453,19.259109497070312,-5.139211654663086,-7.422861099243164,167.08360290527344,-70.75645446777344,129.83843994140625,-0.6430197954177856,-0.8746477365493774,-3.979402542114258
2409.865214586258,177.3931884765625,-67.09738159179688,-124.83441162109376,-0.8058549165725708,2.097175121307373,0.3482866287231445,172.90008544921875,-73.63233947753906,99.78050994873048,-8.977184295654297,9.408588409423828,16.63068389892578,-45.15026092529297,-51.47706604003906,-127.4590072631836,-2.012294292449951,3.877982616424561,-1.7379684448242188,90.15740966796876,-53.19747924804688,21.57097625732422,4.159167289733887,2.184244155883789,1.6277084350585938,162.8795623779297,-73.2849349975586,130.08837890625,1.2491319179534912,1.1727187633514404,-4.299435615539551
2409.894765853882,174.07972717285156,-62.16697692871094,-121.54444885253906,-1.3468210697174072,-0.6108545064926147,-0.4053688049316406,176.47119140625,-70.57780456542969,89.4674301147461,0.1049929708242416,7.763011932373047,12.523567199707031,-48.87250900268555,-41.59428787231445,-126.84183502197266,-0.8128092288970947,7.505218505859375,0.7516756057739258,85.8644027709961,-53.663551330566406,21.213525772094727,18.390525817871094,8.021102905273438,-3.151844024658203,155.4340362548828,-75.15055084228516,133.65280151367188,-0.4540560245513916,3.1512184143066406,-3.1096420288085938
2409.92475771904,173.5486297607422,-57.60139846801758,-120.03579711914062,-0.2846743464469909,2.7077341079711914,1.8499364852905276,-175.86782836914062,-65.4710693359375,80.35106658935547,15.085500717163086,6.0351104736328125,15.931400299072266,-52.19564437866211,-29.848163604736328,-123.8977508544922,3.324771881103516,17.130207061767578,7.54871940612793,87.76567840576172,-54.4680290222168,19.80838394165039,19.371524810791016,8.874353408813477,8.428627014160156,145.2769012451172,-75.51195526123047,141.31629943847656,-5.244790077209473,-0.924517035484314,2.854550361633301
