Timestamp,D4:22:CD:00:05:5D_EulerX,D4:22:CD:00:05:5D_EulerY,D4:22:CD:00:05:5D_EulerZ,D4:22:CD:00:05:5D_FreeAccX,D4:22:CD:00:05:5D_FreeAccY,D4:22:CD:00:05:5D_FreeAccZ,D4:22:CD:00:05:5E_EulerX,D4:22:CD:00:05:5E_EulerY,D4:22:CD:00:05:5E_EulerZ,D4:22:CD:00:05:5E_FreeAccX,D4:22:CD:00:05:5E_FreeAccY,D4:22:CD:00:05:5E_FreeAccZ,D4:22:CD:00:05:6B_EulerX,D4:22:CD:00:05:6B_EulerY,D4:22:CD:00:05:6B_EulerZ,D4:22:CD:00:05:6B_FreeAccX,D4:22:CD:00:05:6B_FreeAccY,D4:22:CD:00:05:6B_FreeAccZ,D4:22:CD:00:05:6E_EulerX,D4:22:CD:00:05:6E_EulerY,D4:22:CD:00:05:6E_EulerZ,D4:22:CD:00:05:6E_FreeAccX,D4:22:CD:00:05:6E_FreeAccY,D4:22:CD:00:05:6E_FreeAccZ,D4:22:CD:00:49:AA_EulerX,D4:22:CD:00:49:AA_EulerY,D4:22:CD:00:49:AA_EulerZ,D4:22:CD:00:49:AA_FreeAccX,D4:22:CD:00:49:AA_FreeAccY,D4:22:CD:00:49:AA_FreeAccZ
474.8273494243622,-158.60853576660156,-83.02118682861328,-144.71133422851562,0.4770432114601135,-1.7273273468017578,-0.1315774917602539,-53.09248733520508,-51.37393569946289,-172.63250732421875,-17.994304656982422,4.501132965087891,-15.953208923339844,-51.62308120727539,37.05377578735352,-54.08470916748047,3.1520538330078125,-2.928109645843506,6.503728866577148,53.55794906616211,-24.97929954528809,162.8974609375,6.644009590148926,-4.483059883117676,-17.094768524169922,135.357177734375,-71.90465545654297,156.65318298339844,-3.2936129570007324,-2.4706292152404785,1.1291465759277344
474.8483500480652,-176.85650634765625,-59.99324798583984,-111.87427520751952,-3.318014144897461,1.1093730926513672,1.387594223022461,-64.27252197265625,-57.39049530029297,-163.49659729003906,-10.68072509765625,-2.2872891426086426,0.1362419128417968,-74.3905258178711,-44.30452346801758,-71.7056655883789,0.3335102200508117,1.8886489868164065,19.17932891845703,19.002525329589844,-48.09885025024414,-140.67665100097656,-2.8547983169555664,-13.071117401123049,13.841590881347656,-71.86769104003906,-85.09903717041016,-10.486741065979004,2.913235664367676,-0.1335395872592926,10.008586883544922
474.89439058303833,171.67318725585938,-56.99480819702149,-102.20681762695312,1.894033670425415,-1.6014578342437744,-0.2069206237792968,-120.21736907958984,-76.20752716064453,-43.94705581665039,3.8896660804748535,0.9800858497619628,-0.6197099685668945,-44.88024139404297,-0.716917097568512,-63.52614974975586,7.10927677154541,-7.604609489440918,16.850215911865234,-145.98086547851562,-76.55106353759766,-72.60286712646484,-4.755393981933594,-5.169966697692871,5.274264335632324,158.7204132080078,-82.90829467773438,117.59107971191406,1.973686695098877,-1.0084054470062256,0.0098085403442382
474.9240884780884,173.52525329589844,-59.42079544067383,-101.75138854980467,2.3937087059021,-0.830412745475769,0.0603752136230468,-99.58631896972656,-74.9455795288086,-62.32758712768555,-3.603006839752197,7.370505332946777,1.2289953231811523,-27.447710037231445,8.442995071411133,-57.72597885131836,4.585356712341309,-9.075815200805664,5.968575477600098,178.04595947265625,-82.45646667480469,-28.071199417114254,-5.343508720397949,-4.356659889221191,1.1921453475952148,159.6116943359375,-81.33477020263672,117.2751007080078,-1.1354899406433103,0.1298929750919342,0.1989765167236328
474.95516777038574,175.71290588378906,-62.22499084472656,-102.35826873779295,-0.0840144902467727,-0.1941207647323608,0.4427995681762695,-76.53581237792969,-61.76285934448242,-81.77019500732422,-3.960916996002197,1.474708080291748,-0.9138069152832032,-11.214598655700684,14.202126502990724,-52.07657241821289,0.1646218299865722,-7.072535514831543,0.3275632858276367,146.75038146972656,-81.74298095703125,10.380231857299805,-5.429594993591309,-3.843088150024414,-1.655315399169922,165.9084930419922,-81.43429565429688,111.79875183105467,-2.424832344055176,0.5072740316390991,-0.799494743347168
475.0141553878784,177.2183837890625,-65.2809829711914,-102.67562866210938,0.1306511461734771,-0.3948094844818115,0.2061576843261718,-65.59044647216797,-52.27669525146485,-91.4398422241211,-3.760735511779785,-3.949756145477295,-5.495726585388184,1.9748437404632568,18.331722259521484,-48.30548858642578,-5.402261734008789,-5.289414405822754,-4.197531700134277,138.1949005126953,-82.01404571533203,26.199752807617188,-3.942655086517334,-3.7553110122680655,-3.379395008087158,177.18679809570312,-81.56373596191406,101.79090118408205,-1.0953707695007324,1.3440470695495603,-2.3254594802856445
475.0442292690277,177.62948608398438,-68.2823257446289,-102.58602905273438,-0.1628437042236328,-0.7978967428207397,-0.0581293106079101,-58.86035919189453,-46.408790588378906,-100.79955291748048,-5.706414222717285,-6.831960678100586,-7.537055015563965,8.95144271850586,22.27065086364746,-46.77378463745117,-7.650496482849121,-2.320009708404541,-8.262468338012695,134.2404327392578,-84.75745391845703,40.416770935058594,-3.181238174438477,-4.704262733459473,-3.0251288414001465,-172.7012176513672,-81.31388854980469,93.64013671875,-0.5063571929931641,1.2358512878417969,-4.128391265869141
475.07454228401184,177.13824462890625,-71.02948760986328,-102.14351654052734,-0.3037675023078918,-1.1353633403778076,-0.3318433761596679,-57.1851806640625,-43.34525680541992,-108.95924377441406,-8.963380813598633,-7.274471282958984,-8.211627960205078,9.028321266174316,27.13568687438965,-48.49052429199219,-4.91981315612793,-0.9733513593673706,-9.49820327758789,92.88072967529295,-87.92491149902344,93.82424926757812,-2.333180427551269,-5.351845741271973,-3.3804078102111816,-166.95701599121094,-81.06897735595703,89.83682250976562,-0.0903044790029525,0.2331243455410003,-4.281632423400879
475.10457015037537,175.71585083007812,-73.1761474609375,-101.07929229736328,-0.1859424412250518,-2.110839366912842,-1.1139411926269531,-60.02831268310547,-42.14598846435547,-115.02597045898438,-14.118724822998049,-11.074663162231444,-8.839536666870117,5.305328369140625,33.463253021240234,-54.50320816040039,-1.0780069828033447,-3.142477512359619,-10.559782028198242,22.816200256347656,-85.8822021484375,177.1133575439453,-1.9737086296081543,-4.783550262451172,-4.396514892578125,-166.54795837402344,-81.12276458740234,90.63055419921876,-0.0028173807077109,-0.4186395406723022,-3.704296112060547
475.13407492637634,172.98187255859375,-74.22665405273438,-98.6876983642578,-0.3436527252197265,-2.892953872680664,-1.1519880294799805,-66.22511291503906,-43.53907775878906,-118.03034210205078,-22.25030899047852,-9.279909133911133,-17.51815414428711,-1.3030155897140503,40.40401458740234,-67.50340270996094,0.2363380193710327,-2.2265281677246094,-11.68792724609375,18.737585067749023,-82.73048400878906,-164.51123046875,-1.191737174987793,-5.451589584350586,-4.923629760742188,-168.59628295898438,-81.51763153076172,92.80170440673828,-0.5721503496170044,-1.4254043102264404,-3.5738682746887207
475.1643035411835,169.2860565185547,-74.0112075805664,-94.7556381225586,0.4986754655838012,-2.229029655456543,-0.5096635818481445,-82.14295196533203,-47.32631301879883,-112.75582122802734,-21.73944854736328,-5.499857902526856,-15.396060943603516,-15.650747299194336,43.96644592285156,-89.95613861083984,-1.7518694400787354,-5.839062690734863,-22.59967803955078,21.896316528320312,-80.7020492553711,-154.12783813476562,1.3736417293548584,-6.73289966583252,-5.140658378601074,-169.31146240234375,-81.981201171875,92.85614776611328,-0.5799132585525513,-2.024350166320801,-1.4686250686645508
475.1945598125458,164.79954528808594,-72.83186340332031,-90.15846252441406,0.4713354110717773,-1.351808786392212,-0.7688236236572266,-96.99475860595705,-52.13185119628906,-101.33294677734376,-3.61872673034668,-15.607748031616213,-12.969644546508787,-34.52765655517578,39.820919036865234,-113.32716369628906,-14.70347023010254,-15.917037963867188,-27.879898071289062,21.59221839904785,-80.02401733398438,-144.57394409179688,5.028319358825684,-7.350216865539551,-4.414958953857422,-167.7948760986328,-82.28729248046875,90.1949234008789,-1.1399776935577393,-1.1164095401763916,0.2553367614746094
475.22426652908325,159.75607299804688,-71.59275817871094,-85.17381286621094,1.02292799949646,0.3344522714614868,0.854334831237793,-101.71205139160156,-58.2234992980957,-92.17276000976562,2.600776672363281,-15.460058212280272,-7.154632568359375,-51.540287017822266,38.36076736450195,-118.23098754882812,-6.289554595947266,16.145092010498047,-4.958062171936035,14.076923370361328,-80.69207763671875,-134.60182189941406,5.067378044128418,-6.67594051361084,-1.79827880859375,-163.8324737548828,-82.60442352294922,85.9306640625,-4.432489395141602,-2.4501256942749023,4.233451843261719
475.2543647289276,153.07847595214844,-71.31344604492188,-78.47676086425781,-0.2483593225479126,1.733445167541504,2.20083236694336,-113.86531829833984,-61.65087890625,-79.93299102783203,6.5455322265625,-3.99921178817749,12.51222801208496,-46.44850540161133,40.82526016235352,-107.89434814453124,-17.46532440185547,-1.7035551071166992,6.79353141784668,1.6644401550292969,-82.92366027832031,-124.70734405517578,4.843911170959473,-5.913202285766602,3.017017364501953,-159.64804077148438,-82.81832122802734,81.52923583984375,-2.32827377319336,0.0158287398517131,2.571297645568848
475.3141388893128,144.73529052734375,-71.8021469116211,-69.44578552246094,0.5821481943130493,0.5940663814544678,1.9097270965576167,-133.0236358642578,-63.539024353027344,-65.11638641357422,-1.8239099979400637,0.1695633828639984,1.2409029006958008,-26.12161445617676,39.00982666015625,-87.30770111083984,-5.643263816833496,-6.450916290283203,-25.080158233642575,-4.075915336608887,-86.64830017089844,-124.2438735961914,6.040048599243164,-2.734475612640381,6.148012161254883,-152.61769104003906,-82.74072265625,73.17420196533203,4.452473640441895,-0.5874553918838501,0.9015874862670898
475.344740152359,134.60133361816406,-72.6545639038086,-59.365478515625,2.4536499977111816,-0.2190947532653808,3.556793212890625,-143.45596313476562,-65.40513610839844,-54.525508880615234,-0.5305315256118774,-4.215590476989746,1.8596162796020508,-15.766887664794922,31.41063690185547,-68.49665832519531,-6.472454071044922,-2.0798487663269043,-11.256830215454102,106.41156768798828,-87.12308502197266,119.16280364990234,3.5596022605896,-0.651404857635498,4.071137428283691,-146.1060791015625,-82.28321838378906,65.94774627685547,6.49298095703125,-0.3671045899391174,2.0968379974365234
475.3747408390045,118.05755615234376,-74.89144134521484,-46.64750671386719,6.55586051940918,-0.6025739908218384,0.2781696319580078,-152.07827758789062,-66.09577178955078,-46.89644241333008,-0.2142987847328186,-3.4754209518432617,0.1948175430297851,-9.0673189163208,20.75257110595703,-54.2227897644043,-6.700527191162109,2.535221099853516,-7.272648811340332,118.56105041503906,-82.1459732055664,100.48855590820312,0.1182726025581359,1.0102603435516355,-0.2532358169555664,-141.3233184814453,-82.27721405029297,60.705711364746094,3.8799147605896,1.101775884628296,0.8603734970092773
475.40398240089417,108.95030212402344,-75.98841857910156,-46.75263214111328,10.40176010131836,13.10948371887207,0.2418365478515625,-156.63658142089844,-66.6314468383789,-43.54507064819336,0.4716657400131225,-1.663156509399414,1.523733139038086,-8.344720840454102,8.944084167480469,-40.81878662109375,-0.6849253177642822,6.947781562805176,-8.96943473815918,112.64130401611328,-79.76077270507812,97.64007568359376,0.2232767045497894,10.343992233276367,-1.9639697074890137,-138.14279174804688,-82.54509735107422,56.67399215698242,4.823512077331543,0.6150510311126709,-0.7822895050048828
475.4341731071472,125.01571655273438,-72.00209045410156,-70.21794128417969,21.733875274658203,12.53675651550293,2.368135452270508,-156.677734375,-69.8912582397461,-41.36263656616211,0.9576085805892944,-2.1274094581604004,0.8265762329101562,-17.726905822753906,-1.6973774433135986,-25.539663314819336,1.3464243412017822,4.863551139831543,-8.178010940551758,106.99127960205078,-78.4837875366211,102.1301498413086,-1.4950401782989502,2.865252494812012,-0.3919506072998047,-132.33950805664062,-83.25860595703125,50.88196563720703,6.4705095291137695,2.399765968322754,-0.8191051483154297
475.46425461769104,144.71937561035156,-61.91719436645508,-90.58631896972656,10.711252212524414,7.933944702148437,4.622786521911621,-155.89051818847656,-73.01493835449219,-39.262542724609375,-1.2685749530792236,-2.4276490211486816,-0.4840841293334961,-36.28565979003906,-9.495293617248535,-10.266616821289062,0.7728815078735352,5.781742095947266,-12.705310821533203,105.0523452758789,-76.83767700195312,108.87017822265624,-3.778249263763428,-0.399570882320404,0.9299764633178712,-127.84903717041016,-83.64170837402344,46.0461311340332,4.9629411697387695,2.1160101890563965,0.2000455856323242
475.49435019493103,155.1371307373047,-49.8878059387207,-102.90790557861328,5.062592506408691,-0.1028043925762176,1.2510442733764648,-157.72042846679688,-74.6298828125,-36.600730895996094,-0.5087001323699951,-2.6469316482543945,-0.6946506500244141,-59.9919548034668,-14.360382080078123,1.657043695449829,0.6713423728942871,-5.2502641677856445,-1.7618322372436523,104.40656280517578,-75.05411529541016,116.09953308105467,-4.500550270080566,-1.516301155090332,0.0390348434448242,-124.4501724243164,-83.56678771972656,42.38433456420898,2.141254425048828,0.6796903610229492,-1.5020294189453125
475.5240850448608,160.8900604248047,-38.26701736450195,-110.7794189453125,-0.4256824254989624,-2.6881914138793945,-3.10753870010376,-160.0911102294922,-74.80799102783203,-34.13676834106445,0.8708571195602417,-3.1251139640808105,-2.3989038467407227,-76.05333709716797,-18.61754035949707,9.312621116638184,-0.9996351003646852,-1.396965265274048,5.09937858581543,104.04778289794922,-73.35021209716797,121.69569396972656,-4.2330427169799805,-2.2229933738708496,-0.5138874053955078,-121.05723571777344,-83.45881652832031,39.41661834716797,1.153728485107422,0.6767673492431641,-2.890685558319092
475.5540878772736,164.5446014404297,-28.692562103271484,-116.65506744384766,-4.786718368530273,-1.465514898300171,-7.737025260925293,-161.5216522216797,-72.72431945800781,-32.91896057128906,0.7546244859695435,-6.049034118652344,-2.7320141792297363,-84.67688751220703,-24.086618423461918,13.869385719299316,-0.2322939932346344,1.0195388793945312,5.493523597717285,104.54773712158205,-71.98084259033203,125.05135345458984,-1.727384328842163,-2.452749252319336,-1.3366165161132812,-116.69442749023438,-83.20890045166016,35.71464157104492,1.3242008686065674,-0.2838850021362304,-3.469271183013916
475.613972902298,166.9369659423828,-22.150638580322266,-120.8863754272461,-5.519635200500488,-1.2132692337036133,-9.52098274230957,-162.70254516601562,-69.12403869628906,-32.48230743408203,-1.012458086013794,-4.021017074584961,-2.371670246124268,-86.91658020019531,-33.41618347167969,16.381175994873047,3.708803176879883,-0.5078587532043457,4.214315414428711,104.2575912475586,-71.41281127929688,127.3534164428711,0.6683579683303833,-2.13547420501709,-0.4377479553222656,-113.59844970703124,-83.03815460205078,33.84326171875,-0.1642904579639434,0.0376955717802047,-6.329777717590332
475.6441783905029,169.43524169921875,-19.386066436767575,-124.13429260253906,-8.400352478027344,-3.0289201736450195,-9.692184448242188,-162.76419067382812,-66.12500762939453,-32.56145477294922,0.5859189033508301,-3.521713733673096,0.6645574569702148,-86.8488540649414,-49.82925796508789,18.18194007873535,14.603948593139648,4.685131072998047,17.830188751220703,101.51976776123048,-71.67318725585938,130.158935546875,1.337972640991211,-1.7229790687561035,-1.1965408325195312,-112.87126159667967,-82.44233703613281,35.24382019042969,-1.5698566436767578,0.8183300495147705,-5.75475025177002
475.6756677627564,168.46214294433594,-21.77869987487793,-125.9113311767578,-16.013992309570312,-7.324734687805176,-17.338420867919922,-161.927001953125,-65.47184753417969,-31.822978973388672,0.092964768409729,-2.0632333755493164,0.8655633926391602,-75.05304718017578,-67.83207702636719,15.12193489074707,0.5825901031494141,9.052240371704102,42.01543426513672,98.66765594482422,-71.39873504638672,133.10848999023438,1.368591547012329,-1.893077373504639,-3.727169990539551,-109.88968658447266,-81.56478881835938,34.23942565917969,2.0633883476257324,1.4153740406036377,0.4223756790161133
475.7046682834625,169.9301300048828,-22.3916072845459,-124.47692108154295,-15.52997589111328,-6.733942031860352,6.907985687255859,-162.8167266845703,-65.3621597290039,-29.69131088256836,-1.243131160736084,-1.9683961868286133,1.0911741256713867,-60.49776458740234,-66.79049682617188,16.176183700561523,20.125293731689453,16.791187286376953,-8.371356964111328,96.84955596923828,-68.61418151855469,134.33413696289062,4.164792060852051,-1.9686369895935056,-1.0105772018432615,-109.79500579833984,-80.96318817138672,35.513084411621094,4.455278396606445,3.785358905792236,1.7786636352539062
475.7341983318329,179.543701171875,-24.193592071533203,-120.97817993164062,-16.498096466064453,-12.827018737792969,5.22783088684082,-163.3853302001953,-65.90000915527344,-28.05107879638672,-0.9550161361694336,-2.6428236961364746,0.4215850830078125,-74.19487762451172,-52.90169525146485,27.447471618652344,15.387639999389648,11.325067520141602,13.333086013793944,96.99604034423828,-63.21241760253906,134.7507781982422,2.422478199005127,3.601897716522217,5.250781059265137,-118.78487396240234,-80.20274353027344,44.19145584106445,1.855583429336548,2.2763562202453613,4.548079490661621
475.7644131183624,-174.89590454101562,-24.96993827819824,-116.88082122802734,-16.07788848876953,-15.182674407958984,4.673754692077637,-163.5537567138672,-66.85455322265625,-27.53848648071289,-1.6630690097808838,-4.330373764038086,-0.2278261184692382,-77.19420623779297,-42.92561721801758,28.809423446655277,16.88622283935547,4.954434394836426,5.490429878234863,98.36499786376952,-58.30656051635742,135.6103057861328,9.59815788269043,2.0890703201293945,15.192285537719728,-129.32049560546875,-78.43283081054688,55.14567184448242,1.6397030353546145,0.1710928976535797,8.595632553100586
475.7944896221161,-175.79742431640625,-23.30509757995605,-114.89060974121094,-9.530328750610352,-19.953022003173828,7.368314743041992,-163.79718017578125,-67.97779846191406,-28.83718490600586,-1.490967035293579,-3.4182257652282715,-0.4422607421875,-77.39383697509766,-36.2838249206543,26.779634475708008,13.41293716430664,-0.0585513114929199,0.6544923782348633,98.45221710205078,-53.00400161743164,136.2776336669922,12.977630615234377,-6.859316825866699,20.283222198486328,-136.11219787597656,-77.6939697265625,62.020992279052734,2.829428195953369,0.1979993879795074,6.518896102905273
475.8251760005951,179.93882751464844,-21.210071563720703,-115.49073791503906,-9.005779266357422,-14.665250778198242,3.987078666687012,-164.4246063232422,-68.51801300048828,-31.001365661621094,-0.3288811445236206,-2.2699146270751958,0.2274751663208007,-77.7238998413086,-32.00346374511719,23.592979431152344,10.532966613769531,-2.738809585571289,-1.0143442153930664,95.12065887451172,-42.796146392822266,135.2736053466797,9.471961975097656,-2.0986242294311523,21.98501968383789,-143.751953125,-78.1216049194336,68.33732604980469,2.403037071228028,4.01607608795166,1.5928688049316406
475.85469365119934,175.5373077392578,-21.081438064575195,-117.16285705566406,-6.218439102172852,-6.108282089233398,-2.2492032051086426,-165.36431884765625,-69.23062133789062,-32.837738037109375,0.3533245921134949,-1.9230294227600095,1.139482498168945,-80.33789825439453,-29.94702911376953,19.34667205810547,5.617444038391113,-4.735780715942383,-1.0310182571411133,95.08582305908205,-27.345733642578125,133.98129272460938,5.22247314453125,0.6584408283233643,13.187986373901367,-151.4315948486328,-78.69446563720703,74.02974700927734,2.8261375427246094,4.135766983032227,1.0410537719726562
475.9142701625824,172.32382202148438,-22.27361297607422,-118.86034393310548,-10.681764602661133,-5.80219841003418,-7.207711219787598,-165.75820922851562,-71.39511108398438,-34.04202651977539,0.2200667560100555,-2.328338146209717,0.6980352401733398,-83.12947845458984,-31.232519149780277,13.763693809509276,0.983646035194397,-5.359511375427246,-1.900568962097168,94.48779296875,-9.449701309204102,133.42132568359375,0.7478865385055542,6.758271217346191,8.685400009155273,-159.71530151367188,-78.95475769042969,80.20951843261719,2.993692398071289,2.836589813232422,0.847508430480957
475.9442882537842,168.83497619628906,-26.69655990600586,-119.77542877197266,-7.698480606079102,-0.7720235586166382,-5.404053688049316,-165.5056610107422,-74.4156494140625,-34.93321990966797,0.7535609006881714,-2.5645437240600586,-0.0887699127197265,-86.86502075195312,-36.15494918823242,7.617010593414307,-2.547016143798828,-3.502096176147461,-1.6474075317382812,93.5517807006836,9.579891204833984,133.5317840576172,-5.19683837890625,5.845647811889648,0.1076974868774414,-166.72837829589844,-78.8293228149414,85.34297180175781,1.396620750427246,1.511270523071289,-1.7846803665161133
475.9743118286133,166.24806213378906,-34.012939453125,-120.17361450195312,-6.24373722076416,-0.4945217370986938,-7.064613342285156,-164.53680419921875,-77.04472351074219,-36.26673126220703,0.6614232063293457,-4.477605819702148,-2.101673126220703,-89.7251205444336,-44.03439331054688,0.8717352151870728,-4.507701873779297,-0.2706480026245117,-0.7133340835571289,88.73226928710938,27.69970321655273,131.96478271484375,-9.60500717163086,1.0095586776733398,-3.0345520973205566,-170.1670684814453,-78.49314880371094,87.78608703613281,0.2298394739627838,0.6392277479171753,-3.7683420181274414
476.0045878887177,163.0866241455078,-44.03257751464844,-119.51212310791016,-6.257827758789063,-0.0081302840262651,-5.549615859985352,-160.6781005859375,-78.35566711425781,-39.94696807861328,0.4632331728935241,-4.565546989440918,-4.169657707214356,-87.70907592773438,-53.99450302124024,-7.140515327453613,-3.630252361297608,1.277907133102417,-2.436962127685547,75.46076202392578,43.362449645996094,125.80963897705078,-11.942131042480469,-6.118471145629883,-8.975553512573242,-171.7657012939453,-78.17911529541016,89.3237533569336,0.730405330657959,-0.3195767402648926,-4.884174346923828
476.0341889858246,157.30821228027344,-56.38267135620117,-115.82731628417967,-4.628922462463379,-1.077812910079956,-2.237555503845215,-154.8175048828125,-77.50311279296875,-45.05649948120117,1.4196908473968506,-4.149637222290039,-3.938937187194824,-80.48440551757812,-64.7964859008789,-18.516502380371094,-1.4616153240203855,1.083584547042847,-3.0047378540039062,53.78443145751953,54.53575134277344,112.0907974243164,-3.915813446044922,-9.761064529418944,-11.737005233764648,-172.7328338623047,-78.05799865722656,90.49848175048828,2.244053840637207,-1.2322916984558103,-4.4029951095581055
476.0641882419586,146.8905487060547,-69.53260803222656,-104.50383758544922,1.2171924114227295,-3.47700309753418,2.994487762451172,-151.35272216796875,-74.27607727050781,-47.93083572387695,1.6373169422149658,-3.0668869018554688,0.3269224166870117,-64.30014038085938,-74.78789520263672,-40.36127471923828,-0.8710049390792847,0.2621592283248901,-2.925532341003418,33.54432678222656,61.29471969604492,92.03641510009766,4.155124664306641,-1.4221034049987793,-5.53465747833252,-174.0087890625,-78.66407012939453,92.0949935913086,2.5659284591674805,-1.5588111877441406,-2.3575758934021
476.0943260192871,118.3511734008789,-79.0264663696289,-68.86231994628906,11.023431777954102,7.469277381896973,6.941652297973633,-149.1886749267578,-70.15714263916016,-49.18276596069336,-0.8028906583786011,-1.985057353973389,0.4526281356811523,-22.704450607299805,-80.48992156982422,-91.41421508789062,-2.562584400177002,-0.4005610942840576,-3.0694146156311035,13.716497421264648,65.62130737304688,69.854736328125,-2.219523906707764,1.5399141311645508,-2.5419507026672363,-174.10882568359375,-80.00385284423828,93.56143188476562,1.0960450172424316,-2.2395358085632324,-1.2798070907592771
476.1258578300476,83.17401885986328,-78.42371368408203,-22.529014587402344,12.63018798828125,15.90945053100586,0.1435174942016601,-145.586669921875,-67.31136322021484,-52.03487396240234,-2.6623120307922363,-2.415861129760742,1.6029138565063477,21.68153381347656,-77.17112731933594,-148.31690979003906,-4.667117118835449,1.3065755367279053,-1.977609157562256,-1.409597873687744,70.51353454589844,57.63243865966797,11.99844741821289,-2.1872034072875977,2.308555603027344,-173.89907836914062,-81.50450897216797,95.6283950805664,3.415128707885742,-0.2719191908836365,-4.645186424255371
476.1542468070984,82.27925872802734,-75.29083251953125,-14.57711410522461,13.435688018798828,17.167247772216797,-10.764413833618164,-139.66757202148438,-66.1567611694336,-57.96273422241211,-1.8076400756835935,-3.162229537963867,2.93560791015625,35.43003845214844,-70.0161361694336,-176.04226684570312,-7.095024108886719,2.6713929176330566,-1.8696160316467283,13.278505325317385,79.92721557617188,70.65055084228516,8.084272384643555,3.825654983520508,-4.904247283935547,178.19720458984375,-82.07299041748047,104.6594696044922,8.197710037231445,4.093419075012207,-0.4130105972290039
476.21440148353577,99.9839096069336,-73.93404388427734,-28.351638793945312,13.732234954833984,3.2411131858825684,-1.0712413787841797,-131.62940979003906,-66.0432357788086,-67.064208984375,-1.2792208194732666,-3.3131203651428223,3.236845016479492,39.89421844482422,-63.82706069946289,165.62547302246094,-6.792374610900879,7.836113929748535,-1.2097997665405271,113.59461975097656,77.93716430664062,171.63064575195312,-3.982271194458008,-0.684517502784729,-19.87807846069336,165.07464599609375,-82.39702606201172,116.48322296142578,6.875045776367188,2.486979484558105,7.460855484008789
476.24391913414,112.7104263305664,-74.63771057128906,-44.3515739440918,8.49188232421875,-5.843982696533203,1.4640588760375977,-121.15694427490234,-66.35807800292969,-79.59329223632812,0.4491508603096008,-8.901697158813477,2.6250152587890625,47.82910537719727,-58.06362915039063,150.74960327148438,-5.650782585144043,15.954534530639648,4.337091445922852,126.78277587890624,59.38767623901367,-172.1815185546875,-21.171817779541016,-1.4764246940612793,-25.7558708190918,158.60595703125,-81.6182861328125,122.9554443359375,-0.7050727605819702,-3.166203022003174,4.56756591796875
476.2749214172363,121.64013671875,-74.97689819335938,-58.733192443847656,-14.062902450561523,-5.828432083129883,19.679702758789062,-106.7901840209961,-67.23204040527344,-92.57460021972656,-2.801699638366699,-5.029033660888672,-2.89794397354126,61.18305969238281,-52.92992782592773,142.35409545898438,-8.006851196289062,13.422723770141602,-2.787902355194092,133.47305297851562,49.9471321105957,-168.53765869140625,5.744659423828125,-6.904521942138672,-5.456340789794922,154.4458465576172,-80.69310760498047,129.26809692382812,-1.7316789627075195,-2.997194290161133,0.3456678390502929
476.304381608963,138.15199279785156,-73.30830383300781,-70.980224609375,-0.2579222917556762,0.2732799053192138,-0.197697639465332,-92.79779052734376,-67.32698059082031,-96.06082916259766,-19.942699432373047,-5.038378715515137,-2.672548770904541,73.78968048095703,-52.99474334716797,139.97378540039062,-3.511069297790528,3.1401615142822266,0.8730735778808594,141.7559814453125,55.65715789794922,-169.73577880859375,-14.622053146362305,4.331774711608887,5.624931335449219,150.97528076171875,-80.90431213378906,135.24549865722656,-4.569189071655273,-2.5417652130126958,-1.0969820022583008
476.3341965675354,146.38095092773438,-72.13609313964844,-78.82720184326172,0.5516499280929565,5.587697982788086,0.918560028076172,-100.03296661376952,-65.86204528808594,-80.3126220703125,-18.818340301513672,-16.241729736328125,0.002507209777832,76.67645263671875,-58.09031677246094,141.49240112304688,0.3672771453857422,5.93147087097168,1.7986125946044922,125.2060546875,67.71046447753906,177.9207305908203,-11.004722595214844,-3.28200101852417,-12.475736618041992,158.35833740234375,-81.5218734741211,132.31439208984375,-5.466679573059082,-2.478008270263672,-3.787342548370361
476.3646144866944,153.01312255859375,-70.6468505859375,-83.1429672241211,3.4474477767944336,0.180812805891037,0.8346176147460938,-115.3740005493164,-61.84328079223633,-58.00962448120117,-6.933490753173828,-11.342279434204102,2.7444419860839844,70.99439239501953,-65.2527084350586,147.22686767578125,-0.4807248115539551,8.207496643066406,-0.3943796157836914,81.35569763183594,75.90013885498047,133.9886474609375,-4.03208065032959,-1.2774529457092283,-9.764842987060549,165.34852600097656,-80.91127014160156,128.589599609375,0.369192898273468,1.7041308879852295,-0.8258333206176758
476.3947010040283,158.06097412109375,-69.4994125366211,-85.49359130859375,1.2242367267608645,0.4880293607711792,0.8013629913330078,-127.51382446289062,-55.77614212036133,-39.90861892700195,-1.3715040683746338,-7.5518798828125,-1.6351861953735352,64.5008544921875,-70.41128540039062,157.8166046142578,0.9553310871124268,5.423431396484375,-0.4890470504760742,35.15339660644531,68.73416900634766,85.06254577636719,0.3906390070915222,-7.344667434692383,-7.304831504821777,163.22703552246094,-80.35547637939453,130.81048583984375,1.0094046592712402,3.063106060028076,1.698014259338379
476.4243729114533,161.57623291015625,-68.94506072998047,-87.4864273071289,-0.7002745866775513,0.7104204893112183,0.9082660675048828,-138.82740783691406,-48.576847076416016,-26.656909942626957,1.6876683235168457,-2.825256824493408,-5.090313911437988,56.59978103637695,-72.28880310058594,171.20176696777344,0.5161694288253784,-1.0600497722625732,-0.966050148010254,25.12507057189941,53.91962432861328,68.83502960205078,6.930816650390625,-9.357732772827148,-8.686250686645508,159.64846801757812,-79.47402954101562,132.9949188232422,-5.02376651763916,-0.1016630828380584,1.5793819427490234
476.4546146392822,165.02919006347656,-68.89432525634766,-90.12427520751952,-0.4951432943344116,0.558341383934021,0.5751228332519531,-148.79693603515625,-41.97383880615234,-16.684337615966797,1.1042826175689695,3.3365135192871094,-7.319128036499023,44.90455627441406,-72.24919891357422,-177.24545288085938,-3.86765718460083,-4.471003532409668,-0.4652652740478515,30.303272247314453,38.15812683105469,61.946407318115234,7.025156021118164,-4.85468864440918,-14.099763870239258,157.83096313476562,-78.86585235595703,134.2400665283203,-6.565954208374023,0.491644024848938,2.1632871627807617
476.5146920681,168.3926239013672,-69.27560424804688,-92.80325317382812,0.4450701475143432,0.7594876289367676,0.768275260925293,-155.8730010986328,-37.16102600097656,-9.498320579528809,-0.1958553194999694,2.921604633331299,-8.229118347167969,35.00136184692383,-71.9383544921875,-168.90904235839844,-8.315441131591797,-2.465301513671875,-0.1492061614990234,41.01359176635742,24.720016479492188,57.55596160888672,9.566577911376951,0.866876482963562,-8.587825775146484,155.3966064453125,-78.82801818847656,136.8552703857422,-1.1863124370574951,2.071995258331299,1.843073844909668
476.544323682785,171.28614807128906,-70.06400299072266,-95.05670928955078,0.3813464045524597,0.3884373307228088,0.4119806289672851,-163.06834411621094,-34.531734466552734,-3.704418420791626,0.4568676352500915,-0.6418488025665283,-6.06149959564209,28.49119758605957,-72.2579116821289,-160.36724853515625,-7.868534088134766,-3.6722731590271,-0.1314888000488281,56.06196594238281,13.100521087646484,56.62790298461914,7.471698760986328,-2.50643253326416,-13.53271484375,149.32765197753906,-78.84673309326172,142.677490234375,0.3419122099876404,2.6519460678100586,-0.6178979873657227
476.57459926605225,173.9936065673828,-70.80226135253906,-96.75030517578124,0.427355408668518,-0.4341674447059631,-0.1724510192871093,-170.47900390625,-34.714656829833984,1.564668893814087,5.321643829345703,-0.9298913478851318,-3.775123119354248,20.650014877319336,-73.30535125732422,-148.6388397216797,-7.575372695922852,-4.603046417236328,-0.5724611282348633,74.75421142578125,0.1509046703577041,59.021728515625,-0.8538094758987427,8.491634368896484,-6.901983261108398,142.26272583007812,-78.5728530883789,148.72071838378906,-1.5986745357513428,0.4296994805335998,-2.4379758834838867
476.6045994758606,176.59823608398438,-71.19819641113281,-98.35731506347656,-1.285780668258667,-0.2963884472846985,-0.1671781539916992,-178.55113220214844,-37.30302429199219,6.316991329193115,8.655828475952148,-2.4986391067504883,1.9144268035888672,7.925193309783935,-74.40709686279297,-132.3400115966797,-5.425389289855957,-4.212748527526856,-1.9536895751953125,89.43611145019531,-14.146316528320312,61.18490982055664,-5.227311134338379,5.340240478515625,6.989273071289063,137.76882934570312,-78.12857818603516,152.03773498535156,-3.0817441940307617,-0.9051568508148192,-3.233048439025879
476.6341195106506,178.06918334960938,-70.96617889404297,-99.97377014160156,0.0433306694030761,-1.2021310329437256,-0.6365814208984375,-179.0146026611328,-42.413455963134766,9.709625244140623,-4.971829414367676,9.909574508666992,10.897832870483398,-8.610145568847656,-74.95712280273438,-113.28878021240234,-4.162127494812012,-2.470816135406494,-3.628960132598877,93.2054214477539,-31.802492141723636,63.30319213867188,-1.4835424423217771,7.437078475952148,12.32455062866211,134.9205322265625,-77.67884826660156,155.59629821777344,-0.6369321346282959,-0.460466206073761,-4.646184921264648
476.66412353515625,177.98873901367188,-69.81697082519531,-100.32391357421876,2.7567992210388184,-2.4647092819213867,-1.1570711135864258,-175.44134521484375,-43.3221549987793,9.974359512329102,3.278647899627685,0.0997863560914993,5.477585792541504,-23.61986923217773,-75.02313232421875,-95.19929504394533,-4.356006622314453,-0.4701980352401733,-4.03717041015625,86.14112854003906,-52.80561447143555,68.65687561035156,3.98165225982666,12.812871932983398,31.07672882080078,129.64430236816406,-77.89606475830078,160.89791870117188,3.571321487426758,-1.5454673767089844,-3.6094541549682617
476.6945490837097,176.98104858398438,-67.98596954345703,-99.22346496582033,1.254563331604004,-1.083470106124878,-0.7028341293334961,177.08804321289062,-43.57260894775391,11.705985069274902,15.37364387512207,8.39045524597168,3.936036109924317,-30.6361026763916,-75.26309204101562,-81.56155395507812,-2.9587512016296387,0.8015075922012329,-2.374440193176269,61.94015121459961,-63.682090759277344,73.49559783935547,-37.15103149414063,-2.128359317779541,31.51502990722656,121.98779296875,-77.57643127441406,167.33787536621094,2.8660855293273926,3.2548975944519043,-3.4898648262023926
476.72431087493896,176.3666229248047,-65.97406768798828,-98.02593231201172,-0.7142280340194702,0.6854435205459595,0.5567007064819336,172.4728240966797,-44.49926376342773,11.05589485168457,14.215192794799805,3.610063552856445,7.251735687255859,-28.75115203857422,-75.99122619628906,-74.36405944824219,2.212851524353028,1.4659879207611084,0.8651809692382812,65.52082061767578,-58.90947341918945,52.79753494262695,62.36129760742188,6.214817047119141,-10.102676391601562,120.7227783203125,-75.2071762084961,166.32208251953125,-2.344943046569824,1.131791114807129,3.089852333068848
476.75440526008606,177.58456420898438,-64.45941925048828,-98.4549789428711,-4.680692672729492,2.512821674346924,1.7848329544067385,172.3203125,-44.48635482788086,10.75643825531006,12.755046844482422,-2.376636505126953,8.086315155029297,-27.207664489746094,-75.46585845947266,-71.02865600585938,7.849059104919434,2.428938388824463,4.285429000854492,87.64892578125,-54.17578887939453,52.13143539428711,-0.494248628616333,4.020594596862793,-2.189133644104004,121.00212860107422,-73.15838623046875,164.31692504882812,-8.118839263916016,-1.439363956451416,8.792484283447266
