Timestamp,D4:22:CD:00:05:5D_EulerX,D4:22:CD:00:05:5D_EulerY,D4:22:CD:00:05:5D_EulerZ,D4:22:CD:00:05:5D_FreeAccX,D4:22:CD:00:05:5D_FreeAccY,D4:22:CD:00:05:5D_FreeAccZ,D4:22:CD:00:05:5E_EulerX,D4:22:CD:00:05:5E_EulerY,D4:22:CD:00:05:5E_EulerZ,D4:22:CD:00:05:5E_FreeAccX,D4:22:CD:00:05:5E_FreeAccY,D4:22:CD:00:05:5E_FreeAccZ,D4:22:CD:00:05:6B_EulerX,D4:22:CD:00:05:6B_EulerY,D4:22:CD:00:05:6B_EulerZ,D4:22:CD:00:05:6B_FreeAccX,D4:22:CD:00:05:6B_FreeAccY,D4:22:CD:00:05:6B_FreeAccZ,D4:22:CD:00:05:6E_EulerX,D4:22:CD:00:05:6E_EulerY,D4:22:CD:00:05:6E_EulerZ,D4:22:CD:00:05:6E_FreeAccX,D4:22:CD:00:05:6E_FreeAccY,D4:22:CD:00:05:6E_FreeAccZ,D4:22:CD:00:49:AA_EulerX,D4:22:CD:00:49:AA_EulerY,D4:22:CD:00:49:AA_EulerZ,D4:22:CD:00:49:AA_FreeAccX,D4:22:CD:00:49:AA_FreeAccY,D4:22:CD:00:49:AA_FreeAccZ
1489.6454083919523,-172.8972930908203,-67.95952606201172,-94.79562377929688,0.4780874848365783,0.7225632667541504,0.924635887145996,-165.49087524414062,-33.47075653076172,-15.437788009643556,13.257486343383787,-0.4635544419288635,3.063814163208008,-63.68018341064453,-56.22819519042969,-40.7119026184082,-8.137128829956055,15.52863883972168,13.774944305419922,90.64281463623048,0.0496281646192073,33.881141662597656,4.216389656066895,11.92255973815918,-13.890159606933594,133.37364196777344,-70.54503631591797,137.07269287109375,-0.0596551597118377,1.6354701519012451,4.029207229614258
1489.654646396637,-171.4593048095703,-69.35431671142578,-94.9969711303711,0.2528007626533508,0.925603985786438,0.8475589752197266,-161.54263305664062,-31.256797790527344,-20.520002365112305,8.012519836425781,-0.4581417441368103,-1.4652338027954102,-58.01110076904297,-40.5836296081543,-35.26776123046875,-1.5670380592346191,13.801103591918944,16.168643951416016,100.59918212890624,3.215578556060791,43.64478302001953,-2.176842212677002,9.891626358032228,-7.860623359680176,135.27615356445312,-71.71253204345703,135.0779571533203,-2.4533863067626958,0.5813909769058228,3.4318294525146484
1489.666333436966,-153.33126831054688,-80.52751159667969,-144.82852172851562,-0.1513347923755645,-1.5065422058105469,-1.1281623840332031,-160.45416259765625,-30.891098022460938,-26.372900009155277,4.89827823638916,0.261181116104126,-6.64265251159668,-46.193092346191406,-24.34204864501953,-31.55547523498535,5.163263320922852,7.766777038574219,12.8841552734375,105.98748016357422,-0.4616933166980743,54.01035690307617,-3.045085430145264,4.942795753479004,-6.403506278991699,136.91661071777344,-73.29827880859375,133.89059448242188,-4.740283966064453,1.6993732452392578,-0.3721456527709961
1489.707016706467,-175.094970703125,-66.59313201904297,-120.19731903076172,0.6141456365585327,0.7558284997940063,6.557849884033203,-179.68186950683594,-78.7616958618164,-8.851730346679688,-1.058628797531128,-0.568221926689148,22.160449981689453,-51.64495468139648,0.7742339968681335,-84.64940643310547,5.017221450805664,-8.74285888671875,15.242599487304688,-59.8040657043457,-68.41014099121094,-147.0815887451172,-6.4672698974609375,1.9709045886993408,12.277393341064451,154.52369689941406,-78.54615020751953,103.85762786865234,1.4454870223999023,-2.43660831451416,5.222848892211914
1489.7372043132782,-175.30235290527344,-63.56681442260742,-118.12699127197266,0.3804416060447693,3.778714179992676,-0.7421798706054688,165.00515747070312,-74.8232421875,7.323896884918213,3.713561534881592,1.402153253555298,12.93020248413086,-43.2988395690918,13.34485912322998,-81.90779113769531,6.820294380187988,-11.337409973144531,20.791584014892575,-96.5357437133789,-73.69933319091797,-105.89183044433594,-2.84523344039917,-0.3913589715957641,10.91093635559082,135.11366271972656,-73.44989013671875,121.94942474365234,-8.807771682739258,-3.3109707832336426,10.96125030517578
1489.767204284668,-174.3592987060547,-61.80615615844727,-117.22006225585938,0.764187216758728,3.2010793685913086,1.443826675415039,172.5845184326172,-79.68067932128906,4.9031901359558105,1.3287110328674316,4.964850425720215,3.2115249633789062,-26.32205581665039,24.67856979370117,-74.36676788330078,8.959442138671875,-17.62539291381836,18.25165557861328,-103.85074615478516,-69.33724975585938,-94.33433532714844,-9.740072250366213,-8.289163589477539,9.319612503051758,147.36460876464844,-72.92906188964844,111.5504150390625,-5.330681800842285,2.440412998199463,8.50851058959961
1489.8267130851746,-173.9908905029297,-61.42962265014648,-116.3815460205078,-0.6334285736083984,3.6732144355773926,2.1595916748046875,-133.52731323242188,-87.07202911376953,-47.77717971801758,1.0526177883148191,2.463529586791992,-2.749326229095459,-3.0339548587799072,31.01485824584961,-61.49147033691406,3.4692397117614746,-15.17078971862793,10.480533599853516,-109.0936050415039,-67.11756134033203,-85.36311340332031,-5.747294425964356,-13.394052505493164,8.968515396118164,159.64987182617188,-74.77378845214844,102.04713439941406,1.4508976936340332,1.7392942905426023,8.770404815673828
1489.8571524620056,-174.0750274658203,-62.50431060791016,-115.81330108642578,0.1754254698753357,3.000532627105713,2.562020301818848,-18.86821937561035,-79.38033294677734,-165.01107788085938,2.2748470306396484,0.1310979723930359,-3.263589382171631,18.22566032409668,31.182334899902344,-49.75543594360352,-5.505735397338867,-9.295215606689451,5.977934837341309,-104.35507202148438,-66.48219299316406,-79.9112319946289,-6.07493782043457,-15.850311279296877,5.36958122253418,171.4815216064453,-77.27040100097656,93.62773895263672,-4.132525444030762,2.507108688354492,9.340887069702148
1489.886559009552,-173.74069213867188,-65.66035461425781,-114.86341857910156,0.0636935830116272,4.339515686035156,4.593318939208984,-7.071333408355713,-62.98953628540039,179.82513427734375,-1.956902027130127,-3.116755485534668,2.54669189453125,29.217145919799805,28.64116668701172,-42.75200653076172,-10.282060623168944,-5.945830345153809,-0.0511121749877929,-99.1049346923828,-66.27971649169922,-72.61193084716797,-3.7945241928100586,-15.658136367797852,0.0798635482788086,-168.37135314941406,-79.24478149414062,78.29512786865234,-0.6889607906341553,2.55908203125,4.478389739990234
1489.917082309723,-174.20272827148438,-70.1634292602539,-113.25989532470705,-2.0466442108154297,-1.3068113327026367,9.045949935913086,-4.10969877243042,-46.17083740234375,171.3483428955078,-18.503040313720703,3.6042404174804688,-8.297269821166992,28.374248504638672,26.15601921081543,-39.30619430541992,-7.618494987487793,-2.9607744216918945,-6.820679664611816,-95.72453308105467,-66.42035675048828,-63.62364959716797,-1.1576409339904783,-9.403156280517578,-6.794103622436523,-146.7478485107422,-78.74134826660156,63.20865631103516,0.2748990058898926,0.2008731067180633,-1.6359853744506836
1489.947081565857,-174.40322875976562,-76.2551498413086,-116.63629913330078,-3.811638832092285,-8.49813461303711,6.400430679321289,-4.400405406951904,-33.24292755126953,164.88462829589844,-30.04452514648437,3.111745357513428,-13.211599349975586,18.75055503845215,25.443809509277344,-38.31844711303711,-0.6695826053619385,-0.5564535856246948,-8.824398040771484,-92.93672943115234,-66.22088623046875,-54.78153991699219,2.739985942840576,-10.096874237060549,-4.9968767166137695,-134.779052734375,-76.05928802490234,57.68994522094727,-0.1493464410305023,0.3713374733924866,-1.8865623474121092
1489.9764566421509,-178.75770568847656,-79.79600524902344,-121.72747039794922,8.231582641601562,1.383852243423462,-9.103168487548828,-5.016435146331787,-27.183500289916992,161.9922332763672,-13.04458236694336,13.588075637817385,-26.29335021972656,8.952221870422363,27.938739776611328,-40.99535751342773,-0.124537706375122,-3.117913722991944,-10.918025970458984,-93.21198272705078,-66.38227081298828,-46.96584701538086,4.582148551940918,-8.883724212646484,-9.691919326782228,-133.07073974609375,-73.8393325805664,59.24568176269531,4.666195869445801,0.861350417137146,-7.095653533935547
1490.006426334381,-171.21238708496094,-80.81553649902344,-126.5002670288086,8.891990661621094,-13.746196746826172,-8.53825569152832,-1.466562271118164,-25.838865280151367,162.55487060546875,-4.728490829467773,5.201953887939453,-24.20263290405273,11.910868644714355,33.43376541137695,-49.61191940307617,-0.6255056858062744,0.0669205486774444,-10.515140533447266,-100.37078857421876,-67.65135192871094,-38.66343307495117,3.8401575088500977,-6.20633602142334,-11.922842025756836,-135.1764373779297,-74.06360626220703,61.76158905029297,3.371759414672852,-0.0969158858060836,-13.90810775756836
1490.0363388061523,-143.9613494873047,-83.34197235107422,-150.43324279785156,2.3059678077697754,3.6973581314086914,-5.650205612182617,-3.093050479888916,-29.854671478271484,165.51951599121094,-5.9915876388549805,0.3270114660263061,-22.237117767333984,14.760841369628906,40.217567443847656,-62.710208892822266,7.573148727416992,4.391521453857422,-10.436006546020508,-111.9405746459961,-69.97974395751953,-29.599151611328125,2.8040080070495605,-1.4187047481536863,-9.258102416992188,-134.80392456054688,-75.42121124267578,62.1279411315918,-0.2158296406269073,-0.5190446376800537,-9.792844772338867
1490.0673415660858,-129.93853759765625,-82.94645690917969,-165.56044006347656,-6.402629852294922,17.570236206054688,-7.05577564239502,-13.88736057281494,-38.43794631958008,170.7273712158203,-11.708620071411133,-1.524406671524048,-13.27791976928711,1.920888900756836,44.92195510864258,-81.24591064453125,5.442879676818848,2.243126392364502,-15.051578521728516,-119.76072692871094,-72.59890747070312,-21.392677307128903,2.088481903076172,-0.2937117218971252,-7.961210250854492,-130.92086791992188,-77.11837005615234,58.500885009765625,-1.1092689037322998,-1.2464792728424072,-7.199018478393555
1490.1271088123322,-148.5468292236328,-82.06947326660156,-148.04908752441406,-10.260520935058594,-1.1666300296783447,-6.148326873779297,-30.174177169799805,-49.16934585571289,179.50613403320312,-14.16086769104004,1.2568857669830322,-10.444887161254885,-19.239673614501957,43.79824066162109,-107.16922760009766,-7.556353569030762,-12.443920135498049,-23.708141326904297,-122.18156433105467,-74.5411605834961,-15.750680923461914,4.37508487701416,-2.488643169403076,-5.712237358093262,-126.529052734375,-78.32041931152344,54.5054931640625,-0.1616154909133911,-0.8602221012115479,-4.229313850402832
1490.15709733963,-173.33425903320312,-80.30089569091797,-118.31243133544922,-5.298880577087402,-1.5608124732971191,1.884443283081055,-50.00355911254883,-58.74810409545898,-165.97315979003906,-14.490812301635742,8.998579025268555,-0.3632278442382812,-34.05815124511719,35.99322509765625,-126.69365692138672,-19.77568817138672,-7.567830085754394,-26.508678436279297,-121.30357360839844,-76.02547454833984,-13.495841979980469,4.35324764251709,-3.2604260444641118,-5.791384696960449,-123.83473205566406,-79.318115234375,50.36825180053711,0.6798499822616577,3.106238842010498,-2.8884310722351074
1490.187097787857,171.84237670898438,-77.47854614257812,-97.54612731933594,4.893887519836426,1.5777390003204346,2.727418899536133,-49.73626327514648,-64.19727325439453,-161.41632080078125,1.9028046131134035,-33.84687805175781,6.124682426452637,-55.852577209472656,37.43961715698242,-121.00659942626952,7.625818252563477,11.869855880737305,-14.152362823486328,-122.15088653564452,-75.35553741455078,-10.299171447753906,6.5069684982299805,-5.185825347900391,-2.9385428428649902,-128.98353576660156,-79.20307922363281,53.79607772827149,-1.724834680557251,-1.2335197925567627,-0.1424884796142578
1490.2168786525726,163.19418334960938,-75.29107666015625,-88.65568542480469,4.819404602050781,-0.8243275880813599,3.0392799377441406,-51.5766487121582,-68.1697998046875,-158.85873413085938,-1.4243121147155762,4.035015106201172,7.948968887329102,-53.10673522949219,39.89116287231445,-111.7277603149414,-17.15761947631836,-13.821008682250977,7.298797607421875,-128.7923583984375,-71.86956024169922,-6.800809383392334,15.014633178710938,-6.562067031860352,-0.1700086593627929,-135.8038330078125,-80.30113220214844,57.900421142578125,0.2506769299507141,-0.1302812099456787,7.202531814575195
1490.2465496063232,153.96905517578125,-73.33694458007812,-79.49671936035156,-3.577202796936035,0.3801825642585754,6.449298858642578,-52.1666374206543,-70.91777038574219,-157.63487243652344,-6.845670700073242,2.1551942825317383,-0.9563722610473632,-21.31874656677246,40.08203506469727,-101.52999877929688,-2.3751935958862305,2.2948598861694336,-17.058990478515625,-146.1804962158203,-67.2978744506836,-3.6698501110076895,14.241325378417969,-12.612308502197266,4.147846221923828,-136.32382202148438,-81.28023529052734,55.542293548583984,-3.5832881927490234,-3.40816068649292,6.465890884399414
1490.27783203125,146.5182342529297,-72.70211029052734,-71.98197174072266,-1.3566904067993164,3.047898769378662,2.816164970397949,-51.353851318359375,-73.44644165039062,-159.46615600585938,-2.365476608276367,-5.544140815734863,19.61009979248047,-4.116461277008057,37.42842102050781,-82.4609146118164,2.8873090744018555,-4.796753883361816,-13.353181838989258,-174.96380615234375,-65.4344482421875,2.566585063934326,5.250272750854492,5.342391014099121,9.992809295654297,-139.07369995117188,-80.5224838256836,58.13154220581055,-3.091012954711914,-0.9364758729934692,6.136848449707031
1490.3074288368225,135.99447631835938,-74.3497085571289,-64.57144165039062,-0.8499857187271118,-2.515692710876465,7.963523864746094,-54.07452392578125,-76.35749053955078,-157.6279754638672,-5.375557899475098,3.096066474914551,-4.015875816345215,1.5968639850616455,29.10559844970703,-64.937744140625,-13.46824073791504,-13.535907745361328,1.327768325805664,169.28660583496094,-65.56153869628906,10.567245483398438,4.168194770812988,23.33108139038086,-3.708919525146485,-137.85739135742188,-80.15235900878906,55.33293151855469,9.30185890197754,1.369924783706665,-0.9925355911254884
1490.3364379405975,124.8050308227539,-75.70048522949219,-62.12150192260742,8.241960525512695,-0.7523959875106812,5.244451522827148,-55.59583282470703,-78.39373016357422,-158.06385803222656,-7.295530319213867,-5.727670669555664,-2.8501410484313965,10.334772109985352,18.85857963562012,-53.12773895263672,-5.098036766052246,-3.6394505500793457,5.0288801193237305,168.7918243408203,-66.99212646484375,11.544235229492188,-0.1641241908073425,1.335283279418945,2.676337242126465,-139.51515197753906,-79.36699676513672,52.363189697265625,11.058156967163086,-2.447969436645508,-3.3225135803222656
1490.3667964935305,131.12832641601562,-74.15753173828125,-77.0614013671875,17.800094604492188,21.72989654541016,7.000234603881836,-57.92340469360352,-79.07948303222656,-157.7846221923828,-5.705221176147461,0.8971514701843262,0.5311088562011719,14.6289644241333,7.098039627075195,-41.37192153930664,-1.1824729442596436,2.427715301513672,-1.2599210739135742,168.97738647460938,-69.55599975585938,8.273645401000977,-4.490639686584473,6.703000068664551,3.654860496520996,-142.93865966796875,-78.36666870117188,51.954139709472656,1.0816309452056885,-1.192244052886963,5.667157173156738
1490.4263570308683,147.4737091064453,-65.87378692626953,-98.21533203125,16.934276580810547,9.822940826416016,7.401466369628906,-56.54563903808594,-79.35233306884766,-160.8350372314453,-1.238029956817627,0.030681062489748,1.4135627746582031,13.812973022460938,-5.477055072784424,-29.68374252319336,8.87925910949707,7.9031982421875,-3.786955356597901,172.36373901367188,-71.61315155029297,3.611465215682984,-5.373516082763672,3.4340081214904785,3.1020288467407227,-138.6662139892578,-78.8122329711914,46.212833404541016,-0.9856042861938475,2.5495972633361816,-0.4162893295288086
1490.4564526081083,157.05857849121094,-54.46540451049805,-111.40882110595705,5.772704124450684,1.5479779243469238,-1.2290382385253906,-46.88688659667969,-79.51395416259766,-169.74256896972656,-3.822041511535645,0.6449637413024902,-0.0165901184082031,2.891362428665161,-17.55341911315918,-18.420490264892575,4.15529727935791,6.332705497741699,0.5604248046875,178.04795837402344,-72.90318298339844,-0.3364265561103821,-1.7639341354370115,-0.5969324111938477,2.5128908157348637,-133.7051239013672,-78.65763092041016,41.10420989990234,6.5875654220581055,1.5881106853485107,1.0584430694580078
1490.4867899417875,161.3495330810547,-43.17072677612305,-119.61075592041016,0.3825433850288391,-0.5485666990280151,-8.254714965820312,-38.956878662109375,-79.442626953125,-176.5773468017578,-4.099647521972656,-1.2801618576049805,-2.184110164642334,-9.806285858154297,-25.347412109375,-9.84592342376709,-0.3004627227783203,-6.166980743408203,3.968671798706055,-177.09523010253906,-74.1465072631836,-0.4365161657333374,-0.7514493465423584,-3.5697622299194336,0.0698261260986328,-136.21685791015625,-78.70594787597656,42.954627990722656,7.180747985839844,-0.344131588935852,2.11972713470459
1490.5167994499209,162.44515991210938,-33.77587127685547,-124.61781311035156,-2.985801696777344,-0.3895190954208374,-11.940698623657228,-35.60018539428711,-79.54829406738281,-177.8202667236328,-2.452784538269043,-2.7558398246765137,-2.18204402923584,-16.14151382446289,-30.966066360473636,-4.624836444854736,-1.276341438293457,8.124128341674805,-1.4498405456542969,-178.5852813720703,-75.13907623291016,6.142453670501709,0.1608127951622009,-3.271981239318848,-3.4300217628479004,-142.73849487304688,-79.42044830322266,48.66606521606445,1.1591346263885498,0.3804110884666443,-2.9158105850219727
1490.546790599823,162.9541015625,-27.50823402404785,-127.5277099609375,-0.9062709808349608,-1.288130760192871,-13.578849792480469,-44.935035705566406,-80.35717010498047,-166.08448791503906,-1.3695499897003174,-4.184685707092285,-3.9886393547058105,-24.981321334838867,-38.193992614746094,-0.2268030792474746,-1.657503604888916,7.38054084777832,-0.0659027099609375,173.69961547851562,-75.26646423339844,19.669233322143555,0.6702772378921509,-2.829765796661377,-5.018028259277344,-147.2291717529297,-80.16593170166016,53.05086517333984,-0.1711494624614715,-0.4944769144058227,-5.254783630371094
1490.5764956474304,165.56321716308594,-24.94474601745605,-129.68885803222656,-5.965171813964844,-0.6876260042190552,-11.485986709594728,-78.88484191894531,-80.2381362915039,-133.877685546875,-3.708041191101074,-1.8574810028076167,-1.3948278427124023,-30.832395553588867,-46.317344665527344,2.930551290512085,-0.9879417419433594,2.684271335601806,0.3389167785644531,163.01162719726562,-74.17420959472656,35.99013137817383,2.0220727920532227,-3.567307949066162,-4.909975051879883,-151.216552734375,-80.39663696289062,57.719482421875,1.5645370483398438,-1.8435819149017332,-5.748939514160156
1490.6072206497192,165.72286987304688,-27.022197723388672,-131.2500457763672,-7.970477104187012,-4.154844284057617,-11.778919219970703,-109.22815704345705,-76.69440460205078,-107.17212677001952,-8.403446197509766,0.6829277276992798,-0.72918701171875,-30.97137451171875,-57.784915924072266,3.549785852432251,7.313654899597168,6.033246040344238,-0.3881998062133789,151.0911865234375,-72.11932373046875,51.15694808959961,2.109350204467773,-3.1079721450805664,-6.229824066162109,-156.2323760986328,-80.1187515258789,63.81609725952149,0.5950124263763428,-1.7531414031982422,-9.679092407226562
1490.636654138565,165.92269897460938,-31.700847625732425,-131.9207763671875,-4.995501518249512,2.336719512939453,12.024927139282228,-122.72245025634766,-72.87581634521484,-95.56188201904295,-7.72203254699707,-2.00423526763916,-2.900033950805664,-26.421417236328125,-71.65723419189453,-2.387895345687866,6.82032585144043,7.413691520690918,23.522056579589844,137.6278533935547,-68.88237762451172,62.11391830444336,2.269956588745117,-12.161853790283203,-1.6452713012695312,-164.55223083496094,-79.30690002441406,72.4814224243164,1.3389229774475098,-0.5974156856536865,-8.6666259765625
1490.6666555404663,165.67652893066406,-31.03391456604004,-130.3585968017578,-11.699077606201172,-10.643239974975586,6.083053588867188,-128.40174865722656,-71.03736877441406,-89.61461639404297,-2.947508811950684,2.2892417907714844,2.8772640228271484,-3.8400394916534415,-78.15823364257812,-23.312767028808597,2.681631088256836,2.965857982635498,9.995960235595703,113.9422378540039,-63.26304244995117,70.02082061767578,3.249220371246338,-3.4577202796936035,6.47178840637207,-172.7347412109375,-78.83602142333984,79.11751556396484,1.68815279006958,1.4344167709350586,0.3134651184082031
1490.7265031337738,172.24490356445312,-29.457666397094727,-128.46429443359375,-21.723846435546875,-2.2750067710876465,7.277593612670898,-132.3206787109375,-70.80680084228516,-84.90382385253906,-4.949638366699219,0.6446690559387207,0.2228384017944336,6.719431877136231,-76.75077819824219,-27.3868465423584,22.130897521972656,-0.0100479125976562,1.0990228652954102,96.45331573486328,-53.85066604614258,80.26934814453125,16.324153900146484,-4.142529487609863,20.46571350097656,-173.45742797851562,-78.0977554321289,80.58623504638672,-1.6071064472198486,0.2628181576728821,6.33039665222168
1490.7567994594574,170.25022888183594,-26.74262809753418,-126.072998046875,-23.50363540649414,-10.845264434814451,12.599437713623049,-134.91270446777344,-71.46085357666016,-82.17491149902344,-5.881040573120117,0.5023225545883179,0.2342500686645507,4.300111770629883,-75.07318878173828,-26.723796844482425,20.42932510375977,-5.232036590576172,7.092231750488281,83.2844009399414,-40.92036056518555,90.23873901367188,12.724876403808594,3.4323887825012207,24.3999137878418,-174.6217498779297,-75.26287841796875,82.62589263916016,2.670600414276123,-4.462874412536621,7.747129440307617
1490.7871673107147,164.71713256835938,-21.559436798095703,-124.03121185302734,-9.62269401550293,-14.237668991088867,11.236772537231444,-134.9198455810547,-72.71930694580078,-83.12724304199219,-6.451790809631348,0.3520344495773315,0.0476360321044921,-16.175783157348633,-75.80255889892578,-20.672237396240234,15.78438949584961,-12.874780654907228,8.894538879394531,74.19132995605469,-22.617700576782227,96.88043212890624,12.819740295410156,9.433876037597656,24.262805938720703,-176.04505920410156,-73.10380554199219,83.3801040649414,6.250789642333984,0.589808464050293,9.663145065307615
1490.816682100296,161.98764038085938,-17.019058227539062,-124.25619506835938,-8.836645126342773,-9.074888229370115,4.479761123657227,-132.12545776367188,-74.1329116821289,-88.31061553955078,-5.739490509033203,-0.0792489796876907,1.2267131805419922,-38.258094787597656,-76.00772857666016,-13.301834106445312,6.29555606842041,-13.755485534667969,13.999740600585938,64.63763427734375,-2.365708589553833,101.810302734375,8.307649612426758,18.430736541748047,10.007274627685549,-179.1468048095703,-72.66592407226562,84.96773529052734,5.387067794799805,2.519199848175049,10.780603408813477
1490.846691608429,159.76744079589844,-15.775155067443848,-125.67432403564452,-5.841736793518066,-2.0038838386535645,-1.268707275390625,-121.12399291992188,-77.31449127197266,-101.9286880493164,-6.197607040405273,0.8171342611312866,2.304014205932617,-51.30629348754883,-75.326416015625,-13.161996841430664,0.3157472610473633,-4.963915824890137,16.651046752929688,55.110782623291016,16.368425369262695,105.76949310302734,5.740683555603027,15.381406784057615,-0.0492353439331054,176.0875244140625,-72.35700225830078,87.42012786865234,5.983829498291016,1.2487211227416992,8.042543411254883
1490.8767755031586,159.03829956054688,-18.9377555847168,-127.52002716064452,-1.6146469116210938,0.5725452899932861,-7.83077335357666,-75.15093994140625,-80.60681915283203,-149.31336975097656,-1.9892363548278809,-4.334141731262207,10.187427520751951,-57.43633270263672,-77.04563903808594,-21.10701942443848,-5.591195106506348,-2.418268203735352,11.458011627197266,46.0178108215332,30.959230422973636,109.5566177368164,4.5339460372924805,6.7294769287109375,-3.7928948402404794,172.1622314453125,-72.04882049560547,89.16854095458984,6.568795204162598,0.2215449213981628,8.451927185058594
1490.9062418937683,158.8922119140625,-26.512378692626957,-129.51803588867188,-2.573974132537842,2.184797763824463,-10.145082473754885,-33.225921630859375,-76.91305541992188,172.25067138671875,-10.592395782470703,-2.781318187713623,0.8627195358276367,-57.49793243408203,-80.53057861328125,-35.02286148071289,-8.43855094909668,0.9317479133605956,5.346625328063965,40.82423400878906,41.21624374389648,114.79861450195312,2.914512157440185,4.16820240020752,-2.159605026245117,168.83016967773438,-71.91606140136719,90.30374145507812,3.8312268257141113,0.2327136397361755,4.79018497467041
1490.9370746612549,157.51898193359375,-37.6038703918457,-131.47154235839844,-5.320477485656738,0.4740985631942749,-10.897987365722656,-25.920738220214844,-76.0468521118164,168.2799530029297,-10.762434005737305,8.920299530029297,-11.253679275512695,-62.59766006469727,-84.29387664794922,-45.185035705566406,-10.492076873779297,-0.2585139274597168,-3.5143885612487797,37.98914337158203,48.51017761230469,124.42626953125,-5.610093116760254,2.778009414672852,-1.9322023391723635,166.1820068359375,-71.98817443847656,91.15313720703124,0.8596634864807129,1.017085075378418,-4.685770034790039
1490.9672012329102,156.0830841064453,-50.95347213745117,-132.9514923095703,-6.012674331665039,-2.130248546600342,-8.06733512878418,-38.03290939331055,-77.66496276855469,-179.77879333496094,1.1361699104309082,-9.096986770629885,-8.386850357055664,-135.10287475585938,-88.66148376464844,19.156707763671875,-8.624366760253906,9.205463409423828,-7.744075775146484,34.49224090576172,52.64073181152344,137.94581604003906,6.231403350830078,-4.0770463943481445,-5.729218482971191,165.7584686279297,-71.60713958740234,90.22008514404295,-2.81208610534668,-3.4171104431152344,-11.388835906982422
1491.0266802310944,156.3003692626953,-65.76953887939453,-133.27703857421875,-3.5630078315734863,-2.59002685546875,0.5030984878540039,-51.37483978271485,-77.89276123046875,-173.1215362548828,8.280715942382812,-8.75761604309082,-2.943647861480713,146.58892822265625,-84.29993438720703,97.9224853515625,-0.2628281116485595,2.3450074195861816,-13.376016616821287,39.73550796508789,52.41645431518555,151.41250610351562,-1.8384418487548828,1.6647090911865234,-5.822172164916992,167.84861755371094,-70.8642349243164,86.27900695800781,-0.5544770956039429,0.1361922919750213,-8.842679977416992
1491.0567700862885,156.33204650878906,-81.73538208007812,-130.5219268798828,1.0033361911773682,-1.324342966079712,10.191389083862305,-57.81604766845703,-77.88294982910156,-168.02197265625,-2.4344310760498047,2.793310165405273,-3.609682559967041,144.59947204589844,-78.16725158691406,99.83338165283205,-4.434941291809082,2.745276927947998,-14.319480895996094,49.87288665771485,47.6569709777832,163.60447692871094,-4.947451591491699,-0.7233744859695435,-6.235560417175293,169.42141723632812,-72.31684112548828,82.705810546875,3.69185209274292,1.6625795364379885,-8.216840744018555
1491.0867960453031,-2.452256441116333,-82.93742370605469,33.956180572509766,9.863286972045898,6.883513450622559,10.797189712524414,-70.49189758300781,-78.08880615234375,-156.6605987548828,-6.559592247009277,-1.6930761337280271,-6.4759931564331055,148.931396484375,-70.40181732177734,100.39390563964844,-6.174068450927734,2.170719146728516,-12.653202056884766,59.65043258666992,37.29398727416992,173.18179321289062,-14.42340087890625,-3.383664608001709,-13.350824356079102,166.5814208984375,-74.35371398925781,82.58131408691406,2.472306251525879,-1.8997142314910889,-10.047367095947266
1491.117355108261,1.2653287649154663,-72.53063201904297,35.28437423706055,9.95644187927246,15.804292678833008,-14.868570327758787,-88.39369201660156,-77.53475189208984,-142.05470275878906,-3.080169677734375,-2.722599029541016,-3.572221279144287,153.95068359375,-62.23506546020508,102.48338317871094,0.58612060546875,4.451236724853516,-6.150629043579102,66.59980010986328,24.600069046020508,-178.92990112304688,-44.10685729980469,-2.1979570388793945,-7.777143478393555,164.20411682128906,-75.14315795898438,82.63587951660156,-3.3025546073913574,-0.3068236112594604,-5.990743637084961
1491.1520791053772,-2.0434679985046387,-70.02311706542969,34.17378234863281,12.868219375610352,9.078205108642578,-13.013105392456056,-99.5484390258789,-76.1971206665039,-131.17520141601562,-3.7346458435058594,-3.881553649902344,0.240208625793457,152.81387329101562,-55.069705963134766,106.10820770263672,4.400473594665527,6.7572832107543945,-2.958390712738037,73.61597442626953,24.106639862060547,-174.3179168701172,-0.8286311626434326,-1.1435575485229492,-21.389419555664062,168.8662567138672,-75.68283081054688,77.08879089355469,-4.057548522949219,0.536812424659729,-2.1592583656311035
1491.1772372722626,10.10534381866455,-73.38803100585938,23.980091094970703,9.962640762329102,-2.290613174438477,-5.504535675048828,-105.54788208007812,-73.64283752441406,-124.080810546875,-5.200257301330566,-4.130544662475586,5.923079490661621,144.27296447753906,-50.76338577270508,107.21793365478516,1.4058122634887695,7.352700233459473,-2.8520612716674805,85.60755920410156,34.45834732055664,-176.6443328857422,9.958641052246094,-9.774791717529297,-8.565338134765625,174.31858825683594,-76.4806137084961,72.54856872558594,2.8160414695739746,-1.1647403240203855,0.1219863891601562
1491.2073152065277,47.48210525512695,-77.3612289428711,-3.340085506439209,8.928581237792969,10.41183853149414,-2.4359493255615234,-106.70478057861328,-71.28595733642578,-123.05481719970705,-5.039810180664063,0.9739264249801636,7.636825561523437,137.0703582763672,-50.27201843261719,105.44441986083984,-0.6837766170501709,8.581485748291016,-0.9804563522338868,95.99578857421876,47.58071517944336,179.4809112548828,-11.086641311645508,-3.803264141082764,0.5784530639648438,177.70738220214844,-77.23749542236328,70.61815643310547,2.802614688873291,-2.275426387786865,1.585637092590332
1491.2364761829376,92.33148956298828,-77.87554931640625,-42.313751220703125,-6.244708061218262,-10.459096908569336,7.723972320556641,-99.96788787841795,-69.388916015625,-128.91961669921875,-3.7348594665527344,-1.2247121334075928,5.997396469116211,135.32452392578125,-51.62551498413086,102.46214294433594,1.114116668701172,8.922008514404297,6.473842620849609,86.46056365966797,61.64265441894531,165.78248596191406,-4.253252983093262,-4.083467483520508,-11.051681518554688,-178.21197509765625,-77.98609161376953,68.3973617553711,3.726435661315918,1.0585973262786863,5.396055221557617
1491.266651391983,108.21139526367188,-77.99624633789062,-61.53844833374024,6.569108963012695,-20.94677734375,2.3014020919799805,-91.3475570678711,-66.89311981201172,-135.21554565429688,-6.340376853942871,-9.460451126098633,4.060372352600098,133.63037109375,-53.36091232299805,99.79944610595705,3.199087142944336,9.59512710571289,9.523311614990234,52.37699890136719,70.03081512451172,127.0884017944336,-5.87032413482666,-1.2740836143493652,-11.812910079956056,-174.3385772705078,-77.65553283691406,66.85858917236328,7.699920654296875,-2.546659469604492,12.04697608947754
1491.32674574852,125.14581298828124,-78.1085433959961,-77.52777099609375,-5.223771095275879,-3.3466238975524902,7.239957809448242,-81.00739288330078,-64.6091079711914,-141.054931640625,-10.294307708740234,-7.669473648071289,-2.9485111236572266,131.13748168945312,-56.62442398071289,95.8602523803711,5.417415618896484,7.792502403259277,10.59926986694336,12.2245454788208,65.81749725341797,82.98894500732422,-0.8046321868896484,1.499009370803833,-11.213056564331056,-172.72332763671875,-77.4013442993164,67.56414031982422,0.3083813786506653,-1.367081880569458,1.5857114791870115
1491.3567926883698,139.36337280273438,-77.23597717285156,-85.68606567382812,-2.8345484733581543,2.991476058959961,2.7331323623657227,-70.35091400146484,-64.2433090209961,-138.9234619140625,-37.27075958251953,4.976531982421875,-13.214136123657228,131.1549072265625,-61.21890258789063,91.4469223022461,5.375754356384277,4.145981788635254,3.848489761352539,-6.202276706695557,55.28800201416016,58.162689208984375,6.389973640441895,1.147408962249756,-6.133578300476074,-175.02044677734375,-76.02377319335938,73.93497467041016,-3.933313846588135,-0.2339293360710144,1.1052141189575195
1491.3867564201355,150.8858184814453,-77.36518859863281,-93.73280334472656,-4.272381782531738,4.246188163757324,2.583903312683105,-78.89805603027344,-65.90287780761719,-120.5723876953125,-22.042835235595703,-5.618406295776367,-7.418737411499023,135.7161407470703,-65.21063232421875,88.62594604492188,1.815412998199463,1.1546220779418943,-0.3063898086547851,-6.429442882537842,44.41888046264648,43.915035247802734,15.710409164428713,-5.459966659545898,-2.0985636711120605,-176.32460021972656,-74.09624481201172,79.88886260986328,-5.376789093017578,0.3047013282775879,-0.4483375549316406
1491.4166486263275,160.77517700195312,-77.79033660888672,-104.16544342041016,-0.2502768039703369,0.0969241559505462,0.6839056015014648,-97.10015106201172,-66.67662048339844,-95.37222290039062,-10.70987319946289,-4.1290788650512695,-6.348085403442383,142.36764526367188,-68.67176055908203,88.347900390625,-0.986108899116516,-1.819340467453003,-1.1589326858520508,10.097578048706056,36.6364860534668,35.59400177001953,15.796688079833984,-12.782751083374023,1.830246925354004,-174.45462036132812,-72.94156646728516,82.4077377319336,0.0088553596287965,4.336503028869629,-1.4954710006713867
1491.4466302394867,170.84426879882812,-78.35933685302734,-114.17225646972656,0.0188897512853145,1.469676494598389,0.8539180755615234,-116.69393157958984,-64.97636413574219,-70.58363342285156,-2.8683862686157227,-1.913177490234375,-9.013280868530272,143.24403381347656,-71.36103057861328,92.3494110107422,-0.7323665618896484,-8.51374626159668,2.5895204544067383,36.92856597900391,32.58307647705078,34.111568450927734,-1.448319673538208,-2.786510944366455,-6.755134582519531,-174.6724395751953,-72.683837890625,84.2120361328125,4.8577880859375,1.4126553535461426,2.636425018310547
1491.4769260883331,-179.9132537841797,-79.04584503173828,-123.67281341552734,-0.7604353427886963,1.2957861423492432,0.7596063613891602,-132.8108367919922,-61.93901824951172,-51.93777847290039,0.2565456628799438,-0.2552083134651184,-11.846054077148438,137.3909149169922,-73.9405288696289,97.13297271728516,-8.6650390625,-2.447208881378174,2.206937789916992,55.72698211669922,28.44344711303711,37.23523712158203,-5.529287338256836,9.542713165283203,0.0674495697021484,-177.71865844726562,-72.34855651855469,87.4909439086914,-3.0966453552246094,2.9051146507263184,0.4688997268676758
1491.5066106319427,-170.12353515625,-79.67539978027344,-134.55210876464844,-3.134816169738769,2.81240463256836,0.6159601211547852,-146.64869689941406,-59.1573486328125,-38.30265808105469,-5.692610740661621,-0.8113631010055542,-11.671934127807615,130.8555450439453,-77.1433334350586,101.94263458251952,-7.325141906738281,-1.9102225303649905,-0.3816804885864258,63.74483871459961,21.625879287719727,40.485496520996094,-2.135493278503418,2.0507688522338867,-1.1405363082885742,178.38055419921875,-72.4759292602539,91.39404296875,-5.99143123626709,3.924393653869629,0.3646068572998047
1491.5369656085968,-161.4927520751953,-80.00371551513672,-146.55587768554688,-1.1908719539642334,-0.1099717170000076,-0.2657356262207031,-159.7970733642578,-57.574668884277344,-27.6008358001709,2.428488254547119,0.506078839302063,-9.36053466796875,125.44689178466795,-81.35001373291016,104.9777603149414,-5.057687759399414,-2.5907230377197266,-2.682924270629883,64.84999084472656,10.385740280151367,43.44272994995117,-5.617839813232422,2.18975830078125,-2.0740647315979004,176.0303497314453,-73.3071517944336,94.62317657470705,-2.575436592102051,1.1124703884124756,-2.8852758407592773
1491.5664672851562,-158.71051025390625,-79.83198547363281,-154.07456970214844,0.1063067764043808,-3.114506244659424,-2.0211639404296875,-172.52708435058594,-58.52598571777344,-18.98896598815918,5.845358848571777,-2.675676822662353,-3.911475658416748,123.35491180419922,-86.5673828125,103.3252182006836,-4.432126998901367,0.1567562818527221,-6.179447174072266,57.00977325439453,-7.135034084320068,45.31489181518555,8.203794479370117,1.214996576309204,-5.117728233337402,171.61538696289062,-74.6612777709961,100.43202209472656,-1.4387199878692627,0.5078930854797363,-3.786405563354492
1491.6270339488983,-167.52589416503906,-78.3115234375,-149.7339630126953,1.6791152954101562,-9.139976501464844,-3.191953182220459,177.359619140625,-62.740047454833984,-11.169713020324709,16.10055160522461,-2.882425308227539,-1.432966232299805,-67.44210052490234,-87.29557037353516,-67.46640014648438,-2.862931728363037,1.592186689376831,-7.943204879760742,46.37382125854492,-28.104366302490234,48.74961853027344,22.793041229248047,12.887393951416016,12.304977416992188,163.3281707763672,-76.97875213623047,109.00447082519533,-0.4169514775276184,-1.1800496578216553,-5.769098281860352
1491.6572635173798,-178.44808959960938,-74.66494750976562,-139.06884765625,3.440916061401367,-6.790536880493164,-0.8162298202514648,170.23870849609375,-67.3203125,-0.6221990585327148,-31.712570190429688,5.60024356842041,25.845592498779297,-64.9800033569336,-80.35730743408203,-70.01399230957031,-2.632336139678955,1.0499911308288574,-6.251864433288574,43.65944290161133,-45.03578567504883,56.1259765625,25.20703125,16.357139587402344,24.07693862915039,153.11929321289062,-78.1612319946289,118.83429718017578,2.6172776222229004,0.0322177112102508,-10.167024612426758
1491.6866533756256,175.11196899414062,-69.26393127441406,-128.3242950439453,-1.6544170379638672,1.385478973388672,-1.0759906768798828,167.19244384765625,-67.75731658935547,3.902531147003174,14.372243881225586,3.9903464317321777,3.180783271789551,-64.89087677001953,-72.8385009765625,-70.37884521484375,-3.468308448791504,1.7953121662139893,-4.451360702514648,51.46660614013672,-47.83414459228516,56.85332489013672,-8.231069564819336,-0.6417750120162964,-3.575235366821289,143.3977813720703,-77.36870574951172,127.29164123535156,2.827868938446045,0.5084067583084106,-8.316064834594727
1491.7164497375488,171.9767608642578,-62.55535888671875,-120.70021057128906,-0.749298095703125,1.9529197216033936,-2.7105917930603027,168.60711669921875,-68.3849105834961,4.1127800941467285,9.634031295776367,-1.816629409790039,14.005044937133787,-63.16147232055664,-63.97819137573242,-72.06096649169922,-3.9261417388916016,2.995238304138184,1.1099824905395508,48.07126235961914,-43.462379455566406,50.67909240722656,14.736377716064451,9.82521629333496,-6.370236396789551,136.67605590820312,-76.13815307617188,132.67459106445312,-0.0870307981967926,2.54510498046875,-0.9811038970947266
1491.7467322349548,172.5785675048828,-56.77132415771485,-117.62429809570312,-2.4922938346862797,0.4766159057617187,3.731533050537109,174.9139404296875,-65.4156723022461,-2.467548131942749,6.964676856994629,-0.9979279041290284,16.050437927246094,-63.86720275878906,-52.08121109008789,-73.7977294921875,-4.740972518920898,6.104183197021484,9.395795822143556,48.54672622680664,-36.96354293823242,52.52739715576172,17.98874282836914,12.878807067871094,2.4870615005493164,132.44284057617188,-75.27887725830078,136.73106384277344,-2.3207788467407227,-0.5382624864578247,6.834562301635742
1491.7777364253998,173.05189514160156,-52.58794403076172,-116.92848205566406,-0.371613085269928,2.0315842628479004,1.1319694519042969,-173.20704650878906,-61.38362121582031,-8.652785301208496,11.785972595214844,-6.99404239654541,20.711360931396484,-64.54147338867188,-38.45230484008789,-74.93154907226562,-0.7890105247497559,17.403987884521484,22.233837127685547,59.61430740356445,-29.893484115600582,54.18283081054688,11.418708801269531,25.25951766967773,3.1369028091430664,132.31951904296875,-74.2894287109375,137.2405242919922,-1.3209123611450195,1.175950527191162,7.443557739257812
1491.8064584732056,174.41395568847656,-50.28141784667969,-117.2696533203125,0.6379261016845703,1.44091534614563,1.8320913314819336,-166.92913818359375,-53.95575714111328,-14.168660163879396,6.848819732666016,-11.612913131713867,14.052545547485352,-58.415863037109375,-22.82832717895508,-74.6181411743164,10.586181640625,13.407108306884766,20.19794464111328,68.5864486694336,-27.54516220092773,54.756290435791016,3.946001529693604,17.590824127197266,0.2881746292114258,134.63900756835938,-73.60586547851562,134.24940490722656,-1.9009413719177248,-0.3463543057441711,12.028255462646484
