Timestamp,D4:22:CD:00:05:5D_EulerX,D4:22:CD:00:05:5D_EulerY,D4:22:CD:00:05:5D_EulerZ,D4:22:CD:00:05:5D_FreeAccX,D4:22:CD:00:05:5D_FreeAccY,D4:22:CD:00:05:5D_FreeAccZ,D4:22:CD:00:05:5E_EulerX,D4:22:CD:00:05:5E_EulerY,D4:22:CD:00:05:5E_EulerZ,D4:22:CD:00:05:5E_FreeAccX,D4:22:CD:00:05:5E_FreeAccY,D4:22:CD:00:05:5E_FreeAccZ,D4:22:CD:00:05:6B_EulerX,D4:22:CD:00:05:6B_EulerY,D4:22:CD:00:05:6B_EulerZ,D4:22:CD:00:05:6B_FreeAccX,D4:22:CD:00:05:6B_FreeAccY,D4:22:CD:00:05:6B_FreeAccZ,D4:22:CD:00:05:6E_EulerX,D4:22:CD:00:05:6E_EulerY,D4:22:CD:00:05:6E_EulerZ,D4:22:CD:00:05:6E_FreeAccX,D4:22:CD:00:05:6E_FreeAccY,D4:22:CD:00:05:6E_FreeAccZ,D4:22:CD:00:49:AA_EulerX,D4:22:CD:00:49:AA_EulerY,D4:22:CD:00:49:AA_EulerZ,D4:22:CD:00:49:AA_FreeAccX,D4:22:CD:00:49:AA_FreeAccY,D4:22:CD:00:49:AA_FreeAccZ
2244.9014921188354,-167.72244262695312,-75.44233703613281,-155.98362731933594,-0.6780158281326294,-4.576045036315918,-1.607072830200195,131.72227478027344,-80.90767669677734,103.03596496582033,-8.75954818725586,11.098726272583008,10.533805847167969,-59.23461151123047,-68.57623291015625,-59.357398986816406,-3.1982717514038086,2.3527398109436035,-3.7888665199279785,50.73440933227539,-61.973270416259766,-0.3451024889945984,8.04736328125,-3.558213710784912,22.95834732055664,162.39886474609375,-66.20713806152344,127.8284149169922,0.7601363658905029,-1.2752838134765625,-5.6779985427856445
2244.9054918289185,-177.6060791015625,-71.81840515136719,-141.75006103515625,-1.7376248836517334,-1.5999889373779297,-2.103929042816162,130.56906127929688,-81.68428802490234,104.31232452392578,10.241968154907228,-5.577005386352539,7.479778289794922,-58.4665641784668,-62.47005081176758,-57.001731872558594,-2.1526098251342773,4.768969535827637,-0.3645076751708984,32.74293899536133,-73.2419662475586,8.553101539611816,6.692898750305176,-9.868131637573242,20.176342010498047,158.18911743164062,-66.53570556640625,131.89501953125,-2.5161099433898926,-0.1014710813760757,-7.867835998535156
2244.9084923267365,176.89219665527344,-67.366455078125,-129.52085876464844,5.179590225219727,0.953821897506714,0.1196146011352539,148.3450164794922,-80.50221252441406,84.4969253540039,7.719898223876953,-5.443840980529785,9.722320556640623,-56.71702194213867,-54.02753829956055,-54.80511474609375,-2.629340171813965,1.2035748958587646,0.7573118209838867,12.10421657562256,-75.14006042480469,30.97812843322754,6.216823577880859,-2.1972336769104004,15.677734375,156.1800994873047,-65.77067565917969,135.06103515625,-3.224060535430908,2.31543493270874,-3.928549289703369
2244.9865050315857,178.98289489746094,-57.79594039916992,-103.49658966064452,-0.5973526239395142,0.2130887508392334,0.2461538314819336,-127.57950592041016,-66.05867767333984,14.381799697875977,4.382890701293945,0.510460615158081,16.371246337890625,-78.97936248779297,-33.896766662597656,-127.96749114990234,14.003992080688477,2.92512845993042,21.663074493408203,59.920936584472656,-71.36920166015625,48.54815673828125,5.498229026794434,6.005146026611328,11.946369171142578,-116.4174575805664,-77.3513412475586,33.67623519897461,1.8466713428497317,-0.0903133153915405,-0.5671787261962891
2245.047014713288,175.865966796875,-54.43685531616211,-100.24820709228516,-0.5850100517272949,0.8835855722427368,1.3434934616088867,-142.2322998046875,-58.36704254150391,28.03937339782715,11.036727905273438,-2.245847225189209,11.024541854858398,-59.603981018066406,-16.3060359954834,-140.90724182128906,-0.3156397342681885,-2.510571002960205,17.681427001953125,66.05616760253906,-76.62813568115234,37.8747444152832,17.961265563964844,-0.5170015096664429,9.44358253479004,-120.70153045654295,-81.43351745605469,37.53783416748047,3.1864476203918457,1.2605512142181396,6.396993637084961
2245.076014995575,174.4436798095703,-51.771610260009766,-98.13275146484376,0.4982610940933227,0.7918850183486938,0.8422145843505859,-154.31031799316406,-60.70619583129883,39.226318359375,9.735603332519531,5.086965560913086,9.500272750854492,-55.73006820678711,-1.5701009035110474,-150.10595703125,13.208658218383787,-12.904794692993164,2.799205780029297,-5.977055549621582,-77.24445343017578,117.30809020996094,4.736001968383789,4.328606605529785,16.930381774902344,-138.36166381835938,-84.47848510742188,55.87751007080078,2.272548198699951,-0.4108396172523498,6.718433380126953
2245.1115663051605,174.2764892578125,-50.832462310791016,-97.3354034423828,0.1228807121515274,1.157472848892212,1.3252038955688477,-163.716796875,-68.4215316772461,48.48493957519531,2.386538505554199,-4.587094306945801,4.936872482299805,-60.09067916870117,16.655519485473633,-152.26185607910156,14.216146469116213,-9.931760787963867,24.064105987548828,5.959524154663086,-72.23109436035156,120.28543853759766,-16.485301971435547,15.586631774902344,12.115678787231444,-164.79415893554688,-83.70032501220703,84.67940521240234,1.1255505084991455,-4.732502937316895,11.663414001464844
2245.1365673542023,174.82366943359375,-51.7254753112793,-97.166259765625,-0.2784792184829712,1.299227952957153,2.4641637802124023,177.0099334716797,-76.04884338378906,68.81367492675781,0.1284788250923156,10.471525192260742,-1.8858885765075684,-48.056884765625,35.612640380859375,-144.80996704101562,0.3768792152404785,-10.755765914916992,19.71387481689453,44.99762725830078,-76.60472106933594,88.14360046386719,-10.18747329711914,11.350055694580078,11.457412719726562,-169.45562744140625,-81.6379165649414,91.72537994384766,-0.4965004920959472,-2.4906458854675293,10.237247467041016
2245.1665666103363,176.03201293945312,-54.28390502929688,-97.61956024169922,-1.4300904273986816,1.1547911167144775,2.4608030319213867,115.77172088623048,-83.11137390136719,138.06076049804688,-4.038655281066895,4.00858211517334,-4.150107383728027,-23.1560001373291,46.55928802490234,-125.68054962158205,-6.826781272888184,4.588872909545898,12.622488021850586,73.55245208740234,-80.33273315429688,66.61172485351562,-2.111739158630371,9.993694305419922,-0.1711530685424804,-167.42327880859375,-79.54145812988281,92.7900161743164,0.0048859929665923,-2.494356632232666,8.136480331420898
2245.196581840515,177.7895050048828,-58.78324508666992,-98.69456481933594,-1.530522346496582,2.904243469238281,3.714670181274414,56.277286529541016,-74.34749603271484,-154.63038635253906,-7.742541313171387,3.422446727752685,-5.595409393310547,5.033786296844482,48.42990112304688,-105.95838928222656,-16.917552947998047,8.129644393920898,2.086734771728516,-0.6102579236030579,-86.18099975585938,151.3112335205078,-9.46824073791504,6.63889217376709,-3.4545369148254395,-162.23428344726562,-78.47450256347656,89.94261169433594,0.2320323586463928,-1.0816431045532229,7.330280303955078
2245.226734638214,178.91213989257812,-66.04216003417969,-98.29460906982422,-2.2737603187561035,2.613356590270996,6.120382308959961,43.9961166381836,-60.3495979309082,-135.66778564453125,-9.313013076782228,1.1007444858551023,-1.6797590255737305,31.592025756835938,50.17130661010742,-94.77133178710938,-7.944230079650879,9.143142700195312,-9.583311080932615,-40.113037109375,-72.58826446533203,-155.3881378173828,-13.65108871459961,2.1961264610290527,-8.011587142944336,-152.5004119873047,-79.36918640136719,82.20030975341797,2.9914770126342773,1.9039113521575928,0.4573450088500976
2245.256876945496,-176.8502655029297,-75.8315658569336,-103.02316284179688,-0.7389382123947144,-8.716856002807617,8.452737808227539,36.454132080078125,-46.03612518310547,-127.343017578125,-9.47752571105957,-10.912330627441406,4.587891578674316,50.9410285949707,54.23686599731445,-86.15831756591797,3.072869777679444,3.2199511528015137,-4.386077880859375,-29.62325096130371,-53.80496597290039,-144.89022827148438,-20.47570037841797,-3.48260498046875,-7.820409774780273,-146.27842712402344,-78.7069091796875,78.90670013427734,0.4640505909919739,1.8455734252929688,-8.89387321472168
2245.285890579224,-170.38682556152344,-82.28784942626953,-117.07085418701172,5.938031196594238,6.61733341217041,-7.752377510070801,21.74247360229492,-35.41625213623047,-124.05464935302734,-0.1306268870830536,-19.96142196655273,-7.997280120849609,61.38271331787109,59.75614929199219,-77.94205474853516,-1.716012954711914,2.158541679382324,-8.198432922363281,-13.22543239593506,-37.57014465332031,-134.25331115722656,-14.425569534301758,-19.345928192138672,-13.017162322998049,-148.82273864746094,-75.89192962646484,83.97047424316406,0.0896570533514022,1.4195606708526611,-11.838010787963867
2245.3464176654816,-175.7044677734375,-81.43479919433594,-110.2278289794922,6.801929473876953,2.892136573791504,-9.451616287231444,4.595149040222168,-32.584266662597656,-123.68814086914062,-20.98896026611328,-7.37010383605957,-36.93254089355469,65.88265991210938,68.81773376464844,-73.94452667236328,3.591350078582764,-1.8618147373199463,-9.50678825378418,-6.663496971130371,-26.97530937194824,-124.99829864501952,-1.240649938583374,-13.273672103881836,-15.727771759033203,-151.80303955078125,-74.08135986328125,87.8869857788086,2.2134222984313965,-1.8068287372589111,-10.800287246704102
2245.376425266266,173.4750518798828,-76.90158081054688,-96.6610870361328,-4.598587989807129,-0.5966649055480957,-8.372453689575195,0.6806275844573975,-35.332454681396484,-121.25110626220705,1.4247205257415771,-10.094884872436523,-5.916969299316406,38.292728424072266,79.99053955078125,-99.48160552978516,2.679262638092041,-3.2395119667053223,-16.678539276123047,-5.353968143463135,-24.07428550720215,-120.89122009277344,-3.6297898292541504,-6.6800384521484375,-15.245121002197266,-150.76028442382812,-73.31266021728516,87.73468017578125,-0.8057466745376587,-2.484285831451416,-9.753042221069336
2245.406944990158,169.57803344726562,-72.0422592163086,-89.10169982910156,4.172057151794434,-17.37564468383789,-6.950103759765625,-3.3381903171539307,-39.58858108520508,-118.19710540771484,-2.8086185455322266,-13.142126083374023,-12.808856964111328,-47.66386032104492,73.99988555908203,-179.92019653320312,-1.8907384872436523,3.7677297592163086,-31.011150360107425,-9.488119125366213,-24.3778018951416,-119.01776885986328,2.233771800994873,-7.138065338134766,-16.31109619140625,-149.59503173828125,-73.08868408203125,87.35679626464844,-1.9281883239746092,1.1875290870666504,-9.044261932373049
2245.436952114105,170.27931213378906,-69.87998962402344,-85.23643493652344,-8.435916900634766,3.3387694358825684,3.853809356689453,-13.416550636291504,-46.82399368286133,-113.61488342285156,-1.4102380275726318,-14.58491325378418,-7.207849502563477,-73.9372329711914,60.09552383422852,169.5553436279297,-17.755096435546875,13.245662689208984,-39.508750915527344,-14.070964813232422,-25.84885597229004,-118.8652801513672,0.1171687841415405,-7.273076057434082,-11.43132209777832,-147.97315979003906,-73.5814208984375,86.90306854248047,-0.8491067886352539,0.1710285246372223,-6.384623527526856
2245.466952562332,168.8942413330078,-65.51374053955078,-76.62053680419922,3.5288991928100586,-10.792098999023438,0.7336521148681641,-27.630970001220703,-53.966251373291016,-106.23876190185548,-7.915550231933594,-15.311464309692385,-10.521772384643556,-90.2453384399414,64.11714172363281,173.41795349121094,-7.178594589233398,5.828031539916992,2.0909433364868164,-16.54863929748535,-26.58366584777832,-118.56431579589844,-1.1774907112121582,-5.957065582275391,-9.572927474975586,-147.65550231933594,-73.23821258544922,89.63323974609375,0.7916355133056641,-3.5654425621032715,-0.2348966598510742
2245.4969577789307,167.21243286132812,-61.234134674072266,-68.64517211914062,1.8743083477020264,1.4071404933929443,2.8433704376220703,-39.31117630004883,-59.33830642700195,-96.39991760253906,4.066340446472168,-5.095233917236328,2.211785316467285,-65.22044372558594,74.95146179199219,-152.59877014160156,-14.496171951293944,3.894498825073242,-15.459213256835938,-16.227706909179688,-26.02652740478516,-116.85980987548828,-0.1012763381004333,-8.333765029907227,-9.415088653564451,-151.0001678466797,-71.47360229492188,94.53925323486328,3.101857185363769,3.074610710144043,2.394786834716797
2245.5263543128967,165.4816436767578,-58.23787689208984,-62.96379089355469,0.4424315690994262,4.404269218444824,1.038381576538086,-37.13442993164063,-63.044681549072266,-93.50723266601562,18.90913772583008,-2.8000268936157227,-0.0399370193481445,1.6266225576400757,69.08529663085938,-84.91654968261719,-9.005880355834961,-0.2658424377441406,-31.51205444335937,-16.111854553222656,-25.52966690063477,-113.43917846679688,3.4029836654663086,-12.68125343322754,-5.30291748046875,-156.5641326904297,-70.903076171875,98.42186737060548,-3.704083442687988,2.1722536087036133,5.371030807495117
2245.556354045868,162.25747680664062,-57.3829345703125,-60.459434509277344,-2.237332820892334,1.9478225708007808,2.5853271484375,-38.20079040527344,-66.2528305053711,-92.113525390625,-8.522708892822266,-5.435905456542969,17.74371337890625,15.402056694030762,51.98936080932617,-65.79923248291016,-1.98905348777771,-5.865644454956055,-9.667936325073242,-20.6728515625,-26.425785064697266,-109.42959594726562,7.42502498626709,-15.465097427368164,-2.04769229888916,-163.0609588623047,-71.46514129638672,103.06597137451172,-5.670841217041016,-0.1832886636257171,5.316046714782715
2245.5863692760468,158.37936401367188,-57.01490020751953,-56.08414077758789,1.1680145263671875,-4.111763954162598,4.329056739807129,-46.54377365112305,-70.06441497802734,-88.29859924316406,-2.795675754547119,-5.405173301696777,0.6465110778808594,9.134455680847168,35.77437973022461,-59.80229568481445,3.227715492248535,1.0512206554412842,-0.32110595703125,-31.82297134399414,-29.114355087280277,-106.96420288085938,3.081132411956787,-16.267547607421875,-3.924434185028076,-162.95126342773438,-71.811767578125,104.50286102294922,-4.641846656799316,0.4106983542442322,5.94881534576416
2245.6758852005005,153.93902587890625,-57.183013916015625,-52.64207077026367,-0.7094852924346924,0.4980139136314392,1.404827117919922,-44.7234992980957,-72.6019058227539,-89.26892852783203,-1.438703536987305,-7.0446062088012695,-2.2955493927001958,-1.712531805038452,21.969837188720703,-56.21027374267578,-5.940290451049805,-9.120458602905272,13.526525497436523,-46.0198974609375,-32.947200775146484,-105.5235366821289,-0.9486058950424194,-11.380916595458984,2.95071029663086,-163.3873291015625,-71.92649841308594,105.79641723632812,0.424380898475647,2.5082263946533203,4.329436302185059
2245.6798856258392,147.9259490966797,-57.85393524169922,-48.96549606323242,6.279721260070801,-1.2067289352416992,3.9677228927612314,-43.71260452270508,-74.67244720458984,-90.45291137695312,-2.5431995391845703,-4.768763542175293,-0.7168369293212891,-10.13221836090088,13.006491661071776,-52.96879577636719,10.49398422241211,9.690469741821287,11.890239715576172,-56.37107849121094,-36.64659118652344,-105.4352798461914,2.4592390060424805,-5.59880256652832,4.802148818969727,-164.23594665527344,-72.86009979248047,104.59300994873048,6.5991058349609375,0.626131534576416,-0.2428932189941406
2245.706427097321,141.95530700683594,-58.58036804199219,-46.72330474853516,7.800937652587891,-2.596965312957764,5.662986755371094,-40.08225631713867,-76.32569885253906,-93.90779113769533,-1.4295430183410645,-5.383413314819336,-0.83978271484375,-29.243383407592773,6.970059394836426,-49.67568206787109,-5.521218299865723,-2.095787525177002,6.182724952697754,-60.01975631713867,-39.99541473388672,-107.74402618408205,1.8173284530639648,-3.3120436668396,4.1314849853515625,-165.43003845214844,-72.83935546875,103.1797332763672,7.770773887634277,-0.1142255812883377,0.1817131042480468
2245.7364270687103,131.02566528320312,-59.75406265258789,-48.69603729248047,7.310475349426269,12.965341567993164,3.1312475204467773,-34.07295608520508,-77.42176055908203,-99.32804107666016,-2.898770809173584,-4.81419563293457,-0.7074241638183594,-33.77605056762695,1.3713024854660034,-47.98061752319336,-6.895215034484863,-6.85479736328125,14.50370979309082,-55.90578079223633,-41.59612655639648,-112.04344177246094,-2.1040186882019043,-5.363795280456543,-2.2118349075317383,-165.57810974121094,-73.42463684082031,100.135498046875,3.3011903762817383,0.3473684191703796,0.5968151092529297
2245.7664308547974,129.3463897705078,-55.4678840637207,-61.252872467041016,18.83428192138672,16.45867919921875,6.02839469909668,-28.158493041992188,-77.98291778564453,-104.9934539794922,-1.8874931335449217,-5.844330787658691,-1.4747085571289062,-27.88888931274414,-3.809844970703125,-47.37483978271485,4.028280258178711,4.370864868164063,-0.8266963958740234,-51.22700119018555,-41.55219268798828,-116.0598602294922,-6.857925415039063,-5.067656517028809,-6.215118408203125,-165.3890838623047,-74.00936126708984,96.1989288330078,4.00052547454834,1.362879991531372,-0.2939939498901367
2245.79695558548,137.8590545654297,-47.943355560302734,-77.49585723876953,12.930030822753906,6.711091041564941,4.31483268737793,-21.382413864135746,-77.90924835205078,-111.241455078125,-1.350632905960083,-4.603300094604492,-1.1863718032836914,-28.407495498657227,-8.601635932922363,-45.77717971801758,0.4339946508407593,-1.5633516311645508,5.377547264099121,-47.47329330444336,-41.50912094116211,-119.81243133544922,-10.268444061279297,-6.995118141174316,-4.283049583435059,-163.5940704345703,-75.09033203125,93.98265838623048,1.8273687362670896,4.010896682739258,-0.3065462112426758
2245.8259677886963,143.6153106689453,-38.96685791015625,-92.5430145263672,1.9329659938812256,-1.286560297012329,-2.971745491027832,-15.530890464782717,-77.81937408447266,-115.5642318725586,-0.0926955044269561,-4.517251968383789,-1.0909605026245115,-19.970897674560547,-13.996082305908203,-46.465858459472656,0.4208579063415527,1.1887538433074951,0.2475690841674804,-40.83515548706055,-42.06271743774414,-123.3582992553711,-11.122005462646484,-8.228937149047852,-5.138886451721191,-164.5172882080078,-75.58028411865234,94.23990631103516,3.9305419921875,1.801241159439087,2.7815017700195312
2245.8559675216675,150.23179626464844,-29.42748069763184,-103.2756576538086,-1.5696542263031006,-1.7450628280639648,-9.415153503417969,-13.908883094787598,-78.5494155883789,-114.91737365722656,1.1757521629333496,-4.270059585571289,-1.2742557525634766,-9.962300300598145,-21.519365310668945,-51.43819808959961,5.555112838745117,1.9133563041687007,-2.6037416458129883,-32.37096405029297,-43.67095565795898,-126.72087097167967,-5.9597368240356445,-8.174110412597656,-5.666914939880371,-165.79510498046875,-76.43023681640625,94.49449920654295,3.493635654449463,1.5324242115020752,0.6568603515625
2245.885982275009,157.8700408935547,-21.763517379760746,-110.7710189819336,-6.352730751037598,-1.2899494171142578,-8.419599533081055,-23.37194061279297,-80.47024536132812,-105.21467590332033,-1.4339375495910645,-5.008208274841309,-3.990114688873291,-0.6526838541030884,-31.00562286376953,-62.0306510925293,6.337545394897461,-3.903687000274658,1.3349180221557615,-23.893817901611328,-45.36645126342773,-131.28587341308594,-2.644858360290528,-7.05396842956543,-5.688828468322754,-165.33200073242188,-77.33618927001953,94.3245086669922,0.4966323375701904,1.5336925983428955,-2.0937232971191406
2245.9465188980103,160.4568634033203,-18.52132606506348,-115.86612701416016,-10.959274291992188,-0.618127703666687,-12.590517044067385,-49.58906936645508,-81.83869934082031,-81.11077880859375,-1.6373655796051023,-3.7445149421691895,-3.020906448364258,9.427047729492188,-39.40774154663086,-80.31869506835938,8.77133560180664,-14.790300369262695,7.915802001953125,-14.989360809326172,-46.45939254760742,-137.2277374267578,-2.112831115722656,-3.744985580444336,-4.907766342163086,-164.58096313476562,-77.72917175292969,93.72196197509766,2.660752773284912,2.2150139808654785,-4.575446128845215
2245.976518630981,157.14064025878906,-19.992136001586918,-118.1570816040039,-13.121131896972656,-3.0659213066101074,-16.825878143310547,-84.38123321533203,-81.44402313232422,-49.48292922973633,-0.1189959496259689,-8.132780075073242,-4.294198036193848,17.94378662109375,-42.09455871582031,-101.48202514648438,-4.391797065734863,-20.39193725585937,14.927576065063477,-4.179645538330078,-46.40411376953125,-143.85250854492188,-2.5807933807373047,-1.5620107650756836,-7.224996566772461,-163.5938262939453,-78.03916931152344,93.06260681152344,1.647674798965454,0.9318264722824096,-7.128355979919434
2246.006051301956,153.74803161621094,-26.01735496520996,-117.14566802978516,-12.78877067565918,-11.077346801757812,-13.694461822509766,-105.40846252441406,-80.94529724121094,-29.253461837768555,-5.246814727783203,-2.595434188842773,4.161251068115234,19.473108291625977,-41.23006820678711,-108.2465362548828,-11.95309066772461,-4.63002872467041,1.690922737121582,10.655599594116213,-45.91159057617188,-151.87188720703125,-0.165882408618927,-8.782102584838867,-6.857806205749512,-164.83950805664062,-78.02679443359375,94.04938507080078,0.9119281768798828,1.4158673286437988,-5.133176803588867
2246.03605055809,157.86810302734375,-32.7730712890625,-115.60857391357422,-6.868925094604492,-1.5415749549865725,40.14900207519531,-118.93812561035156,-81.2939224243164,-16.071937561035156,-2.062450885772705,-5.959939002990723,-0.8881797790527344,3.6711370944976807,-37.73423767089844,-97.00638580322266,14.481727600097656,-16.25760269165039,-3.9271087646484375,30.203418731689453,-44.78307342529297,-165.16773986816406,1.519970417022705,-18.596885681152344,-1.0657196044921875,-166.68370056152344,-78.43544006347656,95.0994644165039,-2.0921759605407715,-1.318891525268555,-2.290525436401367
2246.066051244736,162.11184692382812,-30.245330810546875,-110.60528564453124,-16.341270446777344,-4.502924919128418,23.34802627563477,-126.48406982421876,-82.38858795166016,-8.986553192138672,-2.610535144805908,-6.677901268005371,0.013345718383789,-15.658584594726562,-27.15111351013184,-82.11383056640625,-14.003437042236328,-29.507125854492188,10.826675415039062,47.236083984375,-43.90850067138672,176.14784240722656,-3.048408508300781,-23.73847961425781,5.040788650512695,-167.8413848876953,-78.12610626220703,95.83470153808594,0.3460228443145752,-1.7691023349761963,1.1646738052368164
2246.096065044403,166.3668975830078,-19.718425750732425,-106.22547912597656,-7.286384582519531,-20.16161727905273,16.941207885742188,-122.56481170654295,-84.08401489257812,-14.157153129577637,-2.409176826477051,-7.433559417724609,0.2639427185058594,-19.98983764648437,-13.67892360687256,-73.41839599609375,8.875383377075195,-23.81039428710937,-6.410922050476074,61.79012680053711,-45.65121078491211,152.50852966308594,-2.8733506202697754,-25.490760803222656,8.023031234741211,-171.96298217773438,-76.2398452758789,98.41431427001952,2.463047504425049,-2.2368688583374023,6.967866897583008
2246.1265902519226,160.52572631835938,-9.085911750793455,-105.17171478271484,-10.665884017944336,-19.732192993164062,12.323293685913086,-83.02310180664062,-85.73143768310547,-55.69569778442383,-2.811508655548096,-7.626461982727051,2.8813581466674805,-28.44231414794922,-2.8220407962799072,-69.91139221191406,-3.229501724243164,-11.446619033813477,-4.62766170501709,72.12387084960938,-44.69315719604492,124.08860778808594,2.8064699172973637,-22.366912841796875,21.121585845947266,-171.9052276611328,-75.61357116699219,99.0055694580078,1.8982834815979004,1.8500776290893557,7.864124298095703
2246.156590938568,155.61752319335938,-0.376253068447113,-105.24485778808594,-3.070526599884033,-9.491731643676758,-2.036066055297852,-31.99057388305664,-82.53849029541016,-109.36952209472656,-2.2993364334106445,-5.257680892944336,10.597286224365234,-33.66619873046875,1.3101667165756226,-73.23369598388672,-3.386258125305176,1.8093242645263672,-3.0038561820983887,65.62227630615234,-36.4055061340332,101.11937713623048,-1.1175134181976318,-15.367155075073242,24.779621124267575,-173.86561584472656,-74.93575286865234,101.00006103515624,5.284035682678223,2.632094383239746,10.79258918762207
2246.186597585678,156.2249755859375,4.141806602478027,-105.62895965576172,-2.12706995010376,1.728917360305786,-9.343778610229492,-15.735787391662598,-74.64595794677734,-126.89651489257812,3.092246532440185,3.540179252624512,5.458029747009277,-40.10991287231445,-2.349416971206665,-81.2065658569336,-3.9760289192199703,2.94990873336792,0.4790668487548828,47.69697952270508,-27.529237747192383,86.2044906616211,-4.133784294128418,-3.0660557746887207,7.104745864868164,-177.2011260986328,-74.78299713134766,103.4765625,5.167845726013184,5.522663116455078,8.907821655273438
2246.2461216449738,158.3909149169922,2.646125316619873,-105.86893463134766,-1.6632258892059326,5.3627214431762695,-16.012413024902344,-10.837674140930176,-70.87506866455078,-129.29286193847656,-5.081130027770996,-6.257225036621094,-10.859020233154297,-44.56464385986328,-12.085855484008787,-91.45359802246094,-3.1794934272766118,2.6884655952453613,0.57000732421875,32.166748046875,-21.7020320892334,79.04084014892578,-3.5594639778137207,-4.333403587341309,-1.583176612854004,179.9157257080078,-75.04341888427734,105.47109985351562,4.168783187866211,5.932279586791992,6.216157913208008
2246.2761216163635,158.46124267578125,-4.807224273681641,-105.74769592285156,-2.740647792816162,4.172052383422852,-22.11786651611328,-18.11539649963379,-70.44579315185547,-124.3226547241211,-1.8402059078216555,-4.975677490234375,-9.404678344726562,-49.3110580444336,-24.659889221191406,-101.66480255126952,-2.273573398590088,2.010283946990967,-2.284909248352051,21.633996963500977,-16.43052864074707,78.15194702148438,-5.416277885437012,-1.0889661312103271,-6.044626235961914,178.0950927734375,-74.02764892578125,106.00592803955078,2.6143722534179688,-0.7434532642364502,2.5069122314453125
2246.3066658973694,156.1869659423828,-16.936382293701172,-105.1588897705078,-4.227238655090332,-1.2522969245910645,-20.020526885986328,-28.586957931518555,-70.51482391357422,-118.34141540527344,2.687776565551758,-2.8696155548095703,-12.251317977905272,-50.42807769775391,-37.47214126586914,-111.70794677734376,-2.771547794342041,6.229593276977539,2.647007942199707,15.90666389465332,-10.23978042602539,80.20106506347656,-3.736459255218506,0.3995972871780395,-7.84461498260498,175.2506866455078,-72.98116302490234,107.52330780029295,1.302410364151001,-1.5482778549194336,-5.996120452880859
2246.3366639614105,153.63507080078125,-31.853479385375977,-104.04754638671876,-5.62222957611084,-6.149361610412598,-13.756372451782228,-35.19699478149414,-70.51792907714844,-115.6483383178711,2.3948898315429688,-0.8746798038482666,-7.713515281677246,-45.56310272216797,-48.49171447753906,-121.87836456298828,1.2416303157806396,2.4744672775268555,-6.405943870544434,11.946815490722656,-3.5291519165039062,83.52359008789062,-4.750580787658691,1.565119981765747,-8.249637603759766,173.9149169921875,-71.1835708618164,108.28038024902344,-2.381305694580078,-0.5822662115097046,-8.923954010009766
2246.366664648056,151.49496459960938,-48.72114562988281,-102.08580780029295,-3.1270008087158203,-6.62269401550293,-1.3419179916381836,-39.24329376220703,-71.52220153808594,-112.28955841064452,-11.891326904296877,-9.476818084716797,-7.070128440856934,-45.71581268310547,-57.27360534667969,-129.57171630859375,0.8082900047302246,5.0025835037231445,-5.418018341064453,7.648193359375,3.6698853969573975,87.8347396850586,-3.953975200653076,2.4734811782836914,-9.574195861816406,172.69049072265625,-70.6650619506836,108.26692962646484,-0.0738811492919921,2.2352843284606934,-9.999673843383787
2246.3956797122955,147.45132446289062,-67.17585754394531,-97.62232208251952,-0.7894066572189331,-4.695034980773926,11.985536575317385,-50.57501220703125,-73.78204345703125,-104.03965759277344,2.276705741882324,-3.3965983390808105,-2.2253527641296387,-41.81831741333008,-64.96823120117188,-136.7814178466797,2.039856433868408,4.782546043395996,-6.448368072509766,5.60778284072876,11.40009593963623,94.22633361816406,-3.1955723762512207,2.5023350715637207,-12.906120300292969,169.80380249023438,-72.12090301513672,108.85083770751952,1.6215558052062988,-1.05287766456604,-9.958480834960938
2246.426217556,111.63690948486328,-83.92208099365234,-59.12495803833008,6.0822858810424805,1.1788649559020996,19.06772232055664,-64.45111083984375,-75.01014709472656,-92.48686981201172,-0.0984604358673095,1.4666318893432615,0.3228168487548828,-34.840782165527344,-71.91683197021484,-144.8537139892578,2.5378551483154297,0.7765493392944336,-6.420479774475098,7.608935832977295,19.295228958129883,103.86434936523438,-5.440942764282227,7.998536109924316,-13.91547393798828,167.13624572753906,-73.13035583496094,109.6099853515625,0.4429823160171509,-0.1480195820331573,-10.782163619995115
2246.4562170505524,12.980620384216309,-76.43235778808594,43.46916198730469,6.900078773498535,19.80687713623047,9.244552612304688,-82.61714935302734,-74.59807586669922,-77.22571563720703,5.375431060791016,-8.634746551513672,0.2507743835449219,-24.60786819458008,-78.70952606201172,-158.97805786132812,0.8385301828384399,-1.3049819469451904,-5.021048545837402,17.332704544067383,26.87175941467285,116.76602172851562,-13.126020431518556,16.351215362548828,-20.59305953979492,165.00311279296875,-73.89144134521484,108.97151947021484,0.2742772102355957,1.1361479759216309,-8.262958526611328
2246.4862327575684,0.098039299249649,-70.75141906738281,47.75234603881836,10.279993057250977,12.032672882080078,-15.025068283081056,-97.1243667602539,-72.37264251708984,-65.36011505126953,-1.2990102767944336,-9.811798095703123,4.172347068786621,21.613279342651367,-83.38968658447266,149.7613067626953,1.8343608379364011,1.3594200611114502,2.1080799102783203,35.940826416015625,31.50382423400879,124.62838745117188,1.2948014736175537,-6.624284744262695,-22.40011978149414,167.37033081054688,-74.01303100585938,104.08684539794922,2.997750759124756,-3.1602582931518555,0.1002092361450195
2246.5467648506165,3.250056505203247,-72.27001953125,41.480918884277344,11.342060089111328,3.4222841262817383,-7.268064498901367,-97.90855407714844,-70.41758728027344,-64.24024963378906,-2.140092372894287,-5.49195671081543,6.130311965942383,69.6662826538086,-79.76493835449219,95.92273712158205,-1.6159510612487793,2.084692478179932,6.904911041259766,46.90699768066406,33.5488395690918,116.66503143310548,-4.511087417602539,-16.657779693603516,-8.707368850708008,173.89781188964844,-72.92180633544922,96.55699920654295,6.681265830993652,-2.783370018005371,3.32172966003418
2246.576763868332,25.383190155029297,-77.36941528320312,25.59442710876465,15.693138122558594,3.2116951942443848,4.287308692932129,-93.00885772705078,-68.83088684082031,-67.1138916015625,1.8121559619903564,-8.158193588256836,7.111400604248047,76.18876647949219,-78.9707260131836,82.4874496459961,3.7979249954223633,4.501975059509277,9.479965209960938,46.9648323059082,31.556055068969727,102.36737823486328,-13.896528244018556,-3.350531578063965,-12.653312683105469,175.4569091796875,-72.28710174560547,92.53478240966795,-0.3928519487380981,0.5008593797683716,2.881842613220215
2246.60643196106,49.63409805297852,-81.47589874267578,4.366391658782959,-1.990861654281616,2.2899880409240723,4.409359931945801,-81.63935089111328,-67.0572738647461,-70.9375228881836,8.838563919067383,-9.203941345214844,4.954242706298828,77.94967651367188,-82.07404327392578,80.55988311767578,3.808492660522461,1.880037546157837,9.51539421081543,49.03833770751953,24.812274932861328,84.12686920166016,-12.777563095092772,2.3542122840881348,-15.370441436767578,178.2892608642578,-71.4304428100586,88.78538513183594,0.4551988840103149,2.5059499740600586,6.056649208068848
2246.6364312171936,76.09344482421875,-83.62606048583984,-22.112892150878903,-0.0665353387594223,-2.576000690460205,2.8631105422973637,-66.98976135253906,-65.7456283569336,-73.57831573486328,3.17281436920166,-14.475025177001951,2.5582733154296875,84.83802795410156,-84.00445556640625,76.68517303466797,-0.6255708932876587,-3.733279705047608,6.877859115600586,49.49336624145508,13.02823257446289,67.77799987792969,-13.688127517700195,4.503725051879883,-12.660968780517578,-179.9239501953125,-71.1192855834961,86.64956665039062,5.763591766357422,0.4649838209152221,8.96833610534668
2246.6664316654205,105.9990463256836,-84.95745086669922,-53.09587097167969,-4.818957328796387,0.7556852102279663,0.4075794219970703,-69.87857055664062,-67.09539794921875,-59.6795654296875,-7.929255485534668,-32.95246124267578,-6.584733009338379,107.82960510253906,-85.68961334228516,58.50349426269531,1.1238665580749512,-1.949223756790161,6.111502647399902,52.77100372314453,0.0159416608512401,52.64479446411133,2.953543186187744,-0.664189338684082,-13.553579330444336,-178.16273498535156,-71.24565887451172,86.79935455322266,-0.3984951972961426,0.8051072359085083,3.959566116333008
2246.6964552402496,135.5305633544922,-84.80978393554688,-80.36880493164062,0.1021400541067123,-6.324436187744141,6.437614440917969,-87.19187927246094,-69.23014068603516,-35.79872512817383,-1.4081130027770996,-16.179584503173828,-8.549266815185547,146.7105712890625,-86.1759262084961,25.953039169311523,-2.693328380584717,-8.27884292602539,-0.3286857604980469,67.6141357421875,-10.041728019714355,37.25624465942383,-0.9577698707580566,1.1096701622009275,-4.816384315490723,-175.51853942871094,-70.9692153930664,88.47969055175781,-6.377833366394043,-4.195962905883789,2.047704696655273
2246.7259945869446,161.84230041503906,-83.92849731445312,-105.49954986572266,-1.6367697715759275,1.2153029441833496,-0.1457023620605468,-108.60163116455078,-69.95537567138672,-8.853757858276367,-1.3211727142333984,-5.8163347244262695,-15.37291145324707,160.87696838378906,-85.16474914550781,16.780628204345703,-2.8889617919921875,-2.952660083770752,-9.739309310913086,80.21099090576172,-14.863495826721191,23.799177169799805,10.89533805847168,-10.389646530151367,-4.433968544006348,-174.70677185058594,-69.69131469726562,94.34354400634766,-2.921804904937744,-0.2571154236793518,-4.392287254333496
2246.7559955120087,177.13568115234375,-82.1055908203125,-120.94427490234376,1.0677611827850342,0.4394252300262451,0.2367486953735351,-130.8274688720703,-68.0401611328125,16.563474655151367,-4.265917778015137,-1.5622014999389648,-18.77436065673828,153.8571014404297,-84.00972747802734,28.74441146850586,-6.612585067749023,-6.201549530029297,-3.9356279373168954,101.1219482421875,-15.958588600158691,16.536365509033203,-0.6706027984619141,-8.11800765991211,5.5216569900512695,-177.06581115722656,-68.91166687011719,101.47310638427734,2.420811176300049,4.362144470214844,-4.809633255004883
2246.7869911193848,-177.01988220214844,-80.12470245361328,-126.90341186523438,2.4797005653381348,0.1935361623764038,0.239023208618164,-149.81390380859375,-63.64757537841797,34.45953750610352,-6.780060768127441,-2.0870633125305176,-13.704551696777344,140.1416015625,-82.606201171875,41.79575729370117,-3.51731538772583,-1.0359792709350586,3.157766342163086,114.83251953125,-14.48734188079834,13.331257820129396,-8.517805099487305,-11.274951934814451,9.806175231933594,-178.86204528808594,-69.04338073730469,104.7575912475586,0.6985843181610107,2.413145065307617,2.1899242401123047
2246.8465287685394,-173.97743225097656,-78.55046844482422,-128.9911651611328,0.7182637453079224,0.3327291011810303,0.4663972854614258,-163.95591735839844,-59.14641189575195,46.691104888916016,-4.836319923400879,-1.8207206726074217,-8.779991149902344,130.69964599609375,-82.61881256103516,44.86255645751953,-4.280384063720703,-1.1009635925292969,1.868880271911621,122.98493194580078,-14.847564697265623,12.27224349975586,-7.689913749694824,-9.662139892578123,-2.589480400085449,178.3390350341797,-68.81233215332031,108.1923370361328,-2.768406867980957,2.1376500129699707,0.0925636291503906
2246.876528739929,-170.7776641845703,-77.46601104736328,-131.1471710205078,-0.9575352668762208,1.2293670177459717,0.751734733581543,-173.7252960205078,-56.4412956237793,55.27560806274414,-2.682645797729492,0.340819776058197,-5.691830635070801,130.90493774414062,-84.39388275146484,35.415252685546875,-0.6182373762130737,4.57620906829834,-0.3235054016113281,130.84112548828125,-19.223461151123047,8.57925033569336,0.1123539209365844,-13.021917343139648,0.1272764205932617,174.95249938964844,-68.56591033935547,111.1434326171875,-3.529965877532959,2.3791346549987797,1.892374038696289
2246.906673192978,-167.22865295410156,-76.49210357666016,-134.8616485595703,-0.6535860300064087,0.017044648528099,0.0794038772583007,179.7518310546875,-55.6840934753418,61.33139801025391,-2.56125545501709,2.6875619888305664,-2.264782428741455,149.22152709960938,-87.17001342773438,10.93231201171875,-0.2197523713111877,1.426163911819458,-2.6161856651306152,134.58901977539062,-28.59053039550781,2.6446187496185303,4.684416770935059,-7.222406387329102,-1.1135482788085938,171.27720642089844,-69.39364624023438,113.8846664428711,-1.1871302127838137,1.7588694095611572,-0.8716039657592773
2246.9366710186005,-165.48272705078125,-75.10079956054688,-137.25442504882812,-0.0612260103225708,-1.843461036682129,-0.1443252563476562,179.71644592285156,-58.01250457763672,64.90611267089844,-2.6004786491394043,9.71678352355957,1.834566116333008,-113.16080474853516,-88.19561004638672,-94.17484283447266,-2.545273303985596,-0.3899219036102295,-5.802593231201172,139.07186889648438,-42.20677947998047,-6.272288799285889,10.429061889648438,-9.566413879394531,4.462739944458008,165.0733184814453,-69.42488098144531,117.9472885131836,0.4758315682411194,1.247105836868286,-3.062065601348877
2246.966673374176,-167.6400604248047,-72.97148895263672,-135.8333740234375,1.8609771728515625,-3.9667892456054688,-0.7729711532592773,-175.90066528320312,-62.253883361816406,63.573951721191406,-4.763897895812988,6.95281982421875,3.557145118713379,-79.90487670898438,-84.22504425048828,-135.10781860351562,-0.2044023275375366,3.97911548614502,-8.564775466918945,147.26980590820312,-58.96866607666016,-17.46018409729004,17.010841369628906,-8.924671173095703,13.657049179077148,157.86656188964844,-69.278076171875,122.31673431396484,-1.8498272895812988,0.9795682430267334,-4.556802749633789
2246.996686697006,-172.16546630859375,-69.88399505615234,-130.9890899658203,-0.3507579565048218,-1.849895715713501,-0.6067047119140625,-174.7508087158203,-62.22190475463867,56.69406509399414,2.286418437957764,-13.621429443359377,17.969024658203125,-82.19825744628906,-76.0228500366211,-140.4085235595703,-0.1291900873184204,2.923888683319092,-4.735430717468262,179.4336700439453,-70.73674774169922,-41.9701042175293,3.657136917114258,-7.237600326538086,14.112655639648438,151.01126098632812,-69.28931427001953,126.01944732666016,-0.6565229892730713,1.5546200275421145,-7.420137405395508
