Timestamp,D4:22:CD:00:05:5D_EulerX,D4:22:CD:00:05:5D_EulerY,D4:22:CD:00:05:5D_EulerZ,D4:22:CD:00:05:5D_FreeAccX,D4:22:CD:00:05:5D_FreeAccY,D4:22:CD:00:05:5D_FreeAccZ,D4:22:CD:00:05:5E_EulerX,D4:22:CD:00:05:5E_EulerY,D4:22:CD:00:05:5E_EulerZ,D4:22:CD:00:05:5E_FreeAccX,D4:22:CD:00:05:5E_FreeAccY,D4:22:CD:00:05:5E_FreeAccZ,D4:22:CD:00:05:6B_EulerX,D4:22:CD:00:05:6B_EulerY,D4:22:CD:00:05:6B_EulerZ,D4:22:CD:00:05:6B_FreeAccX,D4:22:CD:00:05:6B_FreeAccY,D4:22:CD:00:05:6B_FreeAccZ,D4:22:CD:00:05:6E_EulerX,D4:22:CD:00:05:6E_EulerY,D4:22:CD:00:05:6E_EulerZ,D4:22:CD:00:05:6E_FreeAccX,D4:22:CD:00:05:6E_FreeAccY,D4:22:CD:00:05:6E_FreeAccZ,D4:22:CD:00:49:AA_EulerX,D4:22:CD:00:49:AA_EulerY,D4:22:CD:00:49:AA_EulerZ,D4:22:CD:00:49:AA_FreeAccX,D4:22:CD:00:49:AA_FreeAccY,D4:22:CD:00:49:AA_FreeAccZ
2336.6710093021397,-179.63575744628906,-65.68687438964844,-136.49270629882812,-1.479210376739502,-1.1681766510009766,1.160029411315918,-145.91921997070312,-54.311065673828125,-44.04084396362305,8.05889892578125,-15.427019119262695,12.356111526489258,-47.54253768920898,-71.86972045898438,-52.429195404052734,-7.39810848236084,5.435896873474121,-4.849854469299316,46.94821166992188,-22.1329345703125,-7.611572265625,32.56260681152344,-14.402982711791992,4.773606300354004,154.16793823242188,-72.14515686035156,147.09214782714844,0.8448605537414551,1.03727388381958,-4.356544494628906
2336.674009084701,175.7550506591797,-61.27703475952149,-129.24322509765625,-2.4448132514953613,2.536313533782959,-1.2080392837524414,-146.7693634033203,-49.46841049194336,-44.50141525268555,-0.423016607761383,-15.160011291503906,4.766597747802734,-53.90805816650391,-70.52094268798828,-41.74550247192383,-8.62907600402832,7.835918426513672,-2.7153148651123047,48.27053451538086,-18.74402618408203,1.1579560041427612,25.640491485595703,-0.2667832374572754,3.204048156738281,150.98046875,-72.59526062011719,152.19937133789062,1.0774333477020264,3.7443361282348633,4.200374603271484
2336.6770091056824,173.57737731933594,-57.579689025878906,-120.2987060546875,1.5100018978118896,5.267078399658203,-6.059005737304688,-148.652587890625,-45.7940559387207,-43.57754135131836,6.925085067749023,-7.361496925354004,1.6042728424072266,-54.51784133911133,-66.56179809570312,-30.689098358154297,-6.406575202941895,7.935712814331055,7.065128326416016,55.74802780151367,-11.118617057800291,5.5019850730896,21.462810516357425,7.485912322998047,1.821516036987305,149.693603515625,-73.14730834960938,155.77230834960938,-1.9545295238494875,-1.4562819004058838,5.276497840881348
2336.680009126663,174.15945434570312,-54.842315673828125,-110.82202911376952,6.144796371459961,-1.387425661087036,1.810386657714844,-145.6483612060547,-45.65534973144531,-44.22542572021485,0.1866913139820099,-3.696723461151123,0.5322141647338867,-48.62525177001953,-59.0566291809082,-25.537240982055664,6.285651206970215,14.841423034667969,15.940406799316406,62.2161865234375,-4.2943949699401855,10.67569065093994,10.838945388793944,16.64715576171875,1.795395851135254,150.38153076171875,-73.96417236328125,157.81478881835938,-1.1154842376708984,-1.2987878322601318,4.216166496276856
2336.7555537223816,176.6647491455078,-63.63150405883789,-123.52619934082033,1.1883726119995115,-1.0001327991485596,-0.0765247344970703,-85.10009765625,-88.40370178222656,-151.121337890625,-1.733813762664795,-3.3671092987060547,12.459299087524414,-83.64148712158203,-39.292030334472656,-56.0748405456543,4.511504173278809,3.0055370330810547,-3.665065288543701,-55.91600036621094,-57.69080352783203,-174.56668090820312,-2.776336193084717,-0.2978745698928833,14.035688400268556,-100.6772232055664,-85.45179748535156,24.968395233154297,3.1797800064086914,1.684380054473877,-1.8093585968017576
2336.785552740097,179.3364715576172,-61.13171005249024,-124.1809539794922,1.710897445678711,0.457568883895874,-0.3710126876831054,-6.775935649871826,-76.6443862915039,127.3948974609375,2.6162166595458984,9.21479034423828,18.86822509765625,-76.71563720703125,-34.99723434448242,-64.57416534423828,1.053035020828247,0.6689316034317017,-2.916645050048828,-49.21268844604492,-54.09506988525391,-177.54229736328125,-14.596744537353516,-0.0287030860781669,6.361789703369141,-58.22230911254883,-88.36003875732422,-17.2181396484375,5.6777544021606445,-1.5272178649902344,-1.4243431091308594
2336.846092939377,179.84249877929688,-59.06808471679688,-122.2977066040039,-0.8061760663986206,1.866652488708496,1.1778059005737305,-58.58643341064453,-77.8989028930664,-179.58035278320312,-13.941717147827148,1.968489646911621,9.988449096679688,-78.01189422607422,-29.65610885620117,-68.02934265136719,1.304656744003296,-1.4910590648651123,5.191376686096191,-40.92234802246094,-71.56633758544922,171.1802978515625,-13.168621063232422,6.459804534912109,9.82634162902832,99.0205078125,-84.7783203125,-173.47799682617188,-1.5329477787017822,-4.790571212768555,0.1389846801757812
2336.876090049744,179.32818603515625,-57.986358642578125,-119.8304214477539,-2.7788219451904297,2.959693431854248,1.0490036010742188,-117.96186065673828,-82.19676971435547,-119.86603546142578,-6.737922668457031,1.4856767654418943,8.921154022216797,-77.5833740234375,-23.309988021850582,-69.34687805175781,4.890251159667969,-7.1784772872924805,16.971996307373047,-11.78737449645996,-85.01885986328125,143.1399688720703,-7.836920738220215,10.419477462768556,10.95391082763672,148.0249481201172,-81.7112045288086,139.9127197265625,-5.129430770874023,-3.440342903137207,6.746095657348633
2336.9051043987274,-179.93734741210938,-57.41297149658203,-119.84467315673828,-2.6714563369750977,1.0136513710021973,0.1058378219604492,-163.63328552246094,-80.32733917236328,-74.0730972290039,-1.2626044750213623,2.3531322479248047,3.435791015625,-71.91085052490234,-16.933757781982422,-66.95984649658203,1.372488021850586,-13.620317459106444,28.123218536376957,140.59262084960938,-88.78582000732422,0.2014793753623962,-13.626993179321287,3.1365208625793457,6.963638305664063,176.61456298828125,-78.4508056640625,114.10761260986328,1.7022335529327393,0.5059287548065186,6.36842155456543
2336.93563246727,-177.36572265625,-57.48468399047852,-122.9780044555664,-1.6399524211883545,3.5845766067504883,1.898402214050293,176.996337890625,-79.63716888427734,-57.935333251953125,-1.4622032642364502,1.559635877609253,-5.525261878967285,-64.09019470214844,-10.429587364196776,-59.95904922485352,2.249207019805908,-13.571371078491213,13.15554428100586,-152.59878540039062,-82.53166198730469,-58.947784423828125,-15.137090682983398,1.0225892066955566,-8.254215240478516,-175.08609008789062,-75.76142120361328,107.9193878173828,4.570216178894043,1.569023847579956,10.643444061279297
2336.9656331539154,-174.5920867919922,-59.289588928222656,-127.4553451538086,0.5280483961105347,2.7114758491516118,4.396455764770508,156.57652282714844,-82.483154296875,-42.153953552246094,1.8860015869140625,3.035923957824707,-9.141176223754885,-59.66421127319336,-3.014709711074829,-49.49733352661133,0.6151928901672363,-12.620353698730469,12.805723190307615,-136.15963745117188,-70.03861999511719,-73.423583984375,-8.423517227172852,-15.496217727661133,-6.060798645019531,-172.2212371826172,-75.1244888305664,107.30996704101562,-1.1134896278381348,0.0525215193629264,12.786857604980469
2336.9956469535828,-171.75592041015625,-64.02816772460938,-131.46395874023438,2.740206241607666,1.2311732769012451,7.394935607910156,94.04661560058594,-86.09469604492188,17.748138427734375,6.505460739135742,2.6763272285461426,-9.136877059936523,-53.6479606628418,2.849905252456665,-39.36641693115234,0.1387996673583984,-11.083114624023438,4.789456367492676,-133.4463348388672,-57.231929779052734,-79.30809783935547,-4.826641082763672,-8.723413467407227,-4.790121078491211,-169.45704650878906,-76.73350524902344,106.20824432373048,-3.862679958343506,0.7880163192749023,5.929343223571777
2337.02530002594,-168.31578063964844,-71.21368408203125,-135.31396484375,-8.869874954223633,-1.2681519985198977,9.447824478149414,24.14529228210449,-80.78194427490234,88.8245849609375,4.158749580383301,3.37751579284668,-6.3100433349609375,-47.46137237548828,7.331008434295654,-31.228553771972656,4.632241249084473,-12.656604766845703,0.4110498428344726,-130.8052215576172,-46.25461196899414,-85.20929718017578,-0.72269606590271,-16.056838989257812,-0.2926883697509765,-159.58377075195312,-78.7960433959961,98.99513244628906,0.3204808831214905,0.221081793308258,0.9412841796875
2337.0562925338745,-160.87779235839844,-79.37110137939453,-145.8936767578125,-11.37787628173828,-6.89772891998291,1.8061494827270508,10.998172760009766,-71.74929809570312,103.27503967285156,-1.0021593570709229,5.25217342376709,-5.198102951049805,-42.432716369628906,12.850862503051758,-26.495380401611328,10.283136367797852,-9.640295028686523,-3.4723777770996094,-118.1595687866211,-42.51572036743164,-86.90314483642578,3.3280816078186035,-6.311215400695801,-7.503514289855957,-143.0808563232422,-79.6922378540039,84.80068969726562,-2.7097201347351074,-0.0989527553319931,-5.925624847412109
2337.086306333542,-167.3336944580078,-83.04013061523438,-140.9582977294922,15.074913024902344,3.5106678009033203,-12.803949356079102,4.660549640655518,-62.893497467041016,108.70093536376952,-2.6595582962036133,6.470749855041504,-5.872271537780762,-36.76334762573242,20.808670043945312,-25.115453720092773,13.560518264770508,-6.541650772094727,-6.024300575256348,-95.28765869140624,-45.274749755859375,-85.3912353515625,-0.4127957820892334,-3.405516624450684,-11.962717056274414,-131.8519744873047,-79.57240295410156,74.21865844726562,5.449077606201172,1.0961410999298096,-12.094213485717772
2337.1459324359894,174.3470458984375,-80.28437042236328,-118.276123046875,4.204771041870117,2.641517162322998,-6.215349197387695,-2.015782833099365,-55.38964080810547,112.31558990478516,-4.508176803588867,7.50856876373291,-6.781068801879883,-28.03978538513184,30.626066207885746,-25.481903076171875,13.205802917480469,-4.497690200805664,-9.447254180908203,-76.51679229736328,-50.51238250732422,-84.41561126708984,0.78615403175354,-4.5280609130859375,-12.942741394042969,-131.8212432861328,-80.06959533691406,73.35517883300781,2.593230724334717,0.2169788777828216,-12.489137649536133
2337.175932168961,166.216064453125,-76.12712097167969,-108.36553192138672,-2.779231548309326,-4.6940507888793945,-8.559005737304688,-11.78436279296875,-50.30027389526367,115.5478286743164,-11.820125579833984,9.38718605041504,-7.914327621459961,-16.460721969604492,40.71083831787109,-25.067562103271484,9.901639938354492,-3.8351526260375977,-9.0013427734375,-66.41588592529297,-55.952884674072266,-84.62943267822266,3.835237503051758,-7.957596778869629,-11.953254699707031,-133.9061737060547,-81.20161437988281,74.64908599853516,-4.2537336349487305,-2.050947666168213,-6.829485893249512
2337.2059502601624,162.95980834960938,-75.29788970947266,-103.6548080444336,4.296545028686523,-2.110319137573242,-12.35150909423828,-24.431867599487305,-48.93595504760742,118.49161529541016,-12.309213638305664,11.37477684020996,-16.304180145263672,-3.662451267242432,48.38718032836914,-22.718076705932617,2.749581813812256,-2.089929580688477,-7.530893325805664,-64.07779693603516,-60.20576095581055,-86.71758270263672,6.160680770874023,-4.93194580078125,-8.951135635375977,-128.9615478515625,-83.0145034790039,70.5835189819336,-5.686824798583984,-1.580471754074097,-9.32944679260254
2337.23548579216,163.80001831054688,-72.93814849853516,-102.71504974365234,0.8850605487823486,11.581613540649414,2.032958984375,-32.3587532043457,-50.9007682800293,119.77407836914062,-8.516958236694336,13.208332061767578,-14.37320327758789,4.077466011047363,51.423736572265625,-23.085987091064453,-4.210002899169922,3.618001937866211,-1.030172348022461,-62.98115539550781,-61.60711669921875,-91.60945129394533,4.081684112548828,-2.2981719970703125,-6.5617218017578125,-120.45511627197266,-84.10661315917969,65.0760726928711,-1.9099936485290527,-1.2606444358825684,-10.210844039916992
2337.266487121582,165.1894073486328,-70.03675842285156,-99.75984954833984,-9.08248519897461,0.9935280084609984,-3.281546115875244,-31.39383125305176,-55.86368179321289,119.5843734741211,-9.692962646484377,14.4361572265625,-13.45206069946289,4.899150371551514,51.84151077270508,-37.07239532470703,-4.376677513122559,3.482123374938965,-3.5068979263305664,-58.77638626098633,-59.90818405151367,-97.56890869140624,2.3662710189819336,-0.6889342069625854,-4.813803672790527,-112.03308868408205,-85.01068878173828,59.34101104736328,-1.06622576713562,2.1498851776123047,-3.3268423080444336
2337.295501232147,162.6786651611328,-67.84193420410156,-96.57796478271484,1.951094627380371,-6.357138633728027,0.4094371795654297,-30.05689239501953,-63.22665786743164,122.59095764160156,-8.79592514038086,-5.326299667358398,9.675579071044922,-1.193961501121521,47.17699813842773,-65.244384765625,-1.637321949005127,1.7584292888641355,-13.738887786865234,-51.06951904296875,-56.81496047973633,-102.14966583251952,1.9486684799194336,-3.5889272689819336,-3.708916664123535,-106.96674346923828,-85.43263244628906,57.108680725097656,-2.332715511322021,0.2015512287616729,1.558942794799805
2337.326029062271,163.43923950195312,-67.5577163696289,-93.11970520019533,2.321305274963379,-2.291586875915528,7.846179962158203,-31.893367767333984,-70.02533721923828,123.0206298828125,-5.824906349182129,-6.797449111938477,5.9046831130981445,-6.5204668045043945,35.61862564086914,-93.8620147705078,-8.343284606933594,-22.355262756347656,-28.831710815429688,-41.97781753540039,-53.83224487304688,-104.03019714355467,-0.31098073720932,-9.828943252563477,-0.7219390869140625,-100.07989501953124,-85.65210723876953,53.4014778137207,-3.6352386474609375,1.348379135131836,6.6895751953125
2337.356104850769,161.00608825683594,-68.77061462402344,-88.09882354736328,-8.605724334716797,-3.4486207962036133,13.93459129333496,-36.813907623291016,-75.26260375976562,125.75460052490234,12.478172302246094,0.617742657661438,19.558914184570312,3.5293221473693848,31.76629447937012,-119.22669219970705,-6.90179443359375,-9.467229843139648,-21.43096923828125,-34.50716018676758,-52.41926574707031,-103.01883697509766,2.7342658042907715,-15.51932144165039,1.0595359802246094,-84.31432342529297,-85.91836547851562,40.20674133300781,-3.5958738327026367,1.8923618793487549,8.490535736083984
2337.3851795196533,155.7447509765625,-68.21765899658203,-80.84345245361328,-4.2412824630737305,-3.437509059906006,-0.1097173690795898,-50.33491516113281,-80.20618438720703,137.0084686279297,0.0310338772833347,4.06789493560791,-3.141639709472656,-22.98380279541016,33.92618942260742,-118.0651626586914,16.014068603515625,14.924901962280272,-5.8619489669799805,-31.27760124206543,-53.47853469848633,-101.4077377319336,5.259098052978516,-9.05706787109375,0.0374383926391601,-79.4395751953125,-85.76131439208984,36.768341064453125,-1.9911482334136963,0.7718219757080078,5.477628707885742
2337.4458215236664,148.2930145263672,-66.76775360107422,-73.43180084228516,2.671754837036133,-1.612155199050903,2.7310028076171875,-54.4341049194336,-84.29449462890625,141.6366729736328,-2.0843634605407715,6.304007530212402,-0.431370735168457,-38.07505416870117,36.84433364868164,-107.283935546875,-21.939922332763672,-10.13910675048828,6.116495132446289,-32.85146713256836,-56.604190826416016,-99.31536102294922,5.029083251953125,-8.431259155273438,-2.738877773284912,-92.02669525146484,-86.31900024414062,48.714317321777344,4.589564323425293,2.8948354721069336,-1.6283416748046875
2337.475821018219,140.36183166503906,-65.31195831298828,-67.53813934326172,1.8506193161010744,-1.3145978450775146,0.1547794342041015,-52.71156311035156,-87.60624694824219,139.58921813964844,-0.4002059698104858,3.999631404876709,0.9506902694702148,-20.391090393066406,35.63298034667969,-99.14683532714844,-5.320285797119141,4.75277042388916,-6.788599014282227,-40.3927001953125,-59.9446907043457,-95.32433319091795,4.50738525390625,-6.853419303894043,-0.7170934677124023,-108.98971557617188,-87.08590698242188,63.270694732666016,2.015720844268799,-1.1968021392822266,1.6142292022705078
2337.505834341049,131.69564819335938,-63.77204895019531,-63.65220642089844,5.090010643005371,-2.2064828872680664,0.4476985931396484,60.29337310791016,-89.18627166748047,25.937719345092773,-1.408797025680542,2.992483615875244,0.5278749465942383,-15.971359252929688,31.38814926147461,-84.46675872802734,-8.811117172241211,-3.402587890625,-3.763690948486328,-51.23608016967773,-61.00218963623047,-90.66063690185548,3.522237777709961,-6.355484962463379,2.0784454345703125,-135.06494140625,-86.60223388671875,86.15425872802734,4.368670463562012,2.3748645782470703,3.081488609313965
2337.535417318344,122.81204986572266,-62.539794921875,-61.79384231567383,11.307220458984377,-2.3478927612304688,-1.0514345169067385,85.55504608154297,-87.1626205444336,0.9323986172676086,-2.755415439605713,3.283675193786621,-0.1695632934570312,-12.261964797973633,20.782062530517575,-71.97282409667969,-9.773653030395508,0.2306756973266601,-6.074750900268555,-58.9044075012207,-60.449256896972656,-87.67745208740234,3.092984676361084,-5.439669609069824,1.8346900939941408,-147.93226623535156,-85.3399887084961,94.00897979736328,10.008909225463867,4.848038673400879,-0.2449655532836914
2337.565417289734,122.99543762207033,-58.95975875854492,-68.4215087890625,12.075876235961914,9.269882202148438,9.015644073486328,84.14611053466797,-85.81240844726562,2.1744372844696045,-2.178913116455078,2.496133804321289,0.0322446823120117,-5.452154636383057,4.195795059204102,-61.13739776611328,-9.308137893676758,-9.34095573425293,-7.985091209411621,-60.844215393066406,-60.06172561645508,-85.48246002197266,3.99774169921875,-7.40845775604248,-0.9040422439575196,-155.10763549804688,-84.20958709716797,95.30996704101562,7.202175140380859,-2.8922219276428223,2.6466827392578125
2337.596431016922,129.58151245117188,-51.00389862060547,-79.15880584716797,16.41399383544922,3.464783191680908,8.803117752075195,74.58112335205078,-84.09811401367188,12.603352546691896,-1.357396125793457,-0.998199224472046,3.3755483627319336,6.732508659362793,-13.573238372802734,-49.13021469116211,1.8883748054504397,-16.389278411865234,-9.661792755126951,-63.96519470214844,-60.61087417602539,-85.12216186523438,0.8502545356750488,-8.687366485595703,-1.8023138046264648,-159.03111267089844,-84.40423583984375,95.15145874023438,-2.470613479614258,-2.599674701690674,2.982548713684082
2337.626037836075,136.25665283203125,-42.3098030090332,-90.77506256103516,7.78577995300293,-1.513960599899292,3.127628326416016,65.02847290039062,-81.01384735107422,29.21813201904297,1.5750732421875,4.977489471435547,-2.420628547668457,15.132951736450195,-28.55377578735352,-33.22076797485352,18.959922790527344,-1.245009422302246,-0.8657302856445312,-66.49758911132812,-62.44471740722656,-86.28227233886719,-2.9177732467651367,-5.128076553344727,-0.9117832183837892,-158.98666381835938,-84.90653228759766,93.07891082763672,0.8196591138839722,0.9427154064178468,-0.6513710021972656
2337.656045436859,141.2301483154297,-34.21718215942383,-101.45543670654295,2.730762004852295,-5.21121883392334,-4.989327430725098,75.96882629394531,-81.71430969238281,19.74954605102539,-1.525517463684082,-0.0620273053646087,-1.520061492919922,2.13629150390625,-37.4417724609375,-14.651867866516112,7.664877891540527,20.75093460083008,3.930006980895996,-63.44881820678711,-64.85814666748047,-88.73499298095703,-2.629161834716797,-3.163980007171631,-1.9105892181396484,-160.90447998046875,-85.22459411621094,93.48494720458984,5.055120468139648,2.8293824195861816,-0.0402765274047851
2337.686044692993,148.31504821777344,-27.42091941833496,-110.73479461669922,-1.7634637355804443,-1.780778169631958,-11.622884750366213,103.81410217285156,-83.364013671875,-9.684748649597168,-0.4310974478721618,1.2829716205596924,-4.205002784729004,-23.0393009185791,-38.309364318847656,-1.0722036361694336,-4.502358436584473,3.2172980308532715,0.0838937759399414,-55.65524673461914,-67.63284301757812,-92.91980743408205,-2.0627965927124023,-3.6146864891052246,-5.698811531066895,-171.87802124023438,-85.32999420166016,102.2130889892578,2.678590774536133,0.599393367767334,-2.384006977081299
2337.74599647522,155.93060302734375,-22.781984329223636,-118.64552307128906,-5.023719787597656,1.6087539196014404,-16.283058166503906,140.42520141601562,-82.59464263916016,-50.14945602416992,-1.64158034324646,3.362340450286865,-6.244300842285156,-31.49489021301269,-35.95986557006836,2.8066837787628174,-3.7235841751098633,-1.8072967529296875,2.222789764404297,-47.531227111816406,-70.89424896240234,-98.16416931152344,-1.213737964630127,-4.5746049880981445,-7.584007263183594,-179.5201873779297,-84.58905029296875,108.06998443603516,-1.6109375953674316,1.9936473369598389,-4.184028625488281
2337.775996446609,162.77969360351562,-21.063554763793945,-126.1576919555664,-9.44289207458496,2.188772678375244,-12.90631866455078,160.00390625,-79.23147583007812,-74.27723693847656,-6.883028030395508,4.879619598388672,-3.1861472129821777,-29.337257385253903,-35.90144348144531,1.987515926361084,-1.2525691986083984,2.438024044036865,-8.41105842590332,-42.02809143066406,-73.98760223388672,-102.75135803222656,0.4765377640724182,-4.420923233032227,-7.483650207519531,-179.7197265625,-83.07210540771484,107.65869140625,-0.9820802211761476,-0.8952980041503906,-5.22044563293457
2337.8060104846954,164.6391143798828,-22.736217498779297,-132.9476318359375,-6.641139984130859,1.8812992572784424,-11.46379280090332,173.53517150878906,-74.34276580810547,-89.31895446777344,-3.1884765625,-4.583250045776367,8.051973342895508,-29.53088760375977,-41.32001876831055,-0.0536977872252464,1.3537275791168213,1.9126007556915283,-8.067285537719727,-40.59062576293945,-76.40383911132812,-105.89974975585938,1.863468170166016,-4.830057144165039,-6.894448280334473,-178.6970977783203,-82.46781921386719,106.86280059814452,0.8366297483444214,-0.2331438064575195,-6.841388702392578
2337.835768699646,165.74557495117188,-27.22457695007324,-139.40077209472656,-10.102251052856444,-0.8076484203338623,-11.91389274597168,-179.19375610351562,-69.12330627441406,-99.46566772460938,-0.1290472149848938,3.7003073692321777,0.6235618591308594,-34.09455108642578,-53.163230895996094,-2.2232797145843506,5.444245338439941,-0.5420851707458496,10.871633529663086,-41.18692779541016,-78.42439270019531,-109.0534439086914,1.760040283203125,-4.665498733520508,-4.758018493652344,179.78135681152344,-82.25215148925781,108.03254699707033,3.7440977096557617,0.6601182222366333,-6.123852729797363
2337.865767717361,165.77500915527344,-28.32422637939453,-145.56736755371094,4.657306671142578,22.029346466064453,52.97189331054688,-176.999755859375,-66.42262268066406,-103.49966430664062,0.8449904918670654,2.6328892707824707,2.1450023651123047,-27.84464263916016,-66.32982635498047,-11.115468978881836,0.6117758750915527,1.8579397201538088,29.90851211547852,-25.13195037841797,-79.77040100097656,-126.2449722290039,2.936621189117432,-6.691478729248047,4.979330062866211,177.38514709472656,-83.03092193603516,108.04151916503906,4.134926795959473,0.7456175088882446,-0.3442878723144531
2337.895770311356,164.51112365722656,-26.29895782470703,-146.75352478027344,-22.546226501464844,-3.684483528137207,-2.396251678466797,-176.86973571777344,-65.68407440185547,-104.80608367919922,1.9952218532562256,2.2817745208740234,2.2852582931518555,4.907900810241699,-69.27069091796875,-30.83918571472168,16.287818908691406,-4.473374366760254,26.048324584960938,31.70127868652344,-76.72782897949219,-175.11294555664062,1.6971004009246826,-20.33558654785156,16.188186645507812,-178.8095245361328,-83.51415252685547,101.33314514160156,-2.346241950988769,-2.994112014770508,2.205254554748535
2337.926304578781,163.54249572753906,-23.063724517822266,-144.28842163085938,-17.191486358642578,-5.906850814819336,10.032896041870115,-178.37368774414062,-66.8485107421875,-103.85617065429688,0.0750091522932052,3.8126354217529297,2.1006593704223637,11.14773941040039,-62.69816589355469,-23.964672088623047,25.848529815673828,5.281660079956055,12.163999557495115,64.83203125,-63.43094253540039,158.7127227783203,18.329551696777344,-17.618179321289062,27.3864860534668,177.77122497558594,-84.0213851928711,103.19976043701172,6.275199890136719,-0.0852760076522827,7.850307464599609
2337.9553048610687,163.63233947753906,-18.55421638488769,-141.98196411132812,-11.51573371887207,-5.357233047485352,11.872207641601562,179.4303741455078,-70.02650451660156,-102.59877014160156,-0.8132386207580566,3.945601463317871,2.3766965866088867,-3.327086925506592,-55.09779739379883,-12.830574989318848,16.848262786865234,3.8054494857788086,12.88563346862793,66.6789779663086,-46.09768295288086,152.29409790039062,14.542661666870115,-10.54753303527832,20.41068649291992,173.4348602294922,-82.64360809326172,105.0400848388672,-1.1013212203979492,1.6123862266540527,8.000389099121094
2337.98530459404,164.52980041503906,-13.953186988830566,-141.37550354003906,-11.462360382080078,-1.0957887172698977,8.547513961791992,176.26722717285156,-75.24195098876953,-101.26028442382812,0.347118079662323,3.2094497680664062,3.62309455871582,-23.59335327148437,-45.6983528137207,-8.312251091003418,8.402793884277344,-10.40143585205078,2.921669006347656,59.097015380859375,-28.20584297180176,148.0673370361328,9.836959838867188,-2.480769157409668,14.508661270141602,166.21047973632812,-83.69283294677734,110.33939361572266,1.058129072189331,3.2206311225891118,7.871850967407227
2338.0458467006683,161.06936645507812,-11.040773391723633,-142.94598388671875,-8.845457077026367,1.802210092544556,0.8904571533203125,164.68023681640625,-82.73704528808594,-89.62911987304688,-2.558445453643799,-4.240274429321289,11.184558868408203,-32.04256057739258,-38.18181228637695,-11.524935722351074,5.334470748901367,-8.19025993347168,-2.817156791687012,47.48815536499024,-11.680560111999512,144.3040771484375,0.0608411207795143,-1.413245439529419,6.313596725463867,156.83419799804688,-82.98432159423828,117.82681274414062,5.382295608520508,2.908766746520996,9.703351974487305
2338.075847387314,157.36785888671875,-11.39297580718994,-144.87881469726562,-5.49107551574707,4.005392074584961,-4.798290252685547,73.03372955322266,-86.74250030517578,8.89941692352295,1.0798301696777344,2.468668937683105,-2.9202322959899902,-35.52822494506836,-35.38968276977539,-17.61370849609375,1.8126437664031985,-6.089073181152344,-7.272109031677246,39.93655776977539,1.6673017740249634,140.22576904296875,-1.4859285354614258,-6.200899124145508,-3.4413976669311523,151.32191467285156,-81.78145599365234,121.22264862060548,3.4696836471557617,2.863955497741699,4.908808708190918
2338.105860233307,156.0153350830078,-14.861161231994627,-145.7249755859375,-3.5108113288879395,3.396153926849365,-11.670408248901367,52.60268020629883,-87.4050521850586,30.67643165588379,3.829330921173096,14.40728759765625,-5.683327674865723,-39.606204986572266,-38.11155319213867,-23.92509078979492,-1.541031837463379,-3.3804116249084477,-4.566814422607422,47.05686950683594,12.352761268615724,135.52735900878906,1.1057584285736084,-4.491290092468262,-8.252510070800781,148.6000518798828,-79.62960815429688,121.68812561035156,0.8453948497772217,1.7839488983154297,1.8611879348754885
2338.135396957397,155.65309143066406,-21.344139099121094,-145.54957580566406,-3.080654621124268,2.641819477081299,-14.740827560424805,-160.5442352294922,-86.32475280761719,-120.04959106445312,-8.162294387817383,-1.2515060901641846,-9.514606475830078,-42.46560287475586,-44.06106948852539,-30.14943504333496,-0.8394628763198853,-1.174297571182251,-3.985933303833008,63.48759841918945,22.40160179138184,131.12696838378906,-7.756660461425781,-10.503589630126951,-7.069729804992676,144.5589599609375,-77.30056762695312,124.02022552490234,0.2646868228912353,-0.4125987291336059,-2.92725133895874
2338.165393590927,154.12173461914062,-30.44900703430176,-144.5101318359375,-4.011892318725586,1.0054190158843994,-13.943368911743164,-153.22933959960938,-84.78793334960938,-132.9320526123047,-3.155453681945801,-2.7629194259643555,-11.946805953979492,-43.95760345458984,-51.32632827758789,-35.30641555786133,-1.876109600067139,-1.4102816581726074,-6.167047500610352,62.379024505615234,27.478702545166016,129.2224884033203,-6.904833793640137,-6.62891960144043,-10.144624710083008,141.76910400390625,-75.78099822998047,125.94487762451172,-1.219846487045288,-1.745835304260254,-6.662509918212891
2338.195407629013,150.3497314453125,-41.82499313354492,-141.97964477539062,-4.497406005859375,-0.5663166046142578,-10.585031509399414,-151.1221923828125,-84.23925018310547,-137.7101287841797,-4.516739845275879,2.183179378509521,-4.073956489562988,-42.58167266845703,-58.604286193847656,-39.00950241088867,-3.2819085121154785,0.0077828168869018,-5.180026054382324,46.19613265991211,28.002302169799805,131.0225830078125,0.8997864723205566,-3.5419135093688965,-14.017383575439451,140.9154052734375,-75.47177124023438,127.89923858642578,-1.8842778205871584,-1.9787869453430176,-8.196588516235352
2338.2260313034058,143.7026824951172,-54.781341552734375,-137.05886840820312,-3.7019290924072266,-1.7953689098358154,-4.6847333908081055,-146.22105407714844,-83.17608642578125,-144.74322509765625,-1.8361945152282717,-0.4167097210884094,-1.088038444519043,-39.09832382202149,-64.75250244140625,-41.35401153564453,-3.162494659423828,2.167563915252685,-6.036220550537109,41.0821418762207,27.16285896301269,137.81631469726562,3.1764769554138184,2.1830410957336426,-13.839593887329102,138.6980438232422,-76.18179321289062,131.08717346191406,0.4842659831047058,1.0158636569976809,-9.155414581298828
2338.256037712097,128.5877227783203,-68.83444213867188,-126.01303100585938,0.5420444011688232,-1.91625452041626,5.785040855407715,-140.79100036621094,-81.22698974609375,-153.9415740966797,-1.3435657024383545,-0.665245771408081,5.847117424011231,-39.74595260620117,-69.474609375,-40.875221252441406,-0.687199592590332,5.40330696105957,-6.106417655944824,45.32851791381836,24.311662673950195,150.98806762695312,-18.917293548583984,3.742680072784424,-14.323358535766602,132.91976928710938,-77.90270233154297,135.7664337158203,4.333231925964356,2.5743608474731445,-7.646718978881836
2338.28603720665,95.03518676757812,-79.0295181274414,-89.07742309570312,8.797908782958984,-5.27030086517334,12.302923202514648,-129.5298614501953,-80.1250228881836,-166.91204833984375,-0.9503288269042968,-4.171779632568359,9.734617233276367,-46.44164276123047,-71.69010162353516,-40.67687225341797,-4.495966911315918,8.228067398071289,-1.0058393478393557,49.92577362060547,22.37417984008789,164.313720703125,-30.243480682373047,5.035701751708984,-22.801551818847656,127.4188995361328,-79.26315307617188,138.9988250732422,4.404441833496094,-0.1593113541603088,-6.999197006225586
2338.345585823059,67.90991973876953,-78.95762634277344,-49.05387115478516,30.267135620117188,-3.181881904602051,-6.906858444213867,-112.55353546142578,-79.307373046875,178.828125,-4.076864242553711,-2.999843120574951,7.195987701416016,-46.07810592651367,-74.20616149902344,-44.34895324707031,-4.754626274108887,4.589616775512695,-2.316558361053467,72.3748779296875,26.59052276611328,161.4899139404297,14.724401473999023,-8.961359024047852,-9.020095825195312,132.65806579589844,-79.0967025756836,132.8736114501953,-0.115307867527008,-2.4682788848876958,1.4359025955200195
2338.375587701797,97.0096206665039,-78.26683044433594,-67.75013732910156,15.572671890258787,15.105329513549805,3.286263465881348,-89.35037994384766,-78.61227416992188,163.2008056640625,-10.440797805786133,0.0709622353315353,4.276729583740234,-39.6577033996582,-77.96568298339844,-51.27378845214844,-0.7054775953292847,1.4272947311401367,-1.6858386993408203,79.24662780761719,30.56425666809082,148.078125,-9.951810836791992,-3.981374740600586,-2.497626781463623,137.72515869140625,-79.79785919189453,130.12684631347656,0.7039797306060791,-2.559401512145996,4.320032119750977
2338.4056000709534,121.36542510986328,-76.47161865234375,-93.74937438964844,-9.14006233215332,-15.526182174682615,3.0221471786499023,-85.64422607421875,-77.98077392578125,170.1417999267578,-10.395235061645508,34.11212158203125,-2.3364458084106445,-36.103702545166016,-82.0567626953125,-59.464500427246094,0.3346397876739502,-2.4230661392211914,7.496868133544922,71.79131317138672,31.6165771484375,127.86634826660156,-14.078548431396484,4.953512191772461,-17.506248474121094,145.5791778564453,-78.90129089355469,124.22760772705078,7.377825736999512,-3.008886814117432,4.763777732849121
2338.435216188431,138.46664428710938,-74.97062683105469,-107.56659698486328,-1.1935358047485352,-3.0947723388671875,8.11459732055664,-119.1615753173828,-75.06879425048828,-151.96975708007812,-8.009199142456055,23.635055541992188,5.67512321472168,-35.98785400390625,-84.62670135498047,-65.13764953613281,-4.866898536682129,0.9815350770950316,12.906789779663086,69.8596420288086,27.753665924072266,108.09066009521484,-8.551891326904297,-3.9371490478515625,-7.260809898376465,154.09060668945312,-77.83172607421875,118.58421325683594,-3.357377529144287,-2.057497024536133,1.917705535888672
2338.4653708934784,151.70330810546875,-73.11560821533203,-116.1478042602539,-4.531149864196777,8.883611679077148,4.954800605773926,-140.81541442871094,-67.54724884033203,-125.12934112548828,-3.950437545776367,7.360788345336914,0.7046079635620117,-53.49721908569336,-84.84398651123047,-45.48591995239258,-0.1982855796813964,0.1484971642494201,5.891221046447754,65.8236083984375,19.28535842895508,89.47590637207031,-5.722036361694336,-0.3808790445327759,-10.56972885131836,162.13172912597656,-76.91353607177734,117.2373275756836,-7.908421516418457,-5.332090377807617,-1.3320837020874023
2338.4954619407654,158.65936279296875,-70.35673522949219,-122.38837432861328,0.7860623598098755,1.3528363704681396,1.2882413864135742,-147.63526916503906,-58.61601638793945,-110.65128326416016,-0.9344874620437622,-0.3555168509483337,-5.266064643859863,-66.19327545166016,-81.63355255126953,-25.91650009155273,6.291741371154785,-1.202014446258545,-1.1886396408081057,64.93952941894531,8.341894149780273,74.48353576660156,20.189239501953125,-1.87183690071106,-11.497926712036133,168.07498168945312,-75.26488494873047,116.8936767578125,-1.2730543613433838,6.0824384689331055,-1.793487548828125
2338.5259997844696,162.81381225585938,-67.92555236816406,-127.623291015625,1.0115914344787598,-0.1491212546825409,0.5278148651123047,-151.81463623046875,-49.506080627441406,-101.33687591552734,0.1237660497426986,-1.491886854171753,-9.371295928955078,-72.94568634033203,-76.49988555908203,-16.590473175048828,1.2323846817016602,-4.12800407409668,-0.4505243301391601,70.15579223632812,-3.5456743240356445,65.15328216552734,22.423961639404297,-2.5098519325256348,-5.768587112426758,170.834228515625,-74.37104034423828,116.08602142333984,3.102735042572021,6.026885986328125,-1.0165090560913086
2338.5559997558594,166.04356384277344,-65.48770141601562,-130.3841552734375,1.9971110820770264,-2.4141812324523926,-0.6152029037475586,-157.5455322265625,-40.84651184082031,-94.55775451660156,1.0439960956573486,-0.249327003955841,-11.837041854858398,-74.8597640991211,-72.81391906738281,-13.778874397277832,-3.2919344902038574,-3.6815881729125977,-0.4998788833618164,79.67974853515625,-15.547561645507812,58.302490234375,4.684942245483398,0.5028687715530396,3.787588119506836,169.9883270263672,-73.11248779296875,116.9023895263672,1.8078703880310056,1.6649022102355957,-0.2872085571289062
2338.585999727249,168.8922119140625,-63.44623565673828,-131.37164306640625,1.2316997051239014,-0.7605699300765991,0.7102241516113281,-163.8937225341797,-34.08514404296875,-89.33719635009766,1.6543986797332764,0.4867014288902282,-11.644105911254885,-71.6561050415039,-71.23236083984375,-15.444917678833008,-2.567230224609375,-2.2702512741088867,-0.616551399230957,89.76974487304688,-21.915313720703125,48.3794059753418,-2.226157188415528,-6.466304779052734,13.845632553100586,168.0149688720703,-72.59764862060547,119.28958129882812,-3.725406646728516,2.433611869812012,2.766524314880371
2338.6152560710907,170.9000701904297,-62.03439331054688,-131.75209045410156,-1.4780750274658203,2.647397994995117,1.439652442932129,-169.4860076904297,-30.602495193481445,-84.90892028808594,2.7625231742858887,-0.3975188732147217,-10.760852813720703,-66.86448669433594,-70.77420806884766,-20.52975273132324,0.8582990169525146,-2.328052520751953,0.0364198684692382,104.0756607055664,-21.393198013305664,37.03411102294922,-1.812272310256958,-8.617115020751953,4.342158317565918,164.80979919433594,-72.65779113769531,122.26143646240234,-3.651156425476074,2.588908672332764,3.244548797607422
2338.676257133484,174.0101318359375,-61.27679061889648,-133.33865356445312,-0.1883615255355835,1.8384158611297607,1.4738140106201172,-174.79116821289062,-31.0051326751709,-80.95832061767578,1.8018152713775637,-2.072230815887451,-7.98294734954834,-69.04253387451172,-69.57195281982422,-25.08147430419922,-4.082222938537598,-0.972975730895996,4.853848457336426,117.6344223022461,-17.44910430908203,28.252660751342773,-0.220223069190979,-10.612186431884766,2.9322338104248047,161.7810821533203,-73.05597686767578,126.03238677978516,-3.931114196777344,2.4285597801208496,3.176163673400879
2338.7062714099884,177.3817138671875,-61.03297805786133,-134.9933319091797,0.4393502473831177,0.7839083671569824,1.152141571044922,-179.76341247558594,-35.93741989135742,-76.50566864013672,3.2710132598876958,-5.165266036987305,-4.7901716232299805,-69.2301254272461,-68.17120361328125,-29.801239013671875,-4.242914199829102,0.3583776950836181,4.378240585327148,126.19544982910156,-13.43492603302002,22.76590156555176,1.7741639614105225,-9.435319900512695,-0.9873781204223632,158.67420959472656,-73.3635482788086,129.876220703125,-2.5127315521240234,2.8644843101501465,3.827057838439941
2338.735803842545,179.57334899902344,-61.37065887451172,-136.34664916992188,-0.1816610395908355,-0.079808086156845,0.4742040634155273,-178.80111694335938,-46.23518753051758,-70.14631652832031,8.122087478637695,-11.951404571533203,-0.2208995819091797,-68.26646423339844,-66.93603515625,-33.32353210449219,-2.542369842529297,2.016322612762451,1.1442031860351562,131.58917236328125,-12.3361234664917,19.03282928466797,2.381202220916748,-5.486010551452637,-6.0692243576049805,154.19252014160156,-73.62862396240234,134.33575439453125,-0.6628553867340088,2.142317295074463,1.4673690795898438
2338.7658042907715,-178.74488830566406,-62.60072708129883,-138.43043518066406,-0.2761520147323608,-1.1038408279418943,0.0039472579956054,-173.88047790527344,-54.01572036743164,-65.70671844482422,-6.315961837768555,7.084450721740723,30.06632232666016,-69.11941528320312,-65.81233215332031,-36.14506912231445,-0.3888251781463623,5.638753890991211,-1.5168533325195312,136.3289794921875,-16.229188919067383,15.567108154296877,3.857830047607422,-3.1002726554870605,-3.40028715133667,149.91177368164062,-73.97071838378906,138.18609619140625,-1.8433914184570312,0.5584859848022461,-0.6833229064941406
2338.795818090439,-178.1148223876953,-64.07240295410156,-140.2571258544922,-0.6500152349472046,-0.5835579633712769,-0.3739423751831054,-177.74427795410156,-56.57455062866211,-65.52367401123047,-1.0028154850006104,-7.932526588439941,-4.308349609375,-68.91382598876953,-64.50639343261719,-40.45002365112305,-1.5439057350158691,5.747448921203613,-2.188437461853028,139.27890014648438,-24.47418594360352,10.696537017822266,7.188571929931641,-2.220430374145508,1.4167356491088867,146.8773651123047,-74.35273742675781,140.88494873046875,-2.563211441040039,-0.2001200914382934,-4.195468902587891
2338.8253366947174,-178.67935180664062,-64.02586364746094,-140.68699645996094,-1.533585548400879,-0.5219417810440063,-0.5154800415039062,175.6697998046875,-57.92824172973633,-64.66117095947266,6.007087707519531,-7.745256423950195,5.496227264404297,-67.64607238769531,-62.615631103515625,-44.64603042602539,-0.2694213986396789,2.327895164489746,-5.673539161682129,137.90245056152344,-35.04393768310547,4.0424628257751465,13.139892578125,-6.867849349975586,7.761201858520508,144.49488830566406,-74.37586975097656,142.52352905273438,-0.272922158241272,0.1049011051654815,-6.450057029724121
2338.8553369045258,178.84197998046875,-62.2900505065918,-139.22251892089844,-3.304882526397705,-1.716484785079956,-1.1810083389282229,174.91561889648438,-57.337100982666016,-67.74232482910156,7.051230430603027,-8.001590728759766,8.661577224731445,-67.33057403564453,-59.88647079467773,-47.198997497558594,-3.226879119873047,3.169888496398926,-3.739260196685791,129.42575073242188,-42.953643798828125,-2.244274854660034,14.813119888305664,-7.559947967529297,12.102157592773438,142.69020080566406,-73.60157775878906,143.4448699951172,-0.5947256088256836,-1.5110292434692385,-7.387391090393066
2338.8856723308563,176.00653076171875,-59.07707977294922,-134.21087646484375,-3.0797486305236816,1.8324520587921145,-1.2365951538085938,178.94700622558594,-53.43864822387695,-72.12165069580078,-1.5479745864868164,-14.329360961914062,12.82766342163086,-64.61457061767578,-55.773197174072266,-48.94419860839844,-2.989616870880127,2.2718749046325684,-3.088229179382324,116.33431243896484,-42.91130065917969,-4.457069396972656,17.858295440673828,6.275152206420898,3.648346900939941,140.5157012939453,-72.3779296875,145.96331787109375,-2.7751474380493164,-0.6669487953186035,-3.6701674461364746
2338.9162213802338,175.54580688476562,-55.243045806884766,-127.70375061035156,2.86841344833374,1.4668347835540771,-2.13785171508789,-172.49891662597656,-46.59012985229492,-77.14938354492188,-6.32866096496582,-15.208600997924805,18.421619415283203,-64.19170379638672,-48.555397033691406,-48.88605499267578,-6.150652885437012,2.30883264541626,5.037961006164551,111.8651351928711,-38.511810302734375,-2.631072759628296,27.012752532958984,4.544228553771973,-1.0688238143920898,137.88450622558594,-71.49945831298828,149.27333068847656,0.4134148955345154,2.2417054176330566,0.1444044113159179
2338.9762213230133,175.79295349121094,-52.18428421020508,-124.60187530517578,6.5630388259887695,-5.244036674499512,2.0931997299194336,-167.79446411132812,-38.798614501953125,-79.62652587890625,-3.9518613815307617,-16.721725463867188,14.698040008544922,-65.09329986572266,-37.413116455078125,-46.84504318237305,-5.224246025085449,-1.629753589630127,14.28970718383789,119.95597839355467,-37.29315948486328,4.7587971687316895,14.361324310302734,14.43280792236328,0.8019647598266602,136.99913024902344,-71.31966400146484,150.86285400390625,0.4459843039512634,3.0466132164001465,1.5226974487304688
