Timestamp,D4:22:CD:00:05:5D_EulerX,D4:22:CD:00:05:5D_EulerY,D4:22:CD:00:05:5D_EulerZ,D4:22:CD:00:05:5D_FreeAccX,D4:22:CD:00:05:5D_FreeAccY,D4:22:CD:00:05:5D_FreeAccZ,D4:22:CD:00:05:5E_EulerX,D4:22:CD:00:05:5E_EulerY,D4:22:CD:00:05:5E_EulerZ,D4:22:CD:00:05:5E_FreeAccX,D4:22:CD:00:05:5E_FreeAccY,D4:22:CD:00:05:5E_FreeAccZ,D4:22:CD:00:05:6B_EulerX,D4:22:CD:00:05:6B_EulerY,D4:22:CD:00:05:6B_EulerZ,D4:22:CD:00:05:6B_FreeAccX,D4:22:CD:00:05:6B_FreeAccY,D4:22:CD:00:05:6B_FreeAccZ,D4:22:CD:00:05:6E_EulerX,D4:22:CD:00:05:6E_EulerY,D4:22:CD:00:05:6E_EulerZ,D4:22:CD:00:05:6E_FreeAccX,D4:22:CD:00:05:6E_FreeAccY,D4:22:CD:00:05:6E_FreeAccZ,D4:22:CD:00:49:AA_EulerX,D4:22:CD:00:49:AA_EulerY,D4:22:CD:00:49:AA_EulerZ,D4:22:CD:00:49:AA_FreeAccX,D4:22:CD:00:49:AA_FreeAccY,D4:22:CD:00:49:AA_FreeAccZ
1343.6390450000763,173.7312774658203,-55.4399642944336,-93.67632293701172,0.1917504072189331,1.942667007446289,2.8816089630126958,-168.2974853515625,9.108006477355955,-69.9499282836914,10.550113677978516,-2.6068925857543945,-8.852546691894531,-53.71329498291016,8.339298248291016,-51.25780487060547,-2.709315776824951,-0.8671975135803223,6.397129058837891,94.95021057128906,6.193367004394531,6.807236194610596,6.759611129760742,7.895847320556641,-4.712635040283203,149.69271850585938,-69.7927017211914,135.609619140625,-5.906351089477539,1.3525142669677734,6.911073684692383
1343.6975283622742,176.08863830566406,-59.887332916259766,-121.30182647705078,-2.2310338020324707,-0.6384569406509399,7.975715637207031,-164.0213165283203,-46.08808135986328,-56.12836456298828,-1.2301805019378662,1.2259809970855713,-7.439046859741211,-26.464147567749023,9.68761157989502,-32.89602279663086,-9.625608444213867,-14.860130310058594,10.264760971069336,123.57579803466795,2.8755223751068115,-28.354984283447266,-0.7220698595046997,-4.773584365844727,-4.111234664916992,162.6808319091797,-77.09221649169922,124.17848205566406,-6.621891021728516,-0.3879755735397339,3.644900321960449
1343.7525279521942,175.44032287597656,-66.44891357421875,-118.94232177734376,-2.9722976684570312,-13.742889404296877,8.157857894897461,-165.6984100341797,-47.33825302124024,-56.34405899047852,-0.0324527397751808,3.2907042503356934,-7.406887054443359,-6.245871543884277,15.685997009277344,-35.51031494140625,-7.338504791259766,-9.86638069152832,-14.696603775024414,120.18666076660156,-3.3282856941223145,-23.822904586791992,2.9767656326293945,-16.82925033569336,0.2306795120239257,-145.03189086914062,-80.53227996826172,77.6115951538086,-1.2058050632476809,-1.2928354740142822,-1.5419893264770508
1343.7822306156158,172.90843200683594,-74.09957885742188,-119.51913452148438,-6.321660041809082,-8.185585021972656,-1.3953208923339844,-159.9375762939453,-50.0933723449707,-61.84771347045898,3.269495010375977,8.06600570678711,-6.273899078369141,8.448275566101074,22.3232364654541,-42.44172668457031,-0.0400017499923706,4.386429786682129,-15.094667434692385,117.61418914794922,-8.83523178100586,-14.117292404174805,0.651909589767456,-5.479817390441895,0.4095172882080078,-119.17061614990234,-76.61644744873047,58.10209655761719,1.150545597076416,-1.2322003841400146,-5.439144134521484
1343.8122293949127,164.9715118408203,-78.74862670898438,-115.73489379882812,10.463687896728516,-3.902085304260254,-11.948740005493164,-144.20469665527344,-51.86136245727539,-74.44148254394531,2.515594005584717,6.6125030517578125,-3.265585899353028,14.755864143371582,28.129568099975582,-52.4719352722168,5.056577682495117,2.840737819671631,-9.49199104309082,110.63401794433594,-8.976386070251465,-5.585258483886719,1.5006470680236816,-2.646731376647949,-5.045049667358398,-116.58675384521484,-73.5445556640625,59.11094284057617,6.411216735839844,3.033560276031494,-8.756853103637695
1343.847267627716,163.9097137451172,-79.85454559326172,-106.10482788085938,-0.7229253053665161,-8.507926940917969,-6.492403984069824,-130.24851989746094,-52.2421760559082,-88.4430923461914,-1.3549258708953855,0.4023038744926452,-3.4373903274536133,11.72107982635498,32.10736846923828,-64.82435607910156,4.245964050292969,-0.6096687316894531,-11.73813247680664,105.73551177978516,-6.858705520629883,0.9400615692138672,0.7002880573272705,2.037519931793213,-14.057151794433594,-117.54620361328124,-73.79817199707031,60.09753036499024,2.982821464538574,0.0894375890493393,-11.532154083251951
1343.8726081848145,159.84463500976562,-82.54707336425781,-95.84100341796876,-1.792707920074463,-4.3133392333984375,-8.936134338378906,-122.98280334472656,-52.674652099609375,-100.20137786865234,-7.1261491775512695,0.393989622592926,-4.87705135345459,0.5344424843788147,33.24945068359375,-79.86608123779297,1.209378957748413,-4.94649600982666,-15.39381980895996,106.80274200439452,-5.705453395843506,5.778537273406982,-2.068100452423096,1.8750669956207275,-13.19333839416504,-114.1493911743164,-74.82665252685547,56.720970153808594,-2.50913667678833,-0.8816484212875366,-9.831830978393556
1343.902161836624,140.94546508789062,-85.35932159423828,-72.46927642822266,5.401591300964356,7.463784217834473,-10.465953826904297,-123.13053894042967,-52.24903106689453,-108.00659942626952,-9.200469970703123,0.023059606552124,-4.551447868347168,-14.431851387023926,31.053953170776367,-97.75128173828124,-6.8184309005737305,-15.666217803955078,-17.906661987304688,106.45513153076172,-6.193729877471924,9.236379623413086,-1.3575613498687744,1.1582181453704834,-7.16588306427002,-107.95956420898438,-75.1784896850586,51.98586654663086,-1.1558034420013428,-0.5440551042556763,-7.749731063842773
1343.9322340488434,142.0142822265625,-82.07957458496094,-68.34426879882812,0.9153963327407836,36.29046630859375,-4.43717098236084,-127.34342956542967,-51.25897979736328,-113.04950714111328,-7.864127159118652,-1.42122483253479,-2.7568283081054688,-27.46600914001465,25.28204345703125,-114.8493423461914,-15.740989685058594,-21.62845993041992,-20.973201751708984,103.07217407226562,-7.782372951507568,11.53871250152588,0.9353455305099488,-0.2536765933036804,-7.025930404663086,-101.05613708496094,-75.1612777709961,47.04109954833984,0.1329341530799865,-0.9069925546646118,-7.156688690185547
1343.9672656059265,150.29286193847656,-77.2719497680664,-73.5868911743164,-0.0529779344797134,-1.3209781646728516,-2.8089895248413086,-129.746337890625,-51.29026412963867,-116.0873031616211,-11.503210067749023,0.8978854417800903,-3.0386924743652344,-42.21086502075195,23.439434051513672,-117.30669403076172,14.287288665771484,11.65298843383789,-26.47603225708008,101.08580017089844,-10.347493171691896,12.185379028320312,1.656620740890503,0.2748326063156128,-4.57332706451416,-93.43020629882812,-75.22816467285156,42.1197395324707,-0.6946518421173096,-0.8863315582275391,-4.671274185180664
1344.0226876735687,153.0501251220703,-72.56787109375,-75.16614532470703,5.115206718444824,-6.030300140380859,2.46401309967041,-133.91903686523438,-51.745384216308594,-115.1415023803711,-13.508697509765623,2.04362154006958,-2.13124942779541,-58.52359008789063,30.78895568847656,-106.6393585205078,-15.786922454833984,0.6195693016052246,7.446565628051758,92.35359954833984,-14.263165473937988,8.095854759216309,3.802332878112793,-1.7887310981750488,0.7040748596191406,-90.9719696044922,-75.70079803466797,40.57656478881836,-0.0600834116339683,0.2204707264900207,0.2218341827392578
1344.0276985168457,154.28712463378906,-68.54080200195312,-74.40760040283203,-5.00071907043457,1.4045960903167725,5.744091987609863,-142.2957000732422,-51.08845138549805,-109.2970199584961,-11.9466552734375,-2.570758819580078,-2.717421054840088,-56.447383880615234,40.52617645263672,-90.25337982177734,-13.698760986328123,-21.01934814453125,-14.20408058166504,80.87950134277344,-19.537771224975582,1.9513760805130005,14.70637321472168,-12.18230438232422,-1.845921516418457,-92.8642349243164,-76.89924621582031,41.51322937011719,4.263422966003418,-1.75042986869812,2.5268354415893555
1344.082701444626,152.0378875732422,-66.43339538574219,-71.37813568115234,-4.622805595397949,1.7911756038665771,6.253776550292969,-151.27796936035156,-47.74786376953125,-100.38539123535156,-16.41204833984375,1.2892324924468994,3.4266586303710938,-37.3856201171875,47.5734977722168,-66.90646362304688,-1.1885762214660645,-14.699419021606444,-20.801212310791016,80.775146484375,-24.30988311767578,0.037866149097681,13.504083633422852,-10.954410552978516,9.325021743774414,-88.81595611572266,-78.2959213256836,36.14973449707031,-2.7313709259033203,-3.6596035957336426,6.349607467651367
1344.1123208999634,147.84292602539062,-64.86356353759766,-66.87474822998047,0.2439295053482055,-1.3196532726287842,4.822512626647949,-158.68533325195312,-44.34620666503906,-92.69319152832033,5.541569709777832,-19.701271057128903,-5.098332405090332,-21.30741310119629,48.36170196533203,-43.3842887878418,2.2074413299560547,-3.425065517425537,-15.72691535949707,77.25035858154297,-28.50640296936035,-0.0261524934321641,11.974260330200195,-3.092360019683838,4.432187080383301,-83.00527954101562,-79.38570404052734,30.085369110107425,-4.985165596008301,-4.355151176452637,6.530519485473633
1344.1423389911652,141.6347198486328,-63.74490737915039,-61.47266006469727,0.3528987765312195,2.342945098876953,2.182069778442383,-162.31201171875,-43.10846710205078,-87.68983459472656,3.4530558586120605,-8.379411697387695,8.628654479980469,-19.26869201660156,45.80229949951172,-28.54981803894043,-2.5301671028137207,4.364814758300781,1.6761760711669922,75.63323974609375,-29.54720687866211,-1.2844544649124146,11.724365234375,-0.2281675040721893,-4.586956024169922,-83.45996856689453,-79.71925354003906,31.23006629943848,3.586489677429199,-0.9996106624603271,1.9319801330566408
1344.1726331710815,132.74771118164062,-63.68058013916016,-56.2546272277832,3.060972213745117,0.3810828924179077,2.543664932250977,-170.5122528076172,-40.50698471069336,-83.92996978759766,5.761722564697266,-2.428466796875,-0.8003625869750977,-29.48535919189453,43.60059356689453,-23.738466262817383,-5.851855278015137,16.46601104736328,15.444604873657228,76.11767578125,-28.67487525939941,-2.9552483558654785,10.36086082458496,0.6497756242752075,-4.70909309387207,-91.20521545410156,-79.38160705566406,37.280460357666016,6.023018836975098,0.9112313985824584,-1.8547334671020508
1344.2030818462372,121.58216094970705,-64.98475646972656,-50.5225715637207,6.629850387573242,-3.0060033798217773,3.3063440322875977,-175.95913696289062,-39.0252685546875,-80.09175872802734,1.466592788696289,-17.57488250732422,1.2647371292114258,-49.11899948120117,42.072662353515625,-26.704051971435547,-5.858968734741211,21.84600067138672,12.188554763793944,74.9732666015625,-28.12798118591309,-3.855502128601074,6.9818267822265625,1.4637916088104248,-3.6058545112609854,-99.25221252441406,-78.5466537475586,41.327091217041016,7.688677787780762,1.201425552368164,0.0837965011596679
1344.23308467865,107.22527313232422,-66.36871337890625,-49.19863128662109,18.1610107421875,5.239348411560059,-3.468566417694092,-177.8889617919922,-37.386844635009766,-77.22233581542969,-1.806183099746704,-5.052828788757324,-1.0271387100219729,-63.37993621826172,37.862060546875,-31.800752639770508,-11.031904220581056,13.284467697143556,4.676072120666504,76.01224517822266,-27.532426834106445,-3.860846757888794,6.142273902893066,3.355233192443848,-3.0090537071228027,-104.32858276367188,-77.75922393798828,40.82735443115234,8.709342956542969,-0.2512053847312927,-0.5574064254760742
1344.267481803894,113.42310333251952,-64.60588836669922,-66.1143798828125,23.13585662841797,18.49813461303711,4.9764251708984375,-179.37318420410156,-37.089969635009766,-74.98033905029297,0.6653801202774048,-5.84007453918457,0.1281270980834961,-74.64655303955078,31.032480239868164,-30.97016716003418,-1.3067364692687988,3.009979724884033,13.012723922729492,78.82875061035156,-27.095115661621094,-2.541566133499145,8.327606201171875,2.4146437644958496,-0.4979238510131836,-109.82593536376952,-76.55632019042969,41.35309982299805,6.5628767013549805,-0.9536685943603516,3.493210792541504
1344.298665523529,128.40408325195312,-58.05389022827149,-89.88664245605469,15.821542739868164,5.488837242126465,4.978886604309082,-179.74221801757812,-38.18721771240234,-72.47393035888672,1.3208394050598145,-5.752060890197754,-0.8890419006347656,-77.15556335449219,24.43796730041504,-25.31696319580078,0.9518928527832032,6.055288314819336,12.1800537109375,81.893310546875,-26.268707275390625,0.0424426384270191,6.734701156616211,4.650334358215332,1.8123369216918943,-108.29115295410156,-76.69044494628906,36.64354705810547,3.789931774139404,3.79732608795166,1.7059240341186523
1344.327663898468,139.9066619873047,-48.10660552978516,-108.72662353515624,4.100770950317383,-3.9020371437072754,1.2275724411010742,-179.59205627441406,-39.13278198242188,-70.24546813964844,0.8721532821655273,-5.348748207092285,-1.2698259353637695,-76.16522216796875,17.803380966186523,-15.605879783630373,3.886300563812256,0.744013786315918,3.255518913269043,85.01954650878906,-24.7283992767334,2.6776793003082275,5.692401885986328,2.908488273620605,-2.613892078399658,-108.72799682617188,-76.24526977539062,36.27424240112305,1.4586288928985596,3.341975688934326,-0.2065610885620117
1344.3821885585785,148.5518035888672,-37.2774772644043,-121.25701904296876,-3.0568976402282715,-5.530946731567383,-4.648241996765137,-178.15158081054688,-39.63613510131836,-68.48239135742188,0.0885815322399139,-6.946568489074707,-2.1306729316711426,-77.03926849365234,10.775595664978027,-3.2462716102600098,8.090999603271484,-0.3400373458862304,-1.5751829147338867,89.50711822509766,-22.30877685546875,4.562875747680664,2.9181933403015137,1.5696794986724854,-5.111117362976074,-110.5618133544922,-75.91844177246094,38.59466552734375,2.7926621437072754,1.049177646636963,-0.6969871520996094
1344.4127469062803,156.4504852294922,-27.5048828125,-128.774169921875,-6.382331848144531,-2.351514339447021,-10.03663444519043,-176.58616638183594,-38.96876525878906,-67.87371826171875,-1.762730598449707,-4.7734222412109375,-3.278902053833008,-77.23697662353516,2.340930938720703,8.655787467956543,10.315916061401367,2.124645709991455,-3.235157966613769,94.00125885009766,-19.53712654113769,5.742490768432617,1.0526223182678225,0.8706746101379395,-5.690073013305664,-115.9915542602539,-75.98638916015625,44.83533477783203,4.458446502685547,1.1385776996612549,-3.508052349090576
1344.4424407482147,163.87359619140625,-20.70797348022461,-133.2351837158203,-5.421736717224121,-0.595645546913147,-9.711931228637695,-176.91317749023438,-37.05017852783203,-68.97793579101562,-1.543989181518555,-3.8583483695983887,-3.169257164001465,-74.76998138427734,-7.53734016418457,18.381107330322266,8.881908416748047,4.190234184265137,-6.463324546813965,96.8043441772461,-17.185470581054688,6.628360271453857,0.6045665740966797,-0.3140391707420349,-5.872867584228516,-121.2491226196289,-76.00178527832031,50.23893356323242,3.480982780456543,0.4885149598121643,-4.112841606140137
1344.4724481105804,165.8677520751953,-17.883384704589844,-136.6582794189453,-9.083463668823242,-1.694603443145752,-13.77541732788086,-178.3128204345703,-33.64967727661133,-71.87422180175781,-2.307193756103516,-3.719481468200684,-4.144640922546387,-71.67777252197266,-18.918535232543945,26.067848205566406,6.884592056274414,7.224172592163086,-6.3177642822265625,99.18961334228516,-15.300076484680176,7.596357345581055,1.657289981842041,-1.8883605003356931,-3.2721266746521,-122.79003143310548,-76.51780700683594,51.852012634277344,1.359200954437256,0.4767998456954956,-4.533714294433594
1344.5025038719175,165.24290466308594,-20.70403861999512,-138.27891540527344,-11.983366012573242,-7.756560325622559,-19.85355758666992,179.87496948242188,-29.74472999572754,-75.41786193847656,-2.430747032165528,-5.405842781066895,-2.434919834136963,-68.6268310546875,-30.52214241027832,31.250150680541992,8.856847763061523,11.477312088012695,-1.3402957916259766,101.5710678100586,-13.384380340576172,9.11581039428711,5.435369491577148,-3.1025075912475586,3.2394113540649414,-123.68733978271484,-76.79292297363281,52.97350692749024,2.007211685180664,1.406921625137329,-5.04941463470459
1344.5324895381927,167.22064208984375,-24.09018325805664,-138.2080535888672,1.5305862426757812,4.584887504577637,53.76016998291016,179.28009033203125,-26.825199127197266,-77.7864761352539,2.044795036315918,-8.131006240844727,0.2551193237304687,-64.34528350830078,-39.19010925292969,32.3492546081543,12.618644714355469,12.009014129638672,5.379219055175781,101.56353759765624,-9.648247718811035,12.287320137023926,12.340749740600586,-3.5726237297058105,13.364021301269531,-128.93536376953125,-76.28038787841797,57.81628036499024,3.870838165283203,0.2931421399116516,-2.119508743286133
1344.5670068264008,172.41387939453125,-26.52765274047852,-137.0255126953125,-18.059947967529297,-15.398128509521484,-1.8556113243103027,178.62139892578125,-25.07138442993164,-78.6054458618164,3.623915672302246,-4.136447906494141,0.190526008605957,-61.891597747802734,-40.299072265625,30.856306076049805,17.11481475830078,13.059539794921877,6.150274276733398,98.90148162841795,-1.8181792497634888,15.264402389526367,21.027042388916016,-5.178934097290039,22.54110336303711,-133.45079040527344,-76.63664245605469,61.48346328735352,1.354938268661499,-1.9275894165039065,2.170271873474121
1344.5974798202517,173.52447509765625,-26.578039169311523,-134.99917602539062,-28.88468170166016,-7.419821739196777,12.527544021606444,178.00234985351562,-25.02529525756836,-77.15836334228516,1.0518152713775637,-8.014841079711914,-1.0985336303710938,-69.24612426757812,-31.25793838500977,28.00729179382324,24.10966110229492,7.593479156494141,17.920032501220703,92.82538604736328,11.677042007446287,14.965813636779783,17.120601654052734,-8.149534225463867,23.39683151245117,-140.17611694335938,-76.59147644042969,67.17122650146484,3.618887424468994,-1.9766199588775637,7.788448333740234
1344.6274755001068,168.47694396972656,-22.601694107055664,-133.728759765625,-18.25171661376953,-4.510025978088379,13.935308456420898,177.9873046875,-27.22777938842773,-73.93745422363281,0.7211357355117798,-6.061017990112305,1.020917892456055,-74.80620574951172,-18.445674896240234,20.822507858276367,24.324817657470703,3.102206230163574,12.939519882202148,77.12663269042969,28.48298072814941,6.633172988891602,19.381732940673828,-1.761780023574829,9.07249641418457,-145.8365936279297,-75.53858947753906,71.67411041259766,-0.0895844399929046,-0.4520710110664367,5.396523475646973
1344.6820006370544,167.90628051757812,-16.970401763916016,-134.03074645996094,-10.878061294555664,-6.563694953918457,10.948331832885742,177.51356506347656,-30.311447143554688,-71.63306427001953,0.2348645031452179,-4.601456642150879,1.618425369262695,-82.64683532714844,-8.407480239868164,10.656280517578123,9.75542449951172,-2.9574503898620605,3.521674156188965,51.05054473876953,40.23600387573242,-10.6774263381958,12.412105560302734,-11.917196273803713,-7.022062301635742,-149.55709838867188,-75.28230285644531,77.43537902832031,0.7381247282028198,2.413248062133789,8.10543441772461
1344.7121381759644,166.34597778320312,-12.967036247253418,-135.00881958007812,-6.47251033782959,-0.1745595932006836,3.9502553939819336,174.6395263671875,-34.167293548583984,-69.9344482421875,1.280914545059204,-5.912559509277344,2.8183794021606445,-89.48640441894531,-5.905285358428955,0.7836862802505493,-6.691476821899414,-2.492865562438965,1.5155143737792969,30.823766708374023,41.92984008789063,-24.02022171020508,1.2469704151153564,-5.180605888366699,1.809718132019043,-153.8700408935547,-75.33837890625,82.5818099975586,7.573635101318359,4.42106819152832,9.170282363891602
1344.742697238922,165.27545166015625,-12.464696884155272,-135.82705688476562,-0.9564477205276488,1.5623648166656494,-7.630277633666992,172.7578582763672,-40.14345550537109,-67.82548522949219,6.786314010620117,-19.78413391113281,0.9408159255981444,-93.39693450927734,-10.818070411682127,-6.271484851837158,-9.413837432861328,1.345055103302002,-2.873027801513672,21.113550186157227,38.667755126953125,-25.970504760742188,1.244740009307861,0.959936022758484,0.2212858200073242,-156.40760803222656,-75.37020111083984,84.65937805175781,9.637632369995115,3.40371036529541,6.140896797180176
1344.772717475891,165.4577178955078,-16.49273109436035,-136.21168518066406,-1.24951171875,2.141928195953369,-16.345233917236328,176.6958770751953,-45.517425537109375,-66.8453140258789,0.0166950747370719,-7.522688865661621,1.6078615188598633,-95.57066345214844,-20.45375633239746,-10.548847198486328,-10.229528427124023,3.121527671813965,-4.837596893310547,18.998628616333008,35.540279388427734,-21.38724899291992,-0.2690814733505249,1.8416235446929927,-5.827337265014648,-159.28172302246094,-76.16915130615234,86.32504272460938,5.6981353759765625,1.390444040298462,2.4606313705444336
1344.8025538921356,163.9966583251953,-25.622352600097656,-136.21585083007812,-6.932982444763184,-1.5419864654541016,-25.11508178710937,177.32138061523438,-46.31950759887695,-68.75914001464844,-8.66352653503418,7.685915946960449,3.8245773315429688,-94.1003875732422,-31.294971466064453,-13.679498672485352,-7.35059642791748,5.627181053161621,-2.4652552604675293,21.597888946533203,34.50239181518555,-11.974651336669922,3.137624263763428,3.222057819366455,-10.586763381958008,-164.7974853515625,-76.60774230957031,89.85700988769531,0.9647531509399414,-0.0656495541334152,-4.360929489135742
1344.8326375484469,161.38711547851562,-39.584014892578125,-135.87722778320312,-11.725334167480469,-6.019525527954102,-23.27042007446289,175.8592071533203,-43.0589599609375,-72.80393981933594,1.2663328647613523,-0.5615134239196777,-8.850767135620117,-87.49004364013672,-41.14194869995117,-18.003807067871094,-5.733046531677246,1.753873586654663,-8.9437255859375,22.039575576782227,36.53423690795898,0.8762719035148621,6.342206954956055,8.498682022094727,-11.600675582885742,-168.96255493164062,-75.86605834960938,92.87860870361328,-3.0795607566833496,-0.7994029521942139,-8.929899215698242
1344.86776304245,161.04652404785156,-59.32417678833008,-134.7580108642578,-12.158586502075195,-8.822771072387695,-6.217182159423828,174.0692901611328,-41.96083068847656,-76.11016845703125,-0.1414347887039184,-5.56212329864502,-21.845802307128903,-84.71485137939453,-48.27082443237305,-21.708999633789062,-2.8599982261657715,-0.6052097082138062,-13.91624641418457,21.911102294921875,41.28995513916016,16.900270462036133,8.597663879394531,0.525871753692627,-11.705902099609377,-168.50860595703125,-75.2957992553711,92.53943634033205,-2.357379913330078,1.637214422225952,-8.588951110839844
1344.8973824977877,164.70468139648438,-85.18533325195312,-138.97499084472656,0.9619282484054564,6.09127140045166,35.845733642578125,169.0336456298828,-42.47299575805664,-77.12381744384766,-0.6927330493927002,10.043561935424805,12.549121856689451,-87.98600006103516,-52.7836799621582,-23.05137062072754,-4.412142753601074,2.5038843154907227,-10.318037033081056,32.15858840942383,47.13901519775391,37.74668502807617,9.10106086730957,8.086498260498047,-15.623668670654297,-166.93377685546875,-76.02171325683594,90.4259262084961,3.1943955421447754,2.925846576690674,-8.252431869506836
1344.9523844718933,-19.768592834472656,-72.19917297363281,46.01889801025391,24.73270797729492,11.753179550170898,21.90819931030273,165.93202209472656,-41.563961029052734,-77.3590087890625,-4.510030746459961,-5.751672744750977,-7.472940444946289,-89.61351013183594,-56.0904426574707,-23.376691818237305,-3.541465282440185,4.701346397399902,-8.590215682983398,51.25743865966797,50.60443115234375,64.63455963134766,5.198450088500977,11.94797134399414,-20.994117736816406,-167.47186279296875,-77.76741027832031,88.76559448242188,3.479336261749268,1.85266375541687,-11.395620346069336
1344.9819521903992,-9.73198413848877,-67.20819854736328,38.41714859008789,10.155223846435549,16.078197479248047,-31.47202682495117,165.21038818359375,-40.25070190429688,-78.45654296875,0.7357064485549927,-6.855834007263184,-5.499316215515137,-90.19287109375,-59.03092193603516,-22.201284408569336,-0.1332768201828003,2.305455684661865,-10.104305267333984,81.59618377685547,48.85825347900391,92.3175277709961,-2.360441207885742,4.424500465393066,-28.09954071044922,-167.69700622558594,-78.76746368408203,87.22220611572266,-0.9848045110702516,-1.0952224731445312,-10.30137825012207
1345.012053012848,5.975564002990723,-71.95571899414062,25.925451278686523,7.728362083435059,7.8037109375,-9.841577529907228,163.45692443847656,-38.54682922363281,-81.50238800048828,-0.2467100024223327,-11.21697998046875,0.1085453033447265,-95.54156494140624,-62.40387344360352,-17.2722225189209,0.9915931224822998,2.9238600730896,-7.17242431640625,122.21212768554688,46.119022369384766,107.6823501586914,-16.72772216796875,-4.240640640258789,0.0148563385009765,-165.88165283203125,-76.26996612548828,83.8870620727539,5.159887313842773,-4.853219985961914,-0.3004493713378906
1345.0427808761597,41.699405670166016,-76.60358428955078,-4.059925079345703,9.378231048583984,3.2652149200439453,2.046733856201172,165.57684326171875,-37.70127868652344,-84.6239242553711,-1.4553589820861816,-11.423095703125,1.235891342163086,-105.41431427001952,-67.0680160522461,-6.194332122802734,1.3593971729278564,3.3641510009765625,-2.883904933929444,160.9048309326172,48.58483505249024,119.35301971435548,1.7390148639678955,6.030473709106445,0.2373857498168945,-167.2577362060547,-75.39215850830078,83.99504852294922,2.05631685256958,1.8686885833740237,7.937768936157227
1345.0727841854095,84.91725158691406,-77.27971649169922,-39.2252311706543,-5.098621368408203,-15.91695785522461,2.478011131286621,167.91102600097656,-37.595664978027344,-88.25862121582031,1.115614891052246,-9.841423034667969,2.7400989532470703,-118.02706146240234,-71.5661392211914,7.7608232498168945,4.1918487548828125,27.083675384521484,14.564420700073242,-163.43222045898438,54.09058380126953,136.90127563476562,-3.299924373626709,9.145881652832031,-5.8383636474609375,-167.5744171142578,-75.17159271240234,85.21520233154297,2.401300430297852,2.2342348098754883,0.2657728195190429
1345.1023302078247,102.74332427978516,-77.04757690429688,-53.59189987182617,6.662878036499023,-3.150228977203369,1.146073341369629,171.80091857910156,-40.0974235534668,-90.73067474365234,-0.9088358879089355,-13.231033325195312,1.5200071334838867,-128.8898162841797,-75.13739776611328,17.907318115234375,7.922560691833496,5.182161331176758,2.666854858398437,-128.5830078125,58.614479064941406,164.54576110839844,8.506858825683594,25.812580108642575,-16.002819061279297,-165.94964599609375,-72.92967224121094,84.65397644042969,6.238521575927734,1.9130196571350095,6.58149528503418
1345.132331609726,119.26560974121094,-78.07560729980469,-70.9709701538086,1.7266004085540771,-4.936392784118652,1.4518661499023438,-179.50584411621094,-43.33562469482422,-94.2653350830078,-6.79694938659668,-4.694829940795898,-2.5962071418762207,-151.64439392089844,-74.34928131103516,33.28684997558594,1.0487027168273926,6.355202674865723,11.094396591186523,-105.26090240478516,57.773414611816406,-166.04464721679688,0.2215499877929687,0.7472752332687378,-6.242255210876465,-167.0116424560547,-71.6866455078125,88.03490447998047,4.379047393798828,-0.4527062773704529,4.622770309448242
1345.1677808761597,136.08895874023438,-77.74647521972656,-83.40531158447266,-4.403715133666992,-1.6168506145477295,8.967479705810547,-170.09654235839844,-43.07601165771485,-97.8250503540039,-10.601579666137695,1.8997294902801516,6.39375114440918,-159.5308074951172,-71.10455322265625,42.92167282104492,5.510746955871582,8.34967041015625,7.356914520263672,-79.72738647460938,53.37494659423828,-141.2013702392578,-4.812731742858887,-6.646246910095215,3.884221076965332,-169.12527465820312,-70.66780853271484,92.21298217773438,-1.327495574951172,-2.268375396728516,-0.2810783386230469
1345.197296857834,152.3493194580078,-76.29727172851562,-94.63884735107422,-6.124687194824219,4.0394697189331055,2.2538280487060547,-161.19737243652344,-38.07503509521485,-99.48683166503906,-16.668113708496094,6.789032936096191,13.428409576416016,-156.6753692626953,-70.0098648071289,46.79637908935547,0.4577982425689697,-5.967704772949219,-1.732752799987793,-53.96647262573242,48.51098251342773,-122.9510269165039,-5.558358192443848,-4.4468183517456055,4.169897079467773,-172.36239624023438,-68.95347595214844,97.5809326171875,-6.545616149902344,-1.846771240234375,-0.0559806823730468
1345.2526772022247,161.9368438720703,-74.64952850341797,-103.5616683959961,4.715696334838867,-0.5210211277008057,0.25848388671875,-157.53024291992188,-28.78631019592285,-97.59264373779295,-13.635433197021484,-0.6895146369934082,3.45576286315918,-165.1343536376953,-69.67787170410156,55.89699172973633,4.192215919494629,-8.712753295898438,-5.693198204040527,-25.77356719970703,46.49649810791016,-108.95243072509766,-13.521232604980469,-12.559846878051758,7.459278106689453,-174.74063110351562,-67.92166137695312,103.3759307861328,-6.04754638671875,0.4340760111808777,-1.1339492797851562
1345.282241344452,168.0878143310547,-73.24764251708984,-108.48868560791016,2.1202683448791504,-0.8729397058486938,0.0042648315429687,-158.11541748046875,-18.837146759033203,-93.41310119628906,-8.467767715454102,-1.9767088890075684,-4.857901573181152,174.7825164794922,-69.26461029052734,68.53508758544922,-0.535400390625,-2.808166027069092,2.216939926147461,11.164600372314451,46.92654037475586,-92.99755096435548,10.793508529663086,-1.4062154293060305,-12.894729614257812,-175.80494689941406,-67.68262481689453,107.01122283935548,0.7677679061889648,1.3958137035369873,0.3607978820800781
1345.311627149582,171.4501495361328,-72.00360870361328,-109.5743637084961,0.8126788139343262,0.4872305393218994,0.9525299072265624,-161.36215209960938,-10.1819486618042,-87.80020141601562,-4.867337226867676,-3.107779026031494,-8.900373458862305,152.4901580810547,-67.47212219238281,78.59658813476562,-3.1270885467529297,-0.191192626953125,4.5493268966674805,36.99180221557617,43.51007843017578,-76.59449768066406,11.062055587768556,0.5237323045730591,-6.489936828613281,-178.73495483398438,-67.82550811767578,111.15499114990234,-0.7818912267684937,1.935730218887329,3.1973705291748047
1345.3419814109802,173.7808380126953,-71.40501403808594,-109.82666015625,-1.4012084007263184,1.767237424850464,1.059587478637695,-166.65130615234375,-3.6418440341949454,-81.4952392578125,-2.6343374252319336,-3.051365375518799,-9.650150299072266,136.79837036132812,-64.74311828613281,85.70629119873047,-5.108135223388672,4.874975204467773,1.8745050430297847,58.58395385742188,34.41907501220703,-62.79676055908203,10.395648956298828,1.2309153079986572,-8.82000732421875,177.6287841796875,-68.6539306640625,115.55963134765624,-5.422487258911133,0.1818720400333404,2.2874155044555664
1345.3723549842834,176.50531005859375,-71.46996307373047,-112.02615356445312,-2.089650630950928,1.884061813354492,0.8396835327148438,-172.26156616210938,-0.0628480017185211,-74.73442840576172,0.4335423111915588,-1.3644700050354004,-7.033402442932129,130.10084533691406,-61.52389907836914,91.3235855102539,-5.364201545715332,4.688641548156738,-0.2169694900512695,68.87776947021484,18.58452415466309,-54.22190856933594,15.493520736694336,-3.925954818725586,-1.2813711166381836,174.74305725097656,-69.9664077758789,119.52995300292967,-4.012974739074707,-0.1638412475585937,0.8362655639648438
1345.4026629924774,-179.4684600830078,-71.78368377685547,-116.5289535522461,-2.3670759201049805,0.8580945730209351,0.3929224014282226,-175.5885009765625,-0.1147244051098823,-67.90179443359375,3.2769289016723637,-6.307356834411621,-4.894396781921387,127.44328308105467,-58.78889465332031,94.39949798583984,-3.979708671569824,3.2761855125427246,-1.0991458892822266,66.17582702636719,-1.4576222896575928,-46.10411071777344,15.506328582763672,-12.239166259765623,-1.542555809020996,170.59231567382812,-70.98258209228516,124.51483917236328,-0.1765526533126831,1.0966708660125732,-0.3082618713378906
1345.4326696395874,-176.01779174804688,-71.81424713134766,-121.42427825927734,1.4703118801116943,-1.7171452045440674,-0.3517093658447265,-178.26629638671875,-2.9259636402130127,-61.22087097167969,7.9695024490356445,-12.98225212097168,-9.821619033813477,123.94641876220705,-57.20365905761719,95.05280303955078,-3.6059632301330566,5.980329513549805,-4.452314376831055,51.04421615600586,-19.665987014770508,-34.00418472290039,29.073028564453125,-14.350482940673828,18.655689239501957,164.0754852294922,-71.56621551513672,130.84750366210938,0.3331102728843689,-0.390985369682312,-1.645639419555664
1345.4678027629852,-174.93374633789062,-71.11246490478516,-123.9940414428711,-0.7667553424835205,-1.5399887561798096,-0.2257719039916992,-179.85716247558594,-8.20509147644043,-55.07003784179688,13.476085662841797,-10.486150741577148,-13.180723190307615,122.24981689453124,-56.95829391479492,94.77278900146484,-2.9262280464172363,7.702286720275879,-6.421777725219727,31.58331680297852,-25.0155029296875,-22.387741088867188,16.681743621826172,-13.78520393371582,2.3149547576904297,156.44049072265625,-71.93788146972656,137.2159881591797,0.7287595272064209,0.113314464688301,-6.041950225830078
1345.4975035190582,-177.39854431152344,-68.78919219970703,-123.02391815185548,0.1880112588405609,-1.809746503829956,-1.1714935302734375,-173.51077270507812,-13.277799606323242,-49.561744689941406,12.757076263427734,-7.019023895263672,18.75113677978516,125.0318603515625,-58.318302154541016,93.8878173828125,-3.239248275756836,9.847330093383787,-8.275829315185547,33.024269104003906,-24.360795974731445,-25.655925750732425,-1.9044151306152344,-10.07789421081543,4.986621856689453,151.77291870117188,-71.42782592773438,140.7887420654297,1.7892601490020752,1.0309555530548096,-6.329085350036621
1345.5274574756622,179.22842407226562,-65.21678924560547,-120.22576904296876,1.5578134059906006,-2.6204843521118164,-3.199647903442383,-168.47227478027344,-14.37952709197998,-46.62963104248047,7.336310386657715,-3.0495753288269043,-9.90446662902832,133.57412719726562,-62.75751876831055,91.6478042602539,0.7271566390991211,6.765800476074219,-4.902339935302734,46.26424407958984,-17.928335189819336,-31.19960021972656,12.130481719970703,-4.937494277954102,-0.8815755844116211,148.48577880859375,-70.57049560546875,143.19789123535156,0.6412112712860107,-0.5359457731246948,-7.130304336547852
1345.5818603038788,177.57408142089844,-61.79352188110352,-117.1889190673828,2.123471736907959,1.4815306663513184,-0.1067514419555664,-172.34530639648438,-14.328939437866213,-46.62705993652344,12.893314361572266,-9.045581817626951,-3.357222557067871,145.38101196289062,-72.66019439697266,79.47161865234375,-0.8391211032867432,7.277535438537598,1.4718809127807615,51.204078674316406,-8.468263626098633,-35.37712097167969,20.92715072631836,-6.408660888671875,-6.354701995849609,147.3461151123047,-68.80859375,143.8655548095703,-3.666567325592041,0.4466195702552795,-1.6608667373657229
1345.611334323883,175.6846923828125,-58.37652206420898,-113.73416137695312,1.5624091625213623,-4.9521684646606445,0.2957363128662109,-177.65269470214844,-13.618437767028809,-48.62189102172852,9.298166275024414,-13.225120544433594,-2.759732723236084,-163.51646423339844,-81.48548889160156,27.54801750183105,1.271712303161621,17.637393951416016,10.497722625732422,54.972354888916016,2.6037073135375977,-39.461612701416016,23.230079650878903,-13.0103759765625,-12.161197662353516,146.41024780273438,-66.87903594970703,145.71615600585938,-2.483603954315185,-0.3883821368217468,1.4703683853149414
1345.6419715881348,175.43130493164062,-55.18904113769531,-111.09281158447266,0.4653204083442688,3.164863109588623,-2.3221511840820312,-177.41094970703125,-11.912961959838867,-49.69977188110352,9.256502151489258,-24.96522521972656,-1.4641857147216797,-92.97760009765624,-74.554931640625,-43.89070129394531,-5.807209968566895,19.774169921875,11.019535064697266,63.80184173583984,13.64002799987793,-41.22168731689453,21.816577911376957,-5.380739212036133,-14.116283416748049,145.9854736328125,-65.24879455566406,146.3938446044922,0.879779577255249,1.2485971450805664,1.9794530868530276
1345.672509908676,176.25144958496094,-53.05698776245117,-110.73853302001952,-1.176246166229248,-0.0697724670171737,3.23261833190918,-169.2449951171875,-9.722542762756348,-50.09569549560547,16.941375732421875,-28.213607788085938,-4.686827659606934,-75.15168762207031,-58.224910736083984,-57.09372329711914,-11.53352165222168,20.95693588256836,16.638198852539062,72.26353454589844,19.892513275146484,-37.493614196777344,14.892250061035156,1.6070754528045654,-8.565011978149414,147.36378479003906,-63.99946212768555,144.03451538085938,-0.6925709247589111,1.3638556003570557,8.288545608520508
1345.702695608139,178.08175659179688,-52.53033447265625,-110.5799789428711,0.3596625328063965,2.602961540222168,3.0920066833496094,-164.05978393554688,-2.914386749267578,-51.50794219970703,6.532814979553223,-26.40963363647461,1.2324562072753906,-65.53788757324219,-39.530460357666016,-54.24931335449219,-10.661067962646484,9.996889114379885,12.570026397705078,79.64021301269531,18.19040298461914,-28.91231346130371,6.824796676635742,2.96012544631958,-1.6251678466796875,151.4834747314453,-63.137325286865234,140.0565643310547,-2.7946972846984863,-4.402889251708984,12.806070327758787
1345.73215675354,179.3231658935547,-53.72527313232422,-111.16231536865234,-1.736577033996582,1.8685784339904783,2.28055477142334,-161.25962829589844,1.5814476013183594,-52.41225814819336,13.431085586547852,-13.174142837524414,-2.2420525550842285,-55.08971405029297,-21.328214645385746,-44.11549377441406,4.679137229919434,1.4130985736846924,12.49811553955078,87.20962524414062,10.450191497802734,-20.074878692626957,2.5452823638916016,-0.4318743944168091,-0.8957500457763672,153.03408813476562,-63.08681106567383,137.9742431640625,-1.2747180461883545,1.8701376914978027,10.158924102783203
