Timestamp,D4:22:CD:00:05:5D_EulerX,D4:22:CD:00:05:5D_EulerY,D4:22:CD:00:05:5D_EulerZ,D4:22:CD:00:05:5D_FreeAccX,D4:22:CD:00:05:5D_FreeAccY,D4:22:CD:00:05:5D_FreeAccZ,D4:22:CD:00:05:5E_EulerX,D4:22:CD:00:05:5E_EulerY,D4:22:CD:00:05:5E_EulerZ,D4:22:CD:00:05:5E_FreeAccX,D4:22:CD:00:05:5E_FreeAccY,D4:22:CD:00:05:5E_FreeAccZ,D4:22:CD:00:05:6B_EulerX,D4:22:CD:00:05:6B_EulerY,D4:22:CD:00:05:6B_EulerZ,D4:22:CD:00:05:6B_FreeAccX,D4:22:CD:00:05:6B_FreeAccY,D4:22:CD:00:05:6B_FreeAccZ,D4:22:CD:00:05:6E_EulerX,D4:22:CD:00:05:6E_EulerY,D4:22:CD:00:05:6E_EulerZ,D4:22:CD:00:05:6E_FreeAccX,D4:22:CD:00:05:6E_FreeAccY,D4:22:CD:00:05:6E_FreeAccZ,D4:22:CD:00:49:AA_EulerX,D4:22:CD:00:49:AA_EulerY,D4:22:CD:00:49:AA_EulerZ,D4:22:CD:00:49:AA_FreeAccX,D4:22:CD:00:49:AA_FreeAccY,D4:22:CD:00:49:AA_FreeAccZ
1548.1122515201569,169.3599853515625,-72.73902130126953,54.640174865722656,-3.4391298294067383,-17.957069396972656,0.7457675933837891,-61.85112762451172,-60.33965301513672,-139.9612579345703,-22.268356323242188,-1.4834251403808594,-7.481352806091309,-7.165514945983887,47.26173400878906,-108.33333587646484,-1.981374979019165,-3.2135777473449707,-21.807979583740234,110.76588439941406,-67.04473114013672,81.34263610839844,3.6729736328125,-5.695128440856934,-7.679397583007812,112.0490951538086,-85.7323989868164,-172.5665283203125,1.0060789585113523,1.3040249347686768,-4.631112098693848
1548.1222250461578,167.98031616210938,-69.85865020751953,55.70557022094727,8.314573287963867,-6.144802093505859,-4.315264701843262,-70.59769439697266,-57.38251495361328,-137.68209838867188,-22.466480255126957,-5.486329078674316,-15.000614166259766,-12.355291366577148,40.38838195800781,-130.82827758789062,-4.918912887573242,-12.214776992797852,-33.45289611816406,106.72990417480467,-65.10142517089844,83.61738586425781,1.8336997032165527,-3.42275619506836,-6.861842155456543,96.75337982177734,-84.68382263183594,-158.32821655273438,-2.8889760971069336,2.117172718048096,-0.9827346801757812
1548.177154302597,173.735595703125,-50.008209228515625,-98.96600341796876,0.2541074156761169,0.9154011011123656,3.0414962768554688,163.61300659179688,-66.3802261352539,29.952713012695312,-2.231063842773437,0.9294739961624146,4.116488456726074,-34.33975982666016,26.71282196044922,-22.633676528930664,3.2773666381835938,-9.19047737121582,11.032625198364258,142.4678497314453,-72.45079040527344,-20.87042236328125,0.8666741847991943,-2.223341941833496,2.01686954498291,-172.80926513671875,-74.5208969116211,91.5573959350586,3.210207939147949,-1.0358643531799316,6.935455322265625
1548.2067732810974,174.5694580078125,-54.4973258972168,-100.28236389160156,-0.5531296730041504,0.1686876714229583,4.714701652526856,176.45974731445312,-58.06166458129883,20.97115707397461,0.6110047101974487,7.246132850646973,-9.01161003112793,-22.830284118652344,36.45790481567383,-21.04265594482422,6.924145698547363,-9.232187271118164,1.2131376266479492,133.3699493408203,-77.59342193603516,-3.9374866485595694,-0.1120591163635253,-0.6811938285827637,-1.136371612548828,172.5067901611328,-72.81891632080078,107.06652069091795,-0.2880290746688843,0.0051034707576036,4.608003616333008
1548.2664804458618,174.47293090820312,-61.00127410888672,-101.59986114501952,-4.571503639221191,-2.832686424255371,5.620997428894043,-161.1177520751953,-65.9066162109375,4.826931476593018,2.4607009887695312,4.746524810791016,-12.831605911254885,-16.74579620361328,44.59260559082031,-20.638652801513672,8.31717300415039,-3.849740982055664,-4.377209663391113,135.7142791748047,-79.10075378417969,5.201706886291504,-3.202554702758789,0.4883522987365722,-6.966610908508301,173.15994262695312,-73.1861801147461,107.49732208251952,-1.2330973148345947,0.7554272413253784,-1.6411161422729492
1548.325837612152,169.8277587890625,-69.73112487792969,-100.52908325195312,-1.6725947856903076,-11.908210754394531,1.2888059616088867,-129.17469787597656,-74.92191314697266,-23.1195011138916,2.4014806747436523,4.049890518188477,-10.985177993774414,-14.436689376831056,51.14560317993164,-17.430362701416016,7.324291229248047,-2.2537407875061035,-5.082632064819336,146.19863891601562,-77.74974060058594,5.140754699707031,-4.897568702697754,-2.9735169410705566,-5.383405685424805,-179.475341796875,-74.07833862304688,101.60994720458984,-1.9046554565429688,0.5833437442779541,-6.700252532958984
1548.333848953247,160.66726684570312,-74.89818572998047,-94.06414031982422,3.952241897583008,1.0856835842132568,-3.5627260208129883,-66.12309265136719,-77.26927185058594,-84.83006286621094,0.775047779083252,0.4692198634147644,-5.8302812576293945,-11.970648765563965,54.5460090637207,-10.305222511291504,5.224852561950684,-2.1461639404296875,-4.057402610778809,140.3686065673828,-77.48737335205078,19.84586906433105,5.905172348022461,-5.620222091674805,-6.610206604003906,-169.76829528808594,-73.43058776855469,94.25699615478516,-0.3118165135383606,0.6954522132873535,-9.782699584960938
1548.356494665146,153.71743774414062,-75.84337615966797,-87.55213928222656,6.673893928527832,10.084938049316406,-7.964870452880859,-28.523569107055664,-68.56938171386719,-124.85896301269533,-5.584470748901367,-3.217993259429932,-3.3827462196350098,-7.5801167488098145,54.073280334472656,-5.736998558044434,3.530693531036377,-4.659632682800293,-5.984183311462402,121.15824127197266,-76.92219543457031,47.86833572387695,1.4236886501312256,-2.748936653137207,-8.248022079467773,-165.23963928222656,-72.69451141357422,92.2945556640625,0.0173974931240081,1.6613287925720217,-10.615032196044922
1548.3866341114044,151.74708557128906,-73.55168914794922,-82.95709228515625,-0.1236863732337951,0.3157685995101928,-9.240056991577148,-22.404489517211918,-59.03732299804688,-138.3502960205078,-12.03398895263672,-11.108709335327148,-3.904907703399658,-3.9438512325286874,51.055442810058594,-11.941709518432615,2.33889102935791,-2.960247039794922,-10.310905456542969,106.73351287841795,-73.60870361328125,67.36762237548828,-0.1360318958759308,-3.532888412475586,-6.531280517578125,-161.12985229492188,-73.73839569091797,91.17926788330078,-2.132720470428467,0.7759031057357788,-8.015878677368164
1548.4170358181,153.79562377929688,-71.71770477294922,-80.39566040039062,6.215025901794434,-10.080327987670898,-7.773858070373535,-31.011518478393555,-53.92213821411133,-142.33901977539062,-18.76041412353516,-14.268699645996094,-10.303791046142578,-0.7687682509422302,46.68211364746094,-28.223329544067383,-1.5457704067230225,1.4814221858978271,-13.227376937866213,97.30455780029295,-69.04096221923828,77.7529067993164,-0.9717599153518676,-2.9229483604431152,-5.04013729095459,-152.69459533691406,-75.43396759033203,87.2568130493164,-2.5325846672058105,0.1962499618530273,-7.724811553955078
1548.4466474056244,158.78323364257812,-70.75604248046875,-78.88630676269531,-0.674501895904541,2.306973934173584,1.8528785705566408,-42.58845901489258,-55.08115768432617,-141.3794403076172,-24.04692840576172,-4.910353660583496,-17.429786682128906,-2.7799623012542725,39.0385971069336,-47.994720458984375,2.1634817123413086,-3.916426181793213,-18.645587921142575,91.50347137451172,-65.25733947753906,83.31488800048828,-1.978898048400879,-2.044078826904297,-3.896006107330322,-143.12771606445312,-76.30240631103516,82.89872741699219,-0.3999897241592407,-0.3977735042572021,-3.816054821014404
1548.4768106937408,160.20703125,-67.9468994140625,-77.18757629394531,1.0286204814910889,-7.109158515930176,-2.4320263862609863,-52.42938232421875,-62.06891632080078,-133.25811767578125,-21.362342834472656,-3.4733123779296875,-12.778604507446287,-6.021538257598877,29.38857650756836,-66.70726776123047,0.391817569732666,-17.773395538330078,-21.04624938964844,88.81996154785156,-62.925514221191406,85.46170806884766,-2.818150043487549,-3.579810619354248,-1.9161744117736816,-137.60377502441406,-76.91041564941406,79.77845764160156,3.851914405822754,1.92254376411438,0.8539762496948242
1548.5063581466677,159.99391174316406,-64.79666137695312,-73.32515716552734,-2.431368827819824,-1.2858662605285645,4.022530555725098,-82.08757781982422,-69.33879089355469,-107.88687896728516,13.412914276123049,-9.358306884765623,8.580381393432617,-4.6523942947387695,25.1843318939209,-81.26807403564453,-0.1112551689147949,2.7711739540100098,-22.64716339111328,89.13202667236328,-61.79313278198242,84.2106704711914,-2.14652156829834,-1.6082565784454346,-2.646768569946289,-135.52645874023438,-78.15558624267578,76.55218505859375,3.2056660652160645,2.2704720497131348,1.411725997924805
1548.5664541721344,158.314697265625,-62.27640151977539,-69.51116943359375,1.2910661697387695,-3.344728946685791,2.726712226867676,-103.67178344726562,-72.599853515625,-85.1529541015625,18.136688232421875,-12.995803833007812,0.801325798034668,-31.054916381835938,27.13448715209961,-73.74795532226562,-0.9548377990722656,5.895034790039063,-5.580463409423828,94.93511962890624,-60.18769073486328,81.0879135131836,7.926819801330566,-7.702834129333496,4.753643035888672,-140.8824005126953,-79.98419189453125,78.6475601196289,-1.905921220779419,0.7712444067001343,1.844613075256348
1548.596093416214,156.81256103515625,-60.75126266479492,-65.77214813232422,-2.40583610534668,-1.4177842140197754,7.090507507324219,-121.57846069335938,-73.98601531982422,-66.43074035644531,6.657615661621094,-3.917734146118164,20.04895401000977,-40.78854370117188,30.55677032470703,-64.14167785644531,-1.5406043529510498,-9.161348342895508,0.4745407104492187,97.59284973144533,-57.35540771484375,79.15467834472656,8.301031112670898,-9.794881820678713,7.170038223266602,-149.57611083984375,-81.20962524414062,83.61089324951172,-4.244505882263184,-0.7660244703292847,5.528695106506348
1548.6266067028046,152.0784149169922,-60.1042366027832,-62.38149642944336,-1.3099346160888672,0.6904406547546387,2.3543052673339844,-143.62448120117188,-72.10346221923828,-46.1474838256836,-3.9549307823181152,2.171147346496582,-2.4543795585632324,-29.45893096923828,32.09627151489258,-53.08808135986328,-4.304546356201172,-6.435256004333496,-17.394420623779297,90.3268585205078,-54.04002380371094,76.27395629882812,4.487177848815918,-0.8517608642578125,5.627715110778809,-160.6643829345703,-81.25870513916016,90.72347259521484,-1.030477523803711,-0.6705185174942017,2.55007553100586
1548.6567029953003,145.37132263183594,-60.56772232055664,-58.81111907958984,3.095265865325928,-2.5255699157714844,2.6865453720092773,-156.1617431640625,-70.07723236083984,-34.16435241699219,2.437417507171631,0.2018675208091735,5.436008453369141,-24.191669464111328,30.906206130981445,-38.09828567504883,0.8936049938201904,-9.976034164428713,-13.812662124633787,80.80980682373047,-50.83950805664063,73.07876586914062,3.426194667816162,9.829744338989258,-1.1001520156860352,-165.6316375732422,-80.7343521118164,91.88270568847656,-0.1387099027633667,-0.5970996618270874,0.8814125061035156
1548.6857905387878,136.2562255859375,-62.15573120117188,-55.72249221801758,6.284089088439941,-4.75091552734375,5.550972938537598,-162.2169189453125,-68.23356628417969,-28.361740112304688,0.034856341779232,-1.9806065559387207,0.9517812728881836,-20.159141540527344,28.01540756225586,-26.87175941467285,3.165268421173096,-6.638188362121582,-3.340333938598633,79.5058822631836,-47.81023788452149,70.4276351928711,-1.054782152175903,9.759788513183594,-1.5917625427246094,-165.10374450683594,-79.24977111816406,87.94720458984375,4.301901817321777,0.2456810772418975,-0.947911262512207
1548.7164933681488,124.8537826538086,-61.43563461303711,-59.91789627075195,13.832624435424805,9.8380126953125,5.841586112976074,-167.53579711914062,-66.68059539794922,-24.867624282836918,-1.6078379154205322,-3.1935253143310547,0.2082929611206054,-23.3950309753418,24.17477226257324,-18.48211669921875,-6.891737937927246,8.604440689086914,3.9221038818359375,79.96577453613281,-45.34406280517578,68.9423828125,-5.924100875854492,6.937436103820801,-0.475102424621582,-168.62594604492188,-78.33612060546875,86.7617416381836,10.808914184570312,0.2048223614692688,-3.057020664215088
1548.7466821670532,125.77345275878906,-55.03666687011719,-74.20684051513672,21.92950820922852,9.254749298095703,11.870044708251951,-171.71759033203125,-64.94963073730469,-23.43547248840332,0.5837059020996094,-0.9847474098205566,1.040053367614746,-34.400962829589844,18.172378540039062,-12.617656707763672,-11.938617706298828,9.835390090942385,7.558237075805664,77.5671157836914,-43.68544769287109,67.83399963378906,-5.835196495056152,7.273872375488281,-0.6058940887451172,-173.5240936279297,-76.40541076660156,85.39167022705078,2.3704833984375,0.2211259305477142,-0.9016571044921876
1548.7764778137207,133.072265625,-44.75357055664063,-89.10787200927734,13.705698013305664,1.1951968669891355,4.940605163574219,-175.1565704345703,-64.27928161621094,-21.68453788757324,0.3481217622756958,-2.1000452041625977,1.093488693237305,-38.72089767456055,9.62037754058838,-8.420456886291504,-10.446748733520508,20.79180908203125,-4.342023849487305,75.20529174804688,-43.4763069152832,67.87175750732422,-4.051657676696777,8.671815872192383,0.8622102737426758,-171.83737182617188,-75.13005828857422,82.3808364868164,-3.959911346435547,0.8541301488876343,4.451276779174805
1548.8063933849337,139.91384887695312,-33.62611389160156,-101.42752075195312,1.915473222732544,-2.944716453552246,-4.466521263122559,-178.67906188964844,-65.20915222167969,-19.08626747131348,0.4236443042755127,-1.737688064575195,0.8907356262207031,-54.06322860717773,-1.0528268814086914,-3.0770626068115234,-4.608161926269531,9.237974166870115,-3.691388130187988,74.54691314697266,-44.25472259521485,68.18521118164062,-2.918698787689209,5.432242393493652,2.5163936614990234,-168.37924194335938,-73.2552261352539,81.8197021484375,1.0657477378845217,0.9530714750289916,5.887060165405273
1548.866401910782,146.74090576171875,-23.18885803222656,-109.71397399902344,-6.288578033447266,-0.7326010465621948,-12.553878784179688,178.37306213378906,-67.10409545898438,-16.233570098876953,1.0358450412750244,-3.035602569580078,-0.0175142288208007,-66.40643310546875,-12.5857515335083,3.386246919631958,-1.7423863410949707,0.3868222236633301,5.724372863769531,74.15328979492188,-45.06923675537109,68.14031219482422,1.199537992477417,-0.0221604146063327,5.388062477111816,-167.56008911132812,-72.46438598632812,81.73355102539062,10.288267135620115,1.5933043956756592,7.53596305847168
1548.8968064785004,154.6130828857422,-15.55971908569336,-114.4355697631836,-7.607192039489746,2.496634006500244,-16.36941909790039,175.66775512695312,-69.27669525146484,-12.919843673706056,1.7268812656402588,-3.777756690979004,-1.0325040817260742,-70.5511474609375,-24.94831275939941,12.336641311645508,0.0224115848541259,2.8705921173095703,-2.001331329345703,74.37406921386719,-44.76869583129883,68.58198547363281,3.3995180130004883,-0.1974573731422424,0.8672857284545898,-167.8623046875,-73.50066375732422,81.36321258544922,4.500633239746094,2.1394810676574707,-0.5337114334106445
1548.9258964061737,162.3966522216797,-12.618182182312012,-116.90116119384766,-3.148388385772705,2.411007881164551,-12.336341857910156,174.25221252441406,-71.16609191894531,-9.361907958984377,1.8548147678375244,-0.8131474256515503,-2.972331047058105,-75.95465850830078,-37.46467971801758,24.66469955444336,4.167348861694336,5.265419960021973,-4.642613410949707,77.6314926147461,-43.44717788696289,69.17192077636719,1.0608670711517334,-0.069227322936058,-2.7669644355773926,-170.83209228515625,-73.53182983398438,83.7436752319336,0.7613208293914795,1.9561405181884768,-2.682991504669189
1548.9562592506409,167.52923583984375,-14.159863471984863,-119.56156158447266,-9.226037979125977,1.2561237812042236,-7.783085823059082,177.06822204589844,-70.13106536865234,-9.72968578338623,2.688714504241944,-4.35018253326416,-1.340611457824707,-84.39244842529297,-49.37798690795898,40.603660583496094,3.2633981704711914,7.890071868896484,1.610107421875,81.45381927490234,-41.45478820800781,69.72858428955078,0.5157923698425293,-0.6871286630630493,-5.058241844177246,-173.71200561523438,-73.62775421142578,86.34780883789062,0.1989190280437469,0.5509750843048096,-3.3917698860168457
1548.988112449646,165.27197265625,-20.68816947937012,-122.96643829345705,-9.214509963989258,-4.180019378662109,-9.162071228027344,-177.67088317871094,-67.16238403320312,-11.881356239318848,1.7532384395599363,-5.212510108947754,-2.173494338989258,-91.94181823730467,-60.20322036743164,56.19618606567383,1.0384840965270996,14.83830451965332,3.8255558013916016,85.26105499267578,-39.16840362548828,70.24943542480469,0.3030983209609985,0.1579907834529876,-7.34771728515625,-175.5944061279297,-74.35604095458984,87.6271743774414,0.8583418130874634,-0.8585368394851685,-6.995235443115234
1549.0166478157043,162.53189086914062,-29.761890411376957,-125.68083953857422,0.7892528772354126,-8.735818862915039,16.48883056640625,-174.36334228515625,-63.21217727661133,-13.89205265045166,-3.2329235076904297,6.002507209777832,-2.60154390335083,-100.88324737548828,-69.71014404296875,66.1495132446289,3.3437013626098637,13.45340347290039,3.178762435913086,90.7815170288086,-36.45280838012695,70.5954360961914,-1.639723539352417,0.3183028697967529,-6.080910682678223,-178.73953247070312,-74.7909164428711,89.57112121582031,1.5086092948913574,-5.079479217529297,-9.780282974243164
1549.046128988266,162.27432250976562,-31.384876251220703,-125.8250503540039,-6.40826416015625,-8.137908935546875,7.841711044311523,-174.9341583251953,-58.5186767578125,-16.297504425048828,1.6243703365325928,-10.872007369995115,1.8289661407470703,-114.99713897705078,-74.39790344238281,72.76831817626953,1.6508090496063232,5.908592224121094,3.348240852355957,97.42074584960938,-32.14148712158203,70.2259292602539,-3.1846070289611816,-0.0164364725351333,-0.6780385971069336,177.80601501464844,-73.4644775390625,91.5525360107422,-0.0587129369378089,-2.6642885208129883,-7.429721832275391
1549.0765731334686,168.36280822753906,-29.856239318847656,-123.97730255126952,-7.657404899597168,-2.888251781463623,-1.0426645278930664,-175.15533447265625,-54.77131652832031,-16.570270538330078,0.7473952770233154,1.1522796154022217,1.5483016967773438,-120.0905303955078,-74.09735107421875,69.01022338867188,-1.2607688903808594,6.734946250915527,6.768573760986328,105.50621032714844,-25.940847396850582,69.709228515625,1.5156445503234863,0.910975694656372,3.334959030151367,178.1876678466797,-72.47864532470703,89.55655670166016,-0.7387572526931763,0.7358297109603882,-0.6752328872680664
1549.1067206859589,170.3190155029297,-26.436145782470703,-121.7018585205078,-6.555901527404785,-13.470428466796877,-1.2414321899414062,-176.3151397705078,-52.2230110168457,-15.201204299926758,-0.160733938217163,-1.980269193649292,1.141982078552246,-113.015869140625,-71.84093475341797,55.289947509765625,3.828125476837158,4.2250566482543945,9.637845993041992,114.74385833740234,-18.326303482055664,70.40605926513672,-1.472787618637085,-3.2756471633911133,12.485580444335938,-179.19960021972656,-71.16094970703125,85.73590850830078,-0.7715448141098022,-3.6509623527526855,2.211505889892578
1549.1658124923706,170.03472900390625,-22.73216819763184,-120.29701232910156,-11.50107192993164,-14.04617691040039,7.085777282714844,-177.520263671875,-51.175689697265625,-14.110665321350098,-0.8874509334564209,-2.617283344268799,1.6128692626953125,-107.41590118408205,-68.39572143554688,42.12296295166016,8.109670639038086,2.0487823486328125,9.598188400268556,117.98649597167967,-8.035849571228027,70.99353790283203,2.4946813583374023,-6.68675422668457,25.61362838745117,-177.82591247558594,-68.4372787475586,84.27044677734375,-2.635301113128662,-0.5526621341705322,8.543107986450195
1549.2018222808838,167.62022399902344,-18.35523796081543,-119.26265716552734,-10.496383666992188,-14.389549255371094,7.716451644897461,-178.58145141601562,-51.77832412719727,-13.67603588104248,-0.0058612218126654,-1.3438916206359863,2.073694229125977,-106.1910171508789,-65.22889709472656,32.193538665771484,2.2297592163085938,1.329394817352295,8.233301162719727,113.77326965332033,6.371493339538574,70.39688873291016,10.159971237182615,-1.9101927280426023,25.099166870117188,-176.23345947265625,-68.76947021484375,83.25934600830078,4.229361534118652,2.066171169281006,9.77712631225586
1549.2268245220184,168.65191650390625,-14.940784454345703,-117.7065200805664,-4.329556465148926,-8.216594696044922,7.166767120361328,-179.836669921875,-54.08036804199219,-12.566298484802246,0.3725857734680176,-1.0290329456329346,2.852360725402832,-105.92791748046876,-64.35929107666016,24.90409469604492,2.1233396530151367,1.0988028049468994,6.453826904296875,104.9502410888672,22.94652938842773,66.03950500488281,12.382965087890623,9.2449951171875,18.042011260986328,-175.33900451660156,-70.46961212158203,81.97696685791016,1.5157177448272705,3.6531076431274414,8.236656188964844
1549.2561810016632,170.87489318847656,-11.032354354858398,-117.64266204833984,-5.458466529846191,-0.4706329107284546,14.142946243286133,178.30038452148438,-58.08713150024414,-10.870410919189451,0.9939903020858764,-2.309765338897705,4.63321590423584,-108.27879333496094,-66.30020141601562,21.484766006469727,-2.542921543121338,2.692367553710937,6.913619995117188,94.47087860107422,33.66097640991211,57.3538703918457,8.646373748779297,11.268936157226562,3.3614864349365234,-174.66302490234375,-72.06624603271484,81.29042053222656,2.6994123458862305,2.5567522048950195,8.797416687011719
1549.286322593689,169.98146057128906,-9.002153396606445,-118.91458892822266,-3.676581859588623,2.407299518585205,1.9280405044555664,175.9939727783203,-63.74455642700195,-8.038583755493164,7.287710189819336,-1.2246911525726318,7.505224227905273,-114.39962005615234,-70.57757568359375,23.646928787231445,-4.039584159851074,5.172042846679688,4.747014045715332,90.63768768310548,33.76054000854492,49.54378890991211,0.924389123916626,9.06911277770996,1.4018144607543943,-174.51686096191406,-73.81173706054688,81.89274597167969,5.999421119689941,2.070777416229248,7.841526031494141
1549.3159103393557,168.7455291748047,-9.338616371154783,-119.98570251464844,-2.937685012817383,5.786474227905273,-3.3145809173583984,174.76254272460938,-71.18319702148438,-0.5254152417182922,4.771154403686523,4.605747222900391,-0.186314582824707,-127.2130126953125,-75.05284118652344,32.5023193359375,-4.526180267333984,1.8017163276672363,0.5544195175170898,85.9816665649414,26.646461486816406,47.85353469848633,-3.1885547637939453,15.88287353515625,10.20867156982422,-176.7849884033203,-75.71146392822266,83.89385223388672,2.374922275543213,2.222316265106201,4.080628395080566
1549.3462483882904,167.62425231933594,-12.178287506103516,-120.44620513916016,-3.33674430847168,4.958349227905273,-10.219486236572266,179.63621520996094,-74.60163879394531,-3.7980620861053462,-1.139237880706787,-0.7262754440307617,-5.343297958374023,-151.78274536132812,-77.51387786865234,53.90487289428711,-8.66717529296875,4.0278425216674805,-3.0999975204467773,70.38391876220703,19.58834457397461,51.98327255249024,-11.491270065307615,10.050390243530272,-1.6519556045532229,178.13319396972656,-76.76490783691406,88.18275451660156,0.2901126742362976,1.0458924770355225,-1.1917991638183594
1549.381965637207,166.27590942382812,-17.815860748291016,-120.15775299072266,-5.936058044433594,2.3311500549316406,-16.04117202758789,-174.14651489257812,-75.05813598632812,-12.19859218597412,-10.234893798828123,-3.711653709411621,-4.79422664642334,174.3514404296875,-76.35050964355469,84.60794830322266,-3.343303203582764,6.796599388122559,-5.988857269287109,55.65860748291016,15.0378999710083,60.57890319824219,-3.775542736053467,1.0336053371429443,-12.234392166137695,172.76760864257812,-76.37206268310547,93.26638793945312,0.1331282258033752,-0.1373941898345947,-4.540451049804688
1549.4114706516266,163.62069702148438,-26.42409896850586,-119.04182434082033,-7.205854415893555,-1.7960798740386963,-18.69140243530273,-166.40135192871094,-73.11493682861328,-23.527568817138672,0.3881138563156128,-2.3063745498657227,-8.757143020629883,151.03512573242188,-72.58460998535156,104.41519927978516,-5.937376022338867,5.647107124328613,-10.244277954101562,47.23597717285156,14.843050003051758,72.16417694091797,-0.8514342308044434,4.077569007873535,-10.35150909423828,168.47715759277344,-75.80847930908203,97.66593933105467,-0.871404767036438,-0.8679977655410767,-6.871177673339844
1549.4666368961334,160.25888061523438,-37.8695182800293,-116.84967803955078,-6.349859237670898,-4.503838539123535,-16.1773681640625,-165.76649475097656,-71.3622817993164,-31.219934463500977,-3.335655689239502,-3.897439479827881,-12.573970794677734,142.33082580566406,-69.27653503417969,111.15499114990234,-4.155178070068359,6.857969284057617,-12.566213607788086,41.44466781616211,19.643911361694336,84.44263458251953,-4.578600883483887,4.876852989196777,-9.129802703857422,165.34872436523438,-75.80891418457031,100.81634521484376,-0.6416341066360474,0.1470248103141784,-9.85650634765625
1549.496328830719,155.8701629638672,-52.080604553222656,-113.02010345458984,-3.68226957321167,-4.112004280090332,-7.623245239257812,-170.1786346435547,-69.07057189941406,-32.971473693847656,-8.448322296142578,2.91373062133789,0.1323719024658203,142.40794372558594,-68.22504425048828,112.10256958007812,-3.409015655517578,5.688440322875977,-13.281896591186523,36.23590087890625,29.063844680786133,98.32076263427734,-0.2690201997756958,3.439082145690918,-11.956111907958984,163.97665405273438,-76.34400177001953,101.33839416503906,-0.4485465884208679,0.1737747192382812,-9.376235961914062
1549.526481628418,147.18280029296875,-68.21627807617188,-104.15896606445312,0.130464494228363,-4.703414916992188,5.587835311889648,-171.87973022460938,-66.46337890625,-33.51264953613281,-1.2250006198883057,-10.629718780517578,-7.049182891845703,147.95509338378906,-68.69401550292969,110.4694595336914,-3.000847339630127,4.847233772277832,-12.015104293823242,36.72920989990234,41.68090438842773,117.08162689208984,-9.612030029296877,0.441260814666748,-22.042747497558597,163.87197875976562,-77.3857650756836,100.7874755859375,1.4139227867126465,1.0842013359069824,-9.77967643737793
1549.5566606521606,106.2093505859375,-81.32395935058594,-55.95256805419922,14.786859512329102,-3.8575439453125,18.014076232910156,-172.3879852294922,-63.81362533569336,-36.10089111328125,4.020952224731445,-4.956493377685547,2.669370651245117,155.6129150390625,-69.5247573852539,108.46392059326172,-3.864701747894287,4.855338096618652,-9.42599105834961,50.21205520629883,53.023193359375,145.0295867919922,-15.584114074707031,10.5777587890625,-35.902488708496094,163.54991149902344,-78.08734893798828,100.50652313232422,4.10394287109375,0.1125855892896652,-8.26487922668457
1549.5866904258728,58.49919128417969,-77.86305236816406,6.372867584228516,20.84595489501953,27.37010955810547,-0.2265748977661132,-171.6846466064453,-62.698638916015625,-39.279239654541016,6.884393692016602,-1.551490306854248,9.821348190307615,163.36837768554688,-70.12633514404297,108.06524658203124,-4.896458625793457,5.555835723876953,-3.488125801086426,91.25064849853516,59.30167007446289,165.76861572265625,23.89422607421875,-15.877561569213867,-5.518255233764648,164.05215454101562,-78.80541229248047,100.06895446777344,1.692105054855347,-4.595675468444824,-1.9510807991027832
1549.6167635917664,72.60332489013672,-78.2254867553711,-6.0953474044799805,25.650840759277344,32.479042053222656,-11.985380172729492,-168.14137268066406,-64.99324798583984,-41.43326187133789,6.076272010803223,-5.478546142578125,10.27662467956543,170.71461486816406,-70.97323608398438,106.44401550292967,-4.5260009765625,3.4074854850769043,5.058733940124512,131.97288513183594,64.53590393066406,172.85008239746094,-6.69614315032959,-12.202857971191406,2.522401809692383,166.78421020507812,-78.73089599609375,97.4512710571289,5.725798606872559,-1.718637466430664,3.542508125305176
1549.646772623062,110.88087463378906,-77.87158203125,-47.9488525390625,4.795936584472656,-13.040733337402344,8.949775695800781,-156.5370635986328,-69.7022705078125,-45.8889045715332,1.0018129348754885,-3.841455459594727,2.071152687072754,179.94117736816406,-71.31092071533203,92.88412475585938,-6.008614540100098,4.722589492797852,10.986339569091797,137.418701171875,72.6462173461914,171.42874145507812,-11.588239669799805,-9.702814102172852,2.4283151626586914,170.2371063232422,-77.48530578613281,93.78038024902344,7.227874755859375,1.9885952472686768,12.774307250976562
1549.6768383979795,130.47232055664062,-76.3287353515625,-69.46538543701172,-3.41373062133789,-11.419288635253906,5.41490364074707,-139.95440673828125,-70.46408081054688,-55.66761779785156,3.254530429840088,-3.6946945190429688,0.0515298843383789,-162.73263549804688,-69.21642303466797,69.37635803222656,-7.953789710998535,10.04787254333496,10.703887939453123,106.58475494384766,83.84037780761719,132.95130920410156,-6.765012741088867,1.2862882614135742,-15.288753509521484,176.1484832763672,-77.39086151123047,89.18120574951172,-1.8277935981750488,0.7717982530593872,8.364906311035156
1549.706652879715,144.70860290527344,-74.42890167236328,-81.09124755859375,-6.087270736694336,9.20891571044922,1.3561487197875977,-122.57805633544922,-67.3735580444336,-60.2939338684082,-21.46780776977539,-16.331722259521484,3.4397077560424805,-143.24234008789062,-63.39611053466797,50.79081344604492,-2.723795890808105,9.829460144042969,8.619009017944336,21.180021286010746,78.12525939941406,37.85931396484375,-11.351959228515623,-1.8664026260375977,-14.716251373291016,-174.9221954345703,-78.1971664428711,84.66793823242188,-3.697279930114746,-0.4463781714439392,2.818546295166016
1549.7668013572693,154.23297119140625,-72.8278579711914,-87.98174285888672,-4.461426734924316,-2.7541723251342773,4.820798873901367,-129.4978485107422,-59.16558456420898,-46.785400390625,-17.95560073852539,-19.53659439086914,8.475996017456055,-127.80718231201172,-55.32786178588867,40.23678207397461,1.2957537174224854,6.96296501159668,3.302719116210937,15.939056396484377,64.7890853881836,27.686203002929688,-3.570805549621582,2.0193333625793457,-7.060042381286621,-167.37249755859375,-78.50759887695312,83.6714096069336,-2.137965202331543,-2.336073398590088,-1.790607452392578
1549.7965672016144,163.93804931640625,-71.19715881347656,-94.50708770751952,-2.538343906402588,2.1026253700256348,0.8922691345214844,-140.25296020507812,-49.91301345825195,-32.04151916503906,-5.00236701965332,-14.152721405029297,0.9835805892944336,-114.58193969726562,-47.89265060424805,33.78636932373047,3.0386056900024414,2.8275628089904785,-0.1873693466186523,15.394001960754396,51.99734878540039,23.22334289550781,-0.3350228667259216,-2.55301570892334,-2.1038589477539062,-165.24703979492188,-77.69184875488281,88.76285552978516,-4.027713775634766,0.1733834743499755,-4.133265495300293
1549.8268284797668,171.1564483642578,-69.94621276855469,-101.78947448730467,0.7206907272338867,1.0003759860992432,1.139017105102539,-147.88360595703125,-42.12858963012695,-19.957019805908203,-2.8340506553649902,-5.319706916809082,-10.621988296508787,-102.6331024169922,-43.72087860107422,28.172494888305664,3.472334384918213,-1.8497533798217771,-2.378225803375244,20.64516258239746,41.1815071105957,18.68949508666992,1.7770633697509766,-7.763454437255859,1.0428152084350586,-171.30653381347656,-76.35653686523438,99.4192123413086,-2.2118940353393555,2.6845664978027344,-2.369450569152832
1549.8564188480375,177.24624633789062,-69.60334777832031,-108.23626708984376,2.4450130462646484,0.5664021968841553,1.1020641326904297,-152.2175750732422,-35.98444366455078,-10.620902061462402,-3.404761791229248,3.111945629119873,-14.046506881713867,-96.8538818359375,-42.32257843017578,23.49640846252441,4.035130500793457,-3.446476936340332,-4.188279151916504,30.5755672454834,31.711111068725582,16.239789962768555,7.12867546081543,-9.084527969360352,3.448284149169922,-178.40191650390625,-75.11054992675781,107.9825210571289,0.3994216322898865,1.425668716430664,4.39034366607666
1549.886430978775,-177.76173400878906,-70.08464813232422,-113.33366394042967,0.4616063237190246,1.1726751327514648,1.5267267227172852,-154.8270721435547,-32.26407623291016,-3.648405313491821,-3.12080717086792,4.246196746826172,-13.92905044555664,-98.50931549072266,-42.844844818115234,20.54230690002441,1.0752708911895752,-2.495382308959961,-2.174962043762207,50.1286735534668,22.60796356201172,18.95755958557129,1.6763293743133545,-4.640563011169434,-9.235483169555664,176.50082397460938,-73.44245910644531,113.71306610107422,0.9039775133132936,1.9950780868530276,8.402524948120117
1549.916152715683,-173.56117248535156,-71.47293853759766,-118.40203857421876,-0.9080854654312134,1.63250470161438,1.4923820495605469,-159.3614501953125,-30.938610076904297,1.6538015604019165,-0.1417983174324035,2.771878719329834,-9.893091201782228,-101.03922271728516,-44.6469612121582,19.084739685058597,-0.9233746528625488,1.0914320945739746,-0.9588298797607422,67.17565155029297,10.661463737487791,23.80192375183105,1.922539234161377,9.66926383972168,-0.9674415588378906,172.06857299804688,-74.26318359375,118.14021301269533,-1.35154128074646,0.5744526386260986,0.4096384048461914
1549.9460854530334,-167.73822021484375,-73.5608139038086,-126.96332550048828,-1.3944520950317385,-0.5583056211471558,0.7924709320068359,-164.0056915283203,-32.9332275390625,6.078381538391113,5.017884254455566,2.8606905937194824,-6.744629859924316,-99.91263580322266,-47.20512771606445,18.137475967407227,-1.4104292392730713,1.8935387134552,-2.892017364501953,71.23973083496094,-4.674363613128662,28.915233612060547,2.7661027908325195,6.503938674926758,-3.064292907714844,164.8869171142578,-75.05133819580078,125.18199920654295,-3.133427143096924,1.3889424800872805,-4.384875297546387
1549.97611618042,-161.97024536132812,-74.77105712890625,-135.37059020996094,-0.2048478424549102,-2.3858232498168945,-1.2177934646606443,-170.3692626953125,-37.63310241699219,9.77016544342041,9.322160720825195,1.4467153549194336,-3.2921385765075684,-97.66075134277344,-49.77999114990234,16.51519203186035,-0.3892983794212341,1.3039283752441406,-6.355686187744141,69.83504486083984,-23.91769790649414,34.63060760498047,9.20767593383789,9.040939331054688,-3.5060133934021,157.5819854736328,-74.75325775146484,131.6592254638672,-2.342437744140625,0.5478048324584961,-5.795421600341797
1550.00594496727,-162.0390167236328,-74.27322387695312,-135.69459533691406,-0.5054110288619995,-3.393247127532959,-2.1698570251464844,-176.30284118652344,-43.550052642822266,12.938833236694336,-0.613674521446228,8.194183349609375,8.048259735107422,-96.9393539428711,-52.08757019042969,13.514622688293455,-1.2687740325927734,0.8943381309509277,-7.570273399353027,67.84857940673828,-45.53871536254883,42.37931060791016,17.545406341552734,17.76004409790039,18.785289764404297,152.13804626464844,-74.14474487304688,135.3673095703125,-0.0213686190545558,-0.6167608499526978,-5.565932273864746
1550.066367149353,-168.9394989013672,-72.00402069091797,-126.2767333984375,2.9431872367858887,-4.796680450439453,-3.3326849937438965,-177.10604858398438,-45.08295822143555,15.424083709716797,9.14324951171875,2.287477970123291,2.075490951538086,-95.88735961914062,-54.106178283691406,9.469314575195312,-3.161041736602783,2.170385837554932,-5.671633720397949,59.667964935302734,-60.05707550048828,54.03981018066406,-7.139469146728516,3.391340732574463,35.12236022949219,147.2880401611328,-73.47930145263672,137.5001983642578,1.8912642002105715,-0.8717912435531616,-5.864954948425293
1550.0964534282684,-175.39559936523438,-68.34330749511719,-115.61768341064452,0.4713731408119201,-0.2794564366340637,0.8900947570800781,179.45223999023438,-45.70269393920898,17.445341110229492,11.477745056152344,4.193499565124512,0.0320568084716796,-91.81246185302734,-55.524227142333984,3.5935187339782715,-3.064455986022949,2.398566722869873,-4.199529647827148,63.19547271728516,-61.9449462890625,44.67354965209961,4.796869277954102,-4.9588165283203125,2.136858940124512,142.31869506835938,-73.2078628540039,139.3703155517578,3.213742256164551,-2.059576988220215,-6.79295539855957
1550.12672662735,179.02728271484375,-63.60939407348633,-107.9784927368164,2.485203266143799,0.1067364811897277,0.1618576049804687,176.8979034423828,-45.85503005981445,17.507905960083008,11.401975631713867,9.027265548706056,4.545256614685059,-89.03233337402344,-55.22977066040039,-3.9187498092651367,-3.403432846069336,4.797825813293457,-2.5041422843933105,74.94020080566406,-57.81583023071289,26.853694915771484,4.958337783813477,2.564818859100342,-0.5642948150634766,136.92417907714844,-73.01234436035156,142.91981506347656,-2.4776644706726074,-1.7987802028656006,-5.76814079284668
1550.1562323570251,175.7980194091797,-58.87942123413086,-104.62691497802734,0.1759968698024749,3.919674873352051,-5.285465240478516,176.99594116210938,-43.4706916809082,15.66002082824707,12.436908721923828,-2.6716785430908203,10.263927459716797,-84.73739624023438,-52.48094177246094,-13.24712371826172,-8.133447647094727,10.507349014282228,7.399866104125977,82.30282592773438,-52.33890151977539,16.394058227539062,5.937379837036133,-0.256432831287384,4.829429626464844,134.8421173095703,-70.81031036376953,144.2179412841797,-7.818122863769531,1.819063663482666,4.5366716384887695
1550.1865985393524,174.99156188964844,-54.83793640136719,-103.11659240722656,2.9476518630981445,-1.640850305557251,0.4977970123291015,-179.06076049804688,-39.71259307861328,14.909767150878906,15.889467239379885,-6.660667419433594,14.103797912597656,-83.87291717529297,-46.201934814453125,-21.109270095825195,-16.33838653564453,21.0341796875,9.652645111083984,77.04251861572266,-50.053653717041016,16.62421989440918,12.04871940612793,1.113248348236084,1.204853057861328,135.36659240722656,-69.99844360351562,145.13829040527344,-3.5532774925231934,-2.2849435806274414,3.305649757385254
1550.2167842388153,176.3852996826172,-51.911014556884766,-103.12738800048828,1.2124531269073486,0.9735057353973388,0.0207538604736328,-169.23715209960938,-35.714599609375,15.268387794494627,25.94291305541992,-2.162832260131836,13.938791275024414,-78.56544494628906,-35.313167572021484,-24.72490119934082,-15.017709732055664,38.531005859375,23.86229705810547,78.31078338623047,-50.539310455322266,24.227296829223636,22.33251190185547,9.521738052368164,0.5046510696411133,138.343505859375,-69.7122573852539,143.61715698242188,1.1687376499176023,3.811634540557861,12.084793090820312
1550.2459156513214,177.7507781982422,-50.67958068847656,-103.55120849609376,-3.499186515808105,0.8674970865249634,6.705005645751953,-168.31031799316406,-32.72875213623047,15.23177433013916,14.40629768371582,-3.985838413238525,-1.93147087097168,-64.99319458007812,-19.82304573059082,-25.039670944213867,-7.781258583068848,18.36508560180664,26.08660888671875,91.09015655517578,-52.66437149047852,31.78501319885254,1.369542360305786,8.405086517333984,17.36190414428711,137.74761962890625,-70.96429443359375,144.4183349609375,-4.900094985961914,-1.841679096221924,16.37338638305664
1550.2795615196228,178.9130401611328,-51.6289291381836,-102.94866943359376,0.5598205327987671,1.7660505771636963,3.7409896850585938,-172.52606201171875,-29.89242553710937,15.98020076751709,4.279464721679688,10.998062133789062,12.50408935546875,-48.99191284179688,-4.907214164733887,-22.596445083618164,-4.04732608795166,2.0265913009643555,16.566749572753906,91.62419891357422,-56.01093673706055,35.54087448120117,3.690438747406006,-2.711632251739502,12.64521026611328,136.18362426757812,-72.06877899169922,146.97947692871094,-1.507357835769653,-1.4487872123718262,7.852634429931641
1550.3073375225067,-179.94020080566406,-54.786869049072266,-102.16695404052734,-0.336026668548584,2.076775550842285,2.918323516845703,-174.11065673828125,-31.8497257232666,15.434869766235352,1.4112017154693604,7.845802307128906,-3.984769821166992,-33.668907165527344,6.752522468566895,-19.89313697814941,-3.265535354614258,-9.330793380737305,8.027326583862305,83.54413604736328,-59.82499313354492,39.49357223510742,3.7311816215515137,-0.0521174073219299,4.5208234786987305,136.07980346679688,-73.68682098388672,148.08229064941406,-0.4244216084480285,0.3431580662727356,7.98956298828125
1550.366631269455,-178.00900268554688,-60.11104583740234,-102.25289154052734,-3.850212574005127,2.022128105163574,3.4588394165039062,-174.130126953125,-36.88450241088867,12.920646667480469,-5.341544151306152,10.33732795715332,-7.869618415832519,-21.808988571166992,15.876631736755373,-17.07395362854004,-2.888974189758301,-9.78156852722168,-2.873159408569336,81.27466583251953,-62.81502532958984,47.27173614501953,0.2712287902832031,3.842438697814941,-0.3632802963256836,135.82113647460938,-75.57274627685547,149.75567626953125,-2.360593795776367,1.555532693862915,4.29630184173584
1550.3968415260315,-175.6218719482422,-67.48684692382812,-102.5785903930664,-8.457754135131836,0.6353762149810791,5.897387504577637,-168.67491149902344,-44.00020599365234,7.176380634307861,-5.44493293762207,8.135931015014648,-11.958887100219728,-17.112762451171875,23.062843322753903,-14.172041893005373,-3.2304224967956543,-2.681252956390381,-7.162032127380371,85.4322509765625,-64.56494140625,57.944183349609375,-7.202515602111816,-0.5961639881134033,-1.905658721923828,139.94888305664062,-77.32413482666016,147.09130859375,-2.686711311340332,1.7355561256408691,-1.83366060256958
1550.4264459609983,-174.54734802246094,-76.66477966308594,-105.6133041381836,-5.2345781326293945,-4.040462493896484,3.36295223236084,-161.8213653564453,-51.22101593017578,-2.957484722137451,-4.417355537414551,4.908115386962891,-12.916305541992188,-13.174602508544922,28.073078155517575,-14.244510650634766,0.465569257736206,-6.013422966003418,-3.917240619659424,88.07557678222656,-64.39775848388672,68.6867446899414,-6.5114288330078125,-5.400795936584473,-4.653790473937988,152.71560668945312,-78.40677642822266,136.0417938232422,-3.303330421447754,0.8690609931945801,-5.51937198638916
1550.4567215442655,179.97293090820312,-80.32955932617188,-96.96532440185548,6.396409034729004,4.610424041748047,-3.680572509765625,-152.8444366455078,-57.62533187866211,-18.20050811767578,-4.348649024963379,-0.9362342357635498,-11.586174011230469,-5.282500743865967,32.695980072021484,-21.32864189147949,3.8289437294006343,-3.664896488189697,-9.100700378417969,86.85344696044922,-62.50665283203125,77.22945404052734,-2.618077754974365,-5.237292289733887,-7.431109428405762,164.32659912109375,-78.07102966308594,126.2459945678711,1.017364740371704,1.6345932483673096,-9.806900024414062
1550.4865460395813,169.3317108154297,-76.29940795898438,-82.7731704711914,7.109895706176758,11.898042678833008,-4.0970611572265625,-144.7255401611328,-61.81578826904297,-35.67909622192383,-6.536342620849609,-7.258648872375488,-8.47526741027832,-1.4628902673721311,36.61061096191406,-34.770599365234375,2.5137829780578613,-2.1201815605163574,-16.191776275634766,85.37918853759766,-59.392860412597656,83.1293716430664,-0.8170713186264038,-3.300436496734619,-9.028085708618164,165.42941284179688,-77.69207763671875,125.64679718017578,3.5675196647644043,1.2746586799621582,-9.598211288452148
1550.5165638923645,165.42445373535156,-68.27555084228516,-75.63053894042969,7.437566757202148,-8.478322982788086,-8.176654815673828,-139.40145874023438,-64.63456726074219,-51.97992706298828,-9.72446632385254,-6.128897666931152,-1.1218318939208984,-8.110567092895508,36.696388244628906,-52.49822616577149,4.1303300857543945,-2.855954647064209,-19.776641845703125,84.64936828613281,-55.96435546875,87.12319946289062,-0.6204217672348022,-2.853572368621826,-8.782840728759766,160.2200164794922,-78.6480484008789,130.26144409179688,-0.205613374710083,2.1420822143554688,-7.574941635131836
1550.5465717315674,168.8194580078125,-66.4162368774414,-73.52127838134766,5.231466293334961,-14.666067123413086,-20.613018035888672,-136.20333862304688,-66.708740234375,-63.96112823486328,-13.972467422485352,-11.238964080810549,2.2362794876098637,-16.993213653564453,32.678466796875,-71.7152099609375,1.4565348625183103,-19.17486572265625,-18.97504425048828,83.70281982421875,-52.9614486694336,89.6176986694336,-0.4768557548522949,-3.058268547058105,-8.375062942504883,151.8130645751953,-80.17510986328125,138.90809631347656,-3.915318489074707,2.4546146392822266,-6.956094741821289
1550.5766651630402,169.72796630859375,-66.76860046386719,-75.10201263427734,-14.334226608276367,2.9647908210754395,12.668987274169922,-138.94224548339844,-66.86615753173828,-65.81813049316406,-17.534564971923828,-9.663223266601562,1.6105403900146484,-18.45991516113281,30.093862533569336,-86.26537322998047,-7.448546409606934,-8.18414306640625,-17.206851959228516,82.75050354003906,-51.20138168334961,90.72810363769533,0.0452903732657432,-3.254767894744873,-7.924354553222656,144.4249267578125,-81.04740142822266,147.20220947265625,0.1220500022172927,-1.0517146587371826,-7.471467018127441
