Timestamp,D4:22:CD:00:05:5D_EulerX,D4:22:CD:00:05:5D_EulerY,D4:22:CD:00:05:5D_EulerZ,D4:22:CD:00:05:5D_FreeAccX,D4:22:CD:00:05:5D_FreeAccY,D4:22:CD:00:05:5D_FreeAccZ,D4:22:CD:00:05:5E_EulerX,D4:22:CD:00:05:5E_EulerY,D4:22:CD:00:05:5E_EulerZ,D4:22:CD:00:05:5E_FreeAccX,D4:22:CD:00:05:5E_FreeAccY,D4:22:CD:00:05:5E_FreeAccZ,D4:22:CD:00:05:6B_EulerX,D4:22:CD:00:05:6B_EulerY,D4:22:CD:00:05:6B_EulerZ,D4:22:CD:00:05:6B_FreeAccX,D4:22:CD:00:05:6B_FreeAccY,D4:22:CD:00:05:6B_FreeAccZ,D4:22:CD:00:05:6E_EulerX,D4:22:CD:00:05:6E_EulerY,D4:22:CD:00:05:6E_EulerZ,D4:22:CD:00:05:6E_FreeAccX,D4:22:CD:00:05:6E_FreeAccY,D4:22:CD:00:05:6E_FreeAccZ,D4:22:CD:00:49:AA_EulerX,D4:22:CD:00:49:AA_EulerY,D4:22:CD:00:49:AA_EulerZ,D4:22:CD:00:49:AA_FreeAccX,D4:22:CD:00:49:AA_FreeAccY,D4:22:CD:00:49:AA_FreeAccZ
2311.771255254745,176.5529327392578,-48.41401290893555,-116.11151123046876,-2.2770209312438965,2.4378037452697754,3.4409894943237305,-168.15879821777344,-62.3680419921875,10.277716636657717,0.3260083794593811,-0.1736693382263183,7.610679626464844,-66.93116760253906,-24.363601684570312,-67.75972747802734,-5.437341690063477,23.02458953857422,24.503475189208984,129.73480224609375,-56.573341369628906,-38.24881362915039,11.852222442626951,-3.573683261871338,11.961780548095703,140.9839324951172,-71.20491027832031,148.98379516601562,-5.02006721496582,-0.3582684397697449,12.589082717895508
2311.8557817935944,179.9909210205078,-51.77155685424805,-86.28691101074219,3.2248263359069824,1.3578896522521973,2.1187610626220703,152.14744567871094,-68.95806884765625,5.110583782196045,2.1550073623657227,2.834834098815918,5.095344543457031,-76.0207748413086,-4.601974487304688,-53.18238830566406,4.188253402709961,4.025873184204102,29.055419921875,5.403509616851807,-73.9835433959961,134.9382781982422,-4.346299171447754,2.8574376106262207,16.912925720214844,178.18789672851562,-73.74173736572266,101.66614532470705,2.763418674468994,1.1899957656860352,6.191827774047852
2311.886322259903,-177.34535217285156,-49.33602523803711,-86.63470458984375,-2.028633117675781,0.1911661624908447,2.342266082763672,168.36013793945312,-73.41484069824219,-8.782038688659668,0.8476009368896484,6.581087112426758,0.8105144500732422,-68.86607360839844,7.750172138214111,-46.68594741821289,2.5600085258483887,-7.477154731750488,23.918182373046875,25.53641891479492,-73.7184829711914,122.94393920898438,-8.509925842285156,3.7900466918945312,13.022281646728516,153.6189422607422,-71.46794128417969,125.89962005615234,-3.174354553222656,-1.060795545578003,9.82221794128418
2311.946314096451,-176.10028076171875,-49.7684211730957,-86.64322662353516,-2.798100471496582,0.4016541242599487,3.838846206665039,-157.08135986328125,-76.76762390136719,-41.14067077636719,0.975593090057373,7.294712066650391,-2.27033805847168,-59.6276969909668,15.877546310424805,-38.72192001342773,5.611250877380371,-16.584510803222656,15.996671676635742,70.00819396972656,-74.84163665771484,94.66179656982422,-8.656888961791992,-2.57267427444458,7.58751106262207,158.91334533691406,-70.61420440673828,121.86839294433594,-5.0575151443481445,0.6429010629653931,11.559051513671877
2311.9765412807465,-175.5709991455078,-52.91670608520508,-86.1140365600586,-4.390092849731445,-0.8509589433670044,5.265716552734375,-117.0568618774414,-76.18379211425781,-81.06707763671875,0.8251509666442871,5.853242874145508,-4.579071998596191,-49.01251602172852,21.20535087585449,-36.768287658691406,8.03219985961914,-25.99990463256836,8.528196334838867,93.1883773803711,-73.472900390625,83.90362548828125,-2.3599743843078613,-4.924291610717773,1.010605812072754,170.59988403320312,-71.97943115234375,113.02660369873048,-3.729217529296875,0.8395355939865112,10.841205596923828
2312.006074666977,-175.54832458496094,-58.41180419921875,-83.822021484375,-5.466338157653809,-4.86367130279541,8.04708480834961,-90.9690170288086,-71.9540786743164,-110.412841796875,-0.0929566323757171,2.9014711380004883,-6.1481122970581055,-37.06724166870117,25.606050491333008,-40.29278945922852,-1.6604242324829102,-15.864534378051758,-9.225940704345703,98.14381408691406,-77.29398345947266,89.32013702392578,-0.3140223622322082,-5.558769226074219,-4.2928009033203125,-176.82989501953125,-73.85343170166016,103.76053619384766,-0.6324477195739746,1.5380103588104248,6.6916046142578125
2312.0362708568573,179.42855834960938,-66.44119262695312,-82.52049255371094,-2.328904628753662,-12.194507598876951,3.515721321105957,-76.74588012695312,-66.85786437988281,-130.2152557373047,-2.507598876953125,0.0667678117752075,-6.430341720581055,-32.072174072265625,29.368328094482425,-44.60575485229492,-6.437186241149902,-3.5560097694396973,-10.312978744506836,87.50222778320312,-85.58173370361328,111.32530212402344,-1.8825798034667969,-5.791191101074219,-7.1201934814453125,-166.15109252929688,-75.01245880126953,96.58589935302734,-2.058457851409912,0.4871724247932434,2.011416435241699
2312.0663607120514,170.77423095703125,-70.29561614990234,-74.29039001464844,4.014392852783203,3.032910823822021,-4.684056282043457,-67.27925109863281,-61.92865753173828,-146.12155151367188,-5.962574005126953,-0.2552315592765808,-5.419048309326172,-31.613964080810547,33.53485107421875,-48.15544128417969,-3.020301818847656,-1.1409993171691897,-8.068071365356445,-50.09970474243164,-83.12641906738281,-97.7509536743164,-1.156348705291748,-10.6492919921875,-8.088428497314453,-156.41525268554688,-75.59640502929688,90.22282409667967,-1.684257984161377,-1.031320571899414,-6.461137771606445
2312.0958881378174,168.06170654296875,-68.95327758789062,-66.62879943847656,7.862796783447266,5.757725715637207,-6.475059509277344,-60.75657653808594,-57.14339447021485,-158.6536102294922,-8.1026611328125,2.23899507522583,-5.446147918701172,-32.0313835144043,38.80272674560547,-53.21162033081055,-1.1619482040405271,-4.20878791809082,-10.056785583496094,-56.48476409912109,-73.9155502319336,-82.1798095703125,3.6510629653930655,-10.907377243041992,-11.025596618652344,-150.34249877929688,-75.80562591552734,85.95458984375,3.070906162261963,1.5348267555236816,-13.789506912231444
2312.1258883476257,169.1812744140625,-67.9981460571289,-61.29232025146485,4.891757965087891,-8.116939544677734,-13.756063461303713,-56.983211517333984,-52.52447128295898,-166.77639770507812,-8.881647109985352,3.998490810394287,-7.543390274047852,-33.12227249145508,43.39934158325195,-60.52753829956055,-3.914066791534424,-2.5815820693969727,-12.002008438110352,-58.61954498291016,-67.74443817138672,-75.43626403808594,4.862068176269531,-4.5944671630859375,-12.343832015991213,-148.76609802246094,-76.82986450195312,86.256103515625,3.2372069358825684,0.7073087692260742,-10.844797134399414
2312.1558883190155,170.5750274658203,-71.70785522460938,-59.6630744934082,6.313742637634277,-1.7216949462890625,-10.480276107788086,-57.99668884277344,-48.90045547485352,-170.50003051757812,-13.38737678527832,1.604544162750244,-11.916305541992188,-36.66271209716797,45.161376953125,-71.15145111083984,1.8355536460876465,1.7032675743103027,-12.433097839355469,-58.98921585083008,-63.37003707885742,-71.0464859008789,4.588233947753906,-2.250896453857422,-10.318073272705078,-150.61831665039062,-78.17808532714844,89.00064849853516,0.6018962860107422,-0.0841406732797622,-8.021112442016602
2312.1864399909973,175.1176300048828,-73.75823211669922,-61.47356796264648,-15.825984954833984,17.144451141357422,-1.4808235168457031,-63.874473571777344,-48.80590438842773,-169.87135314941406,-18.41370010375977,10.451154708862305,-13.703622817993164,-44.92280197143555,42.41333770751953,-88.38204956054688,2.340618133544922,0.1746272444725036,-14.92780303955078,-56.15391540527344,-59.85792922973633,-69.36094665527344,6.00007438659668,-2.681437969207764,-10.096818923950195,-152.31735229492188,-79.03010559082031,91.23053741455078,-0.4189342260360718,-0.9482839107513428,-10.168363571166992
2312.2464356422424,173.07568359375,-68.95796966552734,-54.78417205810547,4.341987609863281,-11.051773071289062,-6.489533424377441,-73.63538360595703,-52.074520111083984,-162.0462646484375,-17.601707458496094,3.461338520050049,-14.405437469482422,-50.01648712158203,30.736251831054688,-106.97390747070312,-14.824861526489258,-14.00560188293457,-18.37929916381836,-52.673709869384766,-57.05479431152344,-69.7905502319336,5.364072799682617,-3.590919017791748,-9.95181655883789,-152.22659301757812,-80.01286315917969,92.20606231689452,-0.3165639042854309,-1.1704082489013672,-8.168693542480469
2312.276453256607,173.21127319335938,-65.1149673461914,-49.93545150756836,-1.6076102256774902,-1.2670338153839111,3.781217575073242,-89.393310546875,-55.40006637573242,-147.2108154296875,-8.038064956665039,-23.410720825195312,3.819371223449707,-36.92815780639648,19.80432510375977,-119.387939453125,-16.98291778564453,3.5181760787963867,-17.87259292602539,-50.82387924194336,-54.74497604370117,-70.55177307128906,5.071152687072754,-5.340938568115234,-6.646930694580078,-153.2906951904297,-80.79572296142578,93.2088851928711,0.3115522265434265,0.1760101914405822,-2.5953097343444824
2312.306059360504,170.67369079589844,-63.22040939331055,-45.285255432128906,0.1657595336437225,-1.1854560375213623,4.730222702026367,-95.5879364013672,-58.70527267456055,-136.38609313964844,-3.1529831886291504,-15.813236236572266,0.0347251892089843,-38.464263916015625,21.693893432617188,-115.6952896118164,5.408994674682617,15.414167404174805,-3.5024070739746094,-49.17317581176758,-52.73859024047852,-70.89295196533203,4.661192893981934,-8.012523651123047,-2.837519645690918,-156.7967071533203,-81.2789077758789,95.042236328125,0.753045916557312,-1.444140911102295,6.817163467407227
2312.336059093476,166.53211975097656,-62.3609733581543,-40.63824081420898,1.8887994289398196,-2.5199971199035645,8.273294448852539,-108.1052703857422,-60.79977035522461,-125.29857635498048,3.1863746643066406,-1.2807517051696775,13.601837158203123,-45.830711364746094,24.13569641113281,-105.6559600830078,-8.266195297241211,-0.8119945526123047,-2.172701358795166,-45.34567260742188,-51.84024810791016,-69.60406494140625,6.722431182861328,-10.460132598876951,1.2667522430419922,-164.53219604492188,-81.8008041381836,100.21422576904295,-5.520872116088867,-0.9403579235076904,7.639822006225586
2312.3660736083984,160.2866973876953,-61.94231796264648,-35.45773696899414,-2.1813244819641118,-3.518332004547119,6.222936630249023,-121.55801391601562,-60.38848114013672,-116.99352264404295,-0.3636052012443542,0.3915159106254577,2.9874658584594727,-43.44487380981445,23.070039749145508,-96.92008209228516,-1.9199025630950928,-0.407805860042572,-1.0463190078735352,-40.87948989868164,-51.47195053100586,-65.77269744873047,15.164051055908203,-8.15396499633789,4.123065948486328,-167.18963623046875,-81.5328369140625,100.69578552246094,-4.3108015060424805,-1.8072497844696045,6.471735000610352
2312.395608186722,152.35589599609375,-61.938941955566406,-30.606983184814453,0.4182810187339782,-2.8311634063720703,5.603180885314941,-129.45213317871094,-61.33181381225586,-111.89549255371094,-6.648226737976074,-2.339846134185791,-1.6146583557128906,-47.14266586303711,20.47630882263184,-86.36723327636719,-5.88693904876709,-2.5961570739746094,-0.3923053741455078,-41.62535858154297,-51.70603561401367,-59.98899841308594,16.88125228881836,-5.83746337890625,-1.316237449645996,-168.52008056640625,-81.08218383789062,99.48527526855467,0.7976957559585571,-1.5471696853637695,2.973428726196289
2312.4266080856323,141.91708374023438,-63.5570068359375,-25.815927505493164,3.684484004974365,-2.3027877807617188,4.529504776000977,-132.7581329345703,-63.7275390625,-108.09041595458984,-2.325467586517334,-3.4271392822265625,4.052448272705078,-52.12437438964844,16.456375122070312,-74.0103530883789,-12.258993148803713,-4.365966796875,-2.648054599761963,-56.31901168823242,-53.79216384887695,-53.7149772644043,13.549312591552734,-6.930689811706543,-5.555241584777832,-169.67825317382812,-80.25035095214844,97.19152069091795,2.4763245582580566,-1.401449203491211,2.861513137817383
2312.4557061195374,131.71551513671875,-63.65193939208984,-22.14884376525879,8.296205520629883,11.051267623901367,-2.660334587097168,-136.22393798828125,-65.75589752197266,-104.67222595214844,-3.928502559661865,-2.374485492706299,-0.2528085708618164,-52.60477828979492,10.601041793823242,-61.08958053588867,-6.5421295166015625,-3.044278621673584,-7.546199798583984,-80.19104766845703,-57.51800537109375,-46.80653381347656,5.308209419250488,-3.657481193542481,-1.3058195114135742,-166.6306610107422,-78.99797821044922,90.74999237060548,4.443452835083008,-0.1657852530479431,1.6414384841918943
2312.486249446869,132.64944458007812,-60.96826553344727,-27.4625301361084,3.5863704681396484,20.613937377929688,2.069823265075684,-137.8484344482422,-67.77852630615234,-102.6084213256836,-4.458606719970703,-2.44819450378418,-1.0909128189086914,-55.17696380615234,2.7259597778320312,-47.26593399047852,-4.07955265045166,-0.7489646673202515,-5.849316596984863,-96.96521759033205,-59.8544921875,-42.21550750732422,3.4952406883239746,6.00655460357666,2.3018150329589844,-163.1232452392578,-78.017333984375,85.14511108398438,5.333325386047363,-0.0062632793560624,-0.7554092407226562
2312.546249628067,138.5580596923828,-55.62810134887695,-39.00416564941406,6.991793632507324,14.607139587402344,1.698137283325195,-137.7295684814453,-70.11258697509766,-101.68621826171876,-3.3720827102661133,-4.375932693481445,0.2322139739990234,-63.6080436706543,-5.385368347167969,-31.92031478881836,2.127678394317627,-1.677989482879639,-8.399330139160156,-97.84265899658205,-59.59049987792969,-45.823463439941406,4.241768836975098,-0.4115416407585144,4.214760780334473,-161.40065002441406,-77.5340347290039,82.67078399658203,2.558057308197021,-2.7151408195495605,1.7388029098510742
2312.57626247406,146.36264038085938,-48.61648178100586,-51.17350387573242,7.07140064239502,3.9326095581054688,-1.6034221649169922,-134.5270538330078,-73.13158416748047,-101.86774444580078,-1.7007696628570557,-4.486050605773926,-0.0921697616577148,-77.37985229492188,-11.550355911254885,-16.07862663269043,6.85353946685791,3.074146270751953,4.989792823791504,-93.176025390625,-59.57921600341797,-53.00898361206055,0.7826844453811646,-6.267984390258789,1.820465087890625,-158.93572998046875,-78.05598449707031,80.91736602783203,3.3623180389404297,0.3939489722251892,1.898259162902832
2312.605797290802,154.49896240234375,-41.04159927368164,-61.04356002807617,4.411325454711914,0.854739785194397,-3.369295597076416,-130.43663024902344,-74.88426971435547,-101.20208740234376,-2.542937755584717,-1.5638220310211182,-2.58194351196289,-84.83840942382812,-15.677215576171877,-3.192704200744629,3.0345687866210938,6.333819389343262,4.189828872680664,-88.04255676269531,-61.03752899169922,-58.27511215209961,-0.4894757866859436,-4.501741409301758,0.5582246780395508,-156.44741821289062,-78.73626708984375,78.91482543945312,6.060890197753906,1.7510943412780762,-1.5349225997924805
2312.635802030564,162.2163543701172,-34.27374267578125,-68.99513244628906,0.9296888113021852,-1.4573419094085691,-6.566102027893066,-133.76812744140625,-73.33324432373047,-95.8316421508789,-2.6603751182556152,-3.1883602142333984,-2.835668563842773,-84.3138427734375,-18.69419288635254,6.278417587280273,-2.363419532775879,4.851404190063477,6.713428497314453,-81.21128845214844,-63.830413818359375,-62.2161865234375,-2.0657272338867188,-5.761688232421875,-2.881126880645752,-156.74093627929688,-79.28270721435547,79.06204986572266,5.029386520385742,0.5658391714096069,-2.373854160308838
2312.6658113002777,168.0394744873047,-29.44977760314941,-75.95711517333984,-2.8178963661193848,-2.1927642822265625,-9.369302749633787,-139.65567016601562,-69.1315689086914,-90.75047302246094,-2.902286529541016,-2.1843414306640625,-2.8884482383728027,-77.80260467529297,-21.168603897094727,12.788864135742188,-2.392372131347656,5.002798080444336,-3.769954204559326,-73.70370483398438,-66.84052276611328,-66.68993377685547,-2.262415885925293,-6.469568252563477,-5.149080276489258,-157.68675231933594,-79.75068664550781,79.67141723632812,1.4533896446228027,-0.4143567085266113,-2.631481170654297
2312.696340084076,170.94204711914062,-26.88626480102539,-82.40580749511719,-5.288962364196777,-2.273748874664306,-8.640869140625,-145.73580932617188,-62.97369766235352,-88.26939392089844,-3.842630386352539,4.296764373779297,-6.459125518798828,-75.87286376953125,-25.44472885131836,18.406253814697266,0.2806169986724853,4.981427192687988,-10.889095306396484,-65.9402847290039,-69.92562866210938,-72.20101928710938,-1.5761520862579346,-4.929473876953125,-6.418481826782227,-157.33233642578125,-80.16766357421875,79.48570251464844,0.1605825424194336,-0.9795697927474976,-3.6398773193359375
2312.7257540225983,171.19168090820312,-26.848752975463867,-88.27485656738281,-6.798102378845215,-7.331727981567383,-9.170949935913086,-150.01959228515625,-57.4940185546875,-87.1772232055664,-10.377603530883787,-8.18260383605957,-3.1879844665527344,-82.73983001708984,-32.39379119873047,25.6483211517334,2.6818289756774902,3.6596579551696777,-6.72386360168457,-57.38158798217773,-72.79967498779297,-78.52201843261719,-0.2221261858940124,-3.0877232551574707,-7.06436824798584,-155.52613830566406,-80.72108459472656,78.30775451660156,1.3091530799865725,-0.2447951436042785,-6.599631309509277
2312.785289049149,169.62554931640625,-27.83690452575684,-91.5840301513672,-12.798221588134766,-1.924822807312012,12.82062530517578,-150.08421325683594,-56.14860916137695,-85.69772338867188,-0.8945932388305664,0.1917898654937744,3.9794530868530273,-92.0448226928711,-41.86347198486328,34.777854919433594,2.9765734672546387,8.496103286743164,5.90889835357666,-46.62687301635742,-75.2532958984375,-86.34938049316406,1.5524771213531494,-3.248335361480713,-7.22749137878418,-154.2794647216797,-81.09711456298828,77.522705078125,2.2587099075317383,0.4526650309562683,-7.937712669372559
2312.7882857322693,165.8392333984375,-25.776575088500977,-91.02860260009766,-8.45987319946289,-11.335243225097656,4.157009124755859,-150.94749450683594,-53.410343170166016,-85.8623046875,-3.720017433166504,-2.502413272857666,1.0494604110717771,-93.7089385986328,-55.00508880615234,43.14028549194336,4.292183876037598,16.116840362548828,18.186389923095703,-35.36725616455078,-77.5752182006836,-96.66678619384766,5.331695556640625,-5.299291610717773,-7.27418041229248,-152.03158569335938,-81.41773223876953,73.86164855957031,6.995417594909668,-0.5591118335723877,-1.654916763305664
2312.8462855815887,170.10072326660156,-23.156423568725582,-87.87316131591797,-4.104683876037598,-16.216785430908203,2.104912757873535,-151.7393035888672,-52.12581634521485,-85.39421081542969,-2.353884220123291,-0.6364837884902954,2.484532356262207,-84.88472747802734,-67.7834701538086,45.86163711547852,12.45982551574707,14.202081680297852,22.145557403564453,-40.05533599853516,-79.48700714111328,-101.8920669555664,9.43065071105957,-6.123116493225098,-6.73952579498291,-144.3023681640625,-82.4269790649414,61.92565155029297,2.382328510284424,-1.965248107910156,1.9790172576904297
2312.876299142837,178.06805419921875,-21.21442413330078,-84.15327453613281,-3.741033554077149,-16.56865692138672,5.466682434082031,-153.25924682617188,-51.76853561401367,-84.87877655029297,-4.16552734375,-1.0278582572937012,0.6639289855957031,-77.05049133300781,-69.31715393066406,41.23846054077149,8.391960144042969,13.36088752746582,2.863744735717773,-48.01186752319336,-81.1030502319336,-110.60067749023438,22.077896118164062,-5.692096710205078,10.232458114624023,-140.66587829589844,-81.74881744384766,56.223236083984375,-7.102712631225586,-3.634609222412109,0.7243766784667969
2312.9058361053467,-178.63040161132812,-17.85623550415039,-82.14886474609375,-2.7427005767822266,-14.463373184204102,12.666976928710938,-154.81788635253906,-51.88051223754883,-85.51806640625,-5.518003463745117,-2.470221996307373,-0.0359954833984375,-74.68304443359375,-63.484657287597656,34.53345489501953,12.313850402832031,10.13116455078125,2.0615034103393555,-12.322989463806152,-80.35549926757812,-154.62574768066406,25.86328125,-12.213628768920898,15.76519775390625,-141.9090118408203,-80.63687133789062,58.40286636352539,4.615392684936523,1.3101310729980469,7.392797470092773
2312.9358360767365,176.4556121826172,-13.656271934509276,-82.39505767822266,-3.756481170654297,-11.305191040039062,14.000049591064451,-155.3859100341797,-54.16596221923828,-87.420654296875,-4.247982978820801,-1.4970142841339111,2.1196508407592773,-78.03427124023438,-56.2944450378418,25.158323287963867,9.99931526184082,4.184898376464844,10.656326293945312,18.13069725036621,-70.41075897216797,166.12452697753906,23.81859970092773,-14.051324844360352,25.189189910888672,-149.02297973632812,-79.52505493164062,64.60684967041016,6.705891609191895,2.1366405487060547,7.933135986328125
2312.9659790992737,171.54847717285156,-9.164144515991213,-84.06034851074219,-4.221656799316406,-7.416848182678223,10.185314178466797,-154.78976440429688,-59.34945297241211,-90.3028335571289,-3.861696243286133,-1.1121091842651367,4.9213457107543945,-79.98468017578125,-49.93458557128906,14.209755897521973,10.4715576171875,-1.6831412315368652,12.607023239135742,19.17206382751465,-53.84943389892578,153.3904571533203,11.556087493896484,-8.660650253295898,24.998367309570312,-156.8091583251953,-80.00920867919922,70.92707061767578,2.4854893684387207,1.811105251312256,8.743658065795898
2312.9965102672577,170.0846710205078,-5.7779645919799805,-85.88697814941406,-6.274832725524902,-3.2218055725097656,3.71556568145752,-148.34230041503906,-68.13985443115234,-96.59526824951172,-4.875619888305664,-14.563552856445312,9.62835693359375,-79.05281829833984,-45.60694885253906,4.680996417999268,9.15689468383789,-2.7819619178771973,5.356739044189453,13.062615394592283,-35.4379768371582,148.46487426757812,1.6951241493225098,-2.4225072860717773,15.502496719360352,-165.6301727294922,-80.21800994873047,78.5213623046875,4.168623924255371,2.815061092376709,10.644067764282228
2313.0265073776245,169.6458282470703,-4.785374164581299,-87.44374084472656,-7.054775238037109,0.1780517399311065,-4.118559837341309,-122.3155746459961,-77.13141632080078,-116.25457763671876,-12.261922836303713,0.7413835525512695,-1.247406005859375,-81.32032775878906,-43.73349380493164,-1.976897120475769,4.1526288986206055,-0.6874140501022339,1.8487529754638672,6.139456748962402,-17.371387481689453,146.89053344726562,-3.4521985054016118,-0.5577312707901001,7.288942337036133,-174.77249145507812,-80.64166259765625,85.64310455322266,6.269474983215332,3.159534454345703,6.927312850952148
2313.0565111637115,166.48599243164062,-6.858757495880127,-88.67822265625,-6.712175369262695,0.1459123790264129,-13.337686538696287,-99.65117645263672,-79.02941131591797,-131.05323791503906,-11.873769760131836,18.213191986083984,-11.089544296264648,-84.76602172851562,-44.63045883178711,-6.330026626586914,-0.2985497117042541,0.4303741455078125,0.0592460632324218,1.527031421661377,-0.4072168171405792,146.73663330078125,-8.603443145751953,-1.4901683330535889,-1.8945374488830569,172.50685119628906,-80.47391510009766,95.39974212646484,2.922804832458496,1.2112643718719482,4.822978019714356
2313.0860579013824,161.02952575683594,-12.463504791259766,-89.43286895751953,-3.0956149101257324,-2.6591506004333496,-22.76264190673828,-112.67772674560548,-76.60922241210938,-115.7416534423828,-8.154092788696289,-2.480101585388184,-9.190034866333008,-84.6954345703125,-47.43445587158203,-9.414929389953612,-0.8019801378250122,0.2423900365829467,-4.553379058837891,3.612311601638794,14.25512409210205,146.0647735595703,-5.096368789672852,-1.9628372192382808,-9.764883041381836,159.88998413085938,-80.45951843261719,105.36151123046876,-1.5445432662963867,0.7246506214141846,-3.981742382049561
2313.14606499672,156.91864013671875,-21.83445167541504,-89.73589324951172,-3.664320468902588,-4.520130157470703,-23.637603759765625,-132.6723175048828,-73.08682250976562,-101.96249389648438,0.8702406883239746,-7.963960647583008,-11.184499740600586,-82.92603302001953,-50.81632232666016,-12.189095497131348,-1.0211100578308103,-1.396174430847168,-8.817623138427734,11.460110664367676,26.192991256713867,144.33035278320312,-1.4125401973724363,-4.124508857727051,-11.684087753295898,151.5383758544922,-79.76676177978516,112.25232696533205,-3.2284250259399414,-0.2520970106124878,-9.264533996582031
2313.1761610507965,153.189208984375,-35.346153259277344,-88.83321380615234,-2.884066104888916,-7.538013458251953,-18.876537322998047,-137.57696533203125,-72.85579681396484,-100.86526489257812,8.909748077392578,-1.7198162078857422,-2.783087730407715,-81.48272705078125,-54.41097640991211,-14.573694229125977,-0.368908941745758,-0.8377691507339478,-9.861421585083008,20.056560516357425,34.71306228637695,143.994140625,3.0638556480407715,-2.325399398803711,-12.942911148071287,151.69119262695312,-79.14554595947266,112.70556640625,-2.839984893798828,-0.3287851214408874,-9.434711456298828
2313.205689430237,148.8167266845703,-52.6493034362793,-85.56281280517578,-1.7648627758026123,-7.046405792236328,-5.624642372131348,-134.77468872070312,-72.74813079833984,-100.82010650634766,1.5774526596069336,-5.428420066833496,-3.773038864135742,-82.32683563232422,-57.73737335205078,-17.124954223632812,-1.4802820682525637,0.7564520835876465,-8.864192962646484,29.978046417236328,38.91860961914063,147.72076416015625,4.641750335693359,-1.4773430824279783,-13.217132568359377,150.12994384765625,-78.90338897705078,114.80309295654295,1.2541592121124268,-0.0632848143577575,-6.565940856933594
2313.235689878464,136.13400268554688,-72.2286148071289,-72.48627471923828,4.526943206787109,-4.2544450759887695,10.813491821289062,-143.92222595214844,-68.83489990234375,-97.32634735107422,-2.7344789505004883,-5.979235649108887,-1.761551856994629,-84.49132537841797,-61.44038009643555,-20.307939529418945,-3.4651012420654297,1.8866102695465088,-7.203315734863281,39.14155197143555,38.126121520996094,157.86282348632812,-2.4716930389404297,-0.6253890991210938,-14.133970260620115,144.03077697753906,-79.87159729003906,120.0190887451172,3.549766063690185,0.854541540145874,-9.72942352294922
2313.265705347061,47.25265502929688,-81.00868225097656,21.139663696289062,14.30438995361328,14.904020309448242,31.390735626220703,-151.49485778808594,-63.53549957275391,-96.20285034179688,-0.5547609329223633,-5.648367881774902,0.9404697418212892,-83.62703704833984,-66.15106964111328,-24.47188377380371,-4.774848937988281,4.968954086303711,-5.959288597106934,44.672489166259766,32.29294204711914,170.93788146972656,-18.641586303710938,-4.699746131896973,-14.607965469360352,139.25758361816406,-80.10292053222656,122.31531524658205,5.282445907592773,-0.6309701204299927,-10.582780838012695
2313.295320034027,16.530546188354492,-69.64000701904297,53.81554412841797,1.5885217189788818,29.132625579833984,-27.571666717529297,-154.0994873046875,-59.0128288269043,-97.31230926513672,-5.757834434509277,-6.151497840881348,4.346804618835449,-80.976318359375,-70.9483871459961,-28.894227981567383,-3.761697769165039,7.022274017333984,-4.640496253967285,48.02660369873047,26.284568786621094,179.77935791015625,-14.62481689453125,-1.8833460807800293,-19.88116455078125,134.459228515625,-79.2659683227539,124.9621353149414,1.44806170463562,-2.111968994140625,-1.9225354194641116
2313.3263199329376,7.151640892028809,-70.37397766113281,53.09147644042969,19.00662612915039,14.309137344360352,-11.524713516235352,-153.20001220703125,-56.24446487426758,-100.04248809814452,-6.169839859008789,-4.360711097717285,2.909507751464844,-80.59413146972656,-74.5403823852539,-31.58649635314941,-3.262165069580078,9.665433883666992,-2.9313712120056152,53.8735237121582,28.523731231689453,178.11331176757812,8.795978546142578,2.150099754333496,-9.68880844116211,134.9297637939453,-79.30228424072266,125.32181549072266,-3.108499526977539,-3.236222267150879,0.7658882141113281
2313.3563199043274,34.49872970581055,-78.39945220947266,29.221553802490234,16.164478302001953,6.703719139099121,0.7689638137817383,-148.37782287597656,-55.51240539550781,-103.8108139038086,-2.91787338256836,-8.016063690185547,4.768872261047363,-81.76978302001953,-76.56455993652344,-30.787750244140625,-3.696382999420166,11.216806411743164,-0.0286436080932617,53.35062026977539,34.39848709106445,168.9554443359375,0.2586489915847778,-4.396001815795898,-5.570015907287598,147.3461456298828,-79.45600128173828,113.43657684326172,6.335787773132324,-1.387409210205078,2.485342025756836
2313.3858621120453,113.82254791259766,-79.23985290527344,-36.39163589477539,3.9660325050354,-1.8740122318267824,18.196125030517575,-141.2305145263672,-54.96634292602539,-107.90106964111328,-3.5123848915100098,-11.215173721313477,3.848257064819336,-83.6196060180664,-77.67149353027344,-25.61042213439941,-2.569056987762451,9.214101791381836,2.584924697875977,47.12726211547852,41.07375717163086,153.70030212402344,-6.2965497970581055,-2.5426268577575684,-9.151067733764648,152.2544403076172,-79.22834014892578,107.9319839477539,8.400205612182617,0.7517709732055664,6.494112014770508
2313.445861577988,135.43211364746094,-75.40941619873047,-57.0383186340332,0.0607704892754554,-25.283912658691406,-3.158393383026123,-134.64585876464844,-53.87562942504883,-111.9591064453125,-5.744815826416016,-11.311058044433594,0.7422189712524414,-89.2633056640625,-78.6085205078125,-15.511556625366213,-1.621635913848877,6.053132057189941,4.772158622741699,36.60761642456055,43.903934478759766,134.17312622070312,-2.3311548233032227,-0.0897670686244964,-8.477973937988281,153.3274688720703,-79.2569580078125,106.11810302734376,0.3075100183486938,0.4946627616882324,5.668571472167969
2313.4758746623997,148.8607940673828,-74.18025970458984,-63.49168395996094,-8.647907257080078,8.619314193725586,8.093135833740234,-129.72560119628906,-52.688087463378906,-115.0288543701172,-17.073562622070312,4.079898834228516,-5.565886497497559,-99.61872863769533,-78.75115203857422,-1.5458459854125977,-1.2369256019592283,3.0841989517211914,5.6079816818237305,30.25788116455078,41.618438720703125,114.88986206054688,3.546361923217773,-3.5322537422180176,-7.791213035583496,157.36358642578125,-78.26390838623047,103.46824645996094,-2.741107940673828,0.8791912794113159,3.910122871398926
2313.5061609745026,157.784912109375,-73.40817260742188,-67.7892074584961,-6.188579559326172,-2.9109416007995605,0.5122652053833008,-116.12393951416016,-51.77278137207031,-115.52759552001952,-9.471303939819336,11.732086181640623,7.007362365722656,-113.2822036743164,-77.01313018798828,14.37904453277588,-0.5444402694702148,2.1151561737060547,2.543076515197754,31.983644485473636,34.34718704223633,100.11215209960938,5.312562942504883,-12.492033004760742,-10.077749252319336,162.1240234375,-76.78643798828125,103.04875946044922,-2.290505886077881,-2.291900634765625,-0.2129697799682617
2313.5361638069157,167.13475036621094,-72.90772247314453,-72.58477783203125,-2.3440604209899902,-0.1740180253982544,-0.5462827682495117,-102.08509826660156,-49.7402458190918,-113.1192398071289,-20.74645233154297,5.384209632873535,-6.950528144836426,-122.80736541748048,-73.50479125976562,26.08352851867676,-0.6741877794265747,2.5866198539733887,-0.7262306213378906,41.773284912109375,24.437101364135746,89.47992706298828,16.06283950805664,-9.079957962036133,-16.359642028808594,170.59976196289062,-75.89077758789062,100.5218505859375,-5.044204711914063,1.3384246826171875,-1.327545166015625
2313.5661766529083,175.3805389404297,-72.59944152832031,-77.18439483642578,2.1479568481445312,-3.422633647918701,7.379512786865234,-107.94310760498048,-46.10371017456055,-103.66448974609376,-12.722824096679688,2.3660569190979004,-10.435619354248049,-125.43592071533205,-69.78375244140625,32.31573867797852,-2.066493034362793,0.7248315811157227,-2.496852397918701,61.63158416748047,16.017780303955078,83.0455093383789,6.498286247253418,1.8060317039489744,-7.852969169616699,178.35498046875,-75.85359191894531,98.47179412841795,-0.9622923135757446,2.136411666870117,-3.714932441711426
2313.595712184906,-179.954833984375,-71.27424621582031,-81.8950424194336,-0.2862995266914367,-2.1678390502929688,-0.302398681640625,-116.55915832519533,-42.456661224365234,-93.06434631347656,-5.642353057861328,2.8041720390319824,-8.21824836730957,-125.13753509521484,-67.64310455322266,36.54548263549805,-1.1806387901306152,-0.4612067341804504,-0.8709278106689453,79.42329406738281,9.39909553527832,79.4642105102539,6.035499572753906,0.913004755973816,-2.2364325523376465,-179.70448303222656,-75.81454467773438,100.56033325195312,4.784899711608887,1.0318951606750488,0.5658683776855469
2313.625711917877,-176.0775146484375,-69.54743194580078,-85.95938873291016,-0.9249776601791382,-0.2011898159980774,1.600872039794922,-123.88430786132812,-38.766849517822266,-83.48888397216797,-1.7942352294921875,3.853177070617676,-9.085363388061523,-123.05921936035156,-68.00003814697266,37.77220153808594,-0.8767001628875732,-1.6980791091918943,2.233377456665039,97.0507583618164,4.020256996154785,76.72603607177734,-4.947305679321289,-0.4630240797996521,3.2619829177856445,176.22256469726562,-74.54566192626953,105.75984954833984,-0.0286329016089439,1.267251968383789,3.4814577102661133
2313.6557128429413,-174.52357482910156,-67.96868133544922,-88.81503295898438,-0.2082443237304687,-2.781365871429444,0.9221525192260742,-130.87411499023438,-35.23124694824219,-75.41575622558594,0.8323198556900024,3.890767574310303,-9.01609992980957,-118.52554321289062,-69.32490539550781,34.1151008605957,0.3345338106155395,-2.8226637840271,1.6457154750823977,110.6128387451172,0.986300766468048,71.62555694580078,-5.862235069274902,-4.474554061889648,9.49215316772461,172.0126190185547,-73.70121002197266,110.01546478271484,-6.657927513122559,2.5900588035583496,-1.9639668464660645
2313.6862547397614,-175.5405731201172,-66.06570434570312,-86.90145874023438,-3.068645477294922,-3.340991973876953,-1.3417978286743164,-137.25498962402344,-32.49679183959961,-69.06295776367188,0.2512205839157104,2.6324706077575684,-8.849653244018555,-114.23914337158205,-69.75067138671875,26.637269973754883,2.3873000144958496,-1.0967776775360107,-0.8971309661865234,119.99575805664062,0.3337044417858124,62.92673110961914,-0.6345633268356323,-4.007256507873535,1.191056251525879,169.54566955566406,-72.28016662597656,112.97059631347656,-3.1675753593444824,1.2867913246154783,-2.453237533569336
2313.746253490448,-177.5990753173828,-64.88926696777344,-79.80973052978516,-2.908135414123535,0.1281053125858307,-4.167435646057129,-142.8927001953125,-32.24116897583008,-64.40847778320312,6.936768531799316,1.5600547790527344,-4.191725730895996,-112.93792724609376,-69.12031555175781,17.65044593811035,0.1560588479042053,-0.5654565095901489,-2.4919352531433105,127.78136444091795,-0.8918948173522949,53.63191986083984,4.079634666442871,-2.204211711883545,-1.038827896118164,167.87115478515625,-71.17304992675781,114.94548797607422,1.3857665061950684,1.1427643299102783,-0.6620473861694336
2313.776267051697,-179.47903442382812,-63.643497467041016,-73.22357177734375,-0.1424278020858764,1.749476194381714,-2.213198184967041,-142.01800537109375,-37.061283111572266,-63.094993591308594,12.173349380493164,-4.237329483032227,-2.5413050651550293,-112.10652923583984,-68.18199157714844,8.559215545654297,-3.454434394836426,1.4149832725524902,-3.379647731781006,132.1720733642578,-5.177210330963135,44.86506271362305,7.816513061523437,-2.163201332092285,-3.2611184120178223,163.82546997070312,-71.47935485839844,118.02790832519533,0.3860716819763183,2.122831344604492,-2.266032218933105
2313.8058009147644,178.02423095703125,-60.68793869018555,-69.36781311035156,8.679571151733398,1.7423937320709229,1.9793930053710935,-135.082763671875,-43.60823440551758,-65.00440979003906,-13.17502212524414,-4.803594589233398,31.84673309326172,-107.95457458496094,-67.51258850097656,-0.8458231091499329,-2.3815245628356934,3.0515708923339844,-5.394545555114746,134.02197265625,-13.770902633666992,36.612735748291016,9.585140228271484,-0.2669464349746704,-1.1581659317016602,157.24070739746094,-72.220703125,122.77196502685548,-2.884399890899658,1.4758529663085938,-4.435946464538574
2313.835800886154,176.03399658203125,-56.81074905395508,-68.98809051513672,5.1356401443481445,1.8936421871185305,-0.6073293685913086,-134.03631591796875,-45.92386245727539,-66.62696838378906,10.418083190917969,-12.281333923339844,12.73032569885254,-102.5954818725586,-66.53984069824219,-11.319849014282228,-1.0420284271240234,5.111008644104004,-5.588845252990723,130.4864959716797,-24.93867301940918,27.79441261291504,12.664777755737305,-4.756699562072754,11.082242965698242,151.36581420898438,-73.37812805175781,127.03968811035156,-3.0079407691955566,0.5193480253219604,-2.0336217880249023
2313.86581492424,174.66799926757812,-52.54598236083984,-68.12047576904297,0.9638962745666504,-2.011244773864746,0.953481674194336,-137.07518005371094,-43.14967727661133,-67.2060317993164,4.310748100280762,-17.11827850341797,8.817697525024414,-95.2757797241211,-63.3685302734375,-26.06322288513184,1.3915362358093262,15.273441314697266,2.146754264831543,107.76536560058594,-38.07178115844727,22.20521545410156,22.209022521972656,-1.2543528079986572,18.719799041748047,141.9412841796875,-74.85675048828125,135.02976989746094,-0.0891731679439544,2.084603309631348,3.13735580444336
