Timestamp,D4:22:CD:00:05:5D_EulerX,D4:22:CD:00:05:5D_EulerY,D4:22:CD:00:05:5D_EulerZ,D4:22:CD:00:05:5D_FreeAccX,D4:22:CD:00:05:5D_FreeAccY,D4:22:CD:00:05:5D_FreeAccZ,D4:22:CD:00:05:5E_EulerX,D4:22:CD:00:05:5E_EulerY,D4:22:CD:00:05:5E_EulerZ,D4:22:CD:00:05:5E_FreeAccX,D4:22:CD:00:05:5E_FreeAccY,D4:22:CD:00:05:5E_FreeAccZ,D4:22:CD:00:05:6B_EulerX,D4:22:CD:00:05:6B_EulerY,D4:22:CD:00:05:6B_EulerZ,D4:22:CD:00:05:6B_FreeAccX,D4:22:CD:00:05:6B_FreeAccY,D4:22:CD:00:05:6B_FreeAccZ,D4:22:CD:00:05:6E_EulerX,D4:22:CD:00:05:6E_EulerY,D4:22:CD:00:05:6E_EulerZ,D4:22:CD:00:05:6E_FreeAccX,D4:22:CD:00:05:6E_FreeAccY,D4:22:CD:00:05:6E_FreeAccZ,D4:22:CD:00:49:AA_EulerX,D4:22:CD:00:49:AA_EulerY,D4:22:CD:00:49:AA_EulerZ,D4:22:CD:00:49:AA_FreeAccX,D4:22:CD:00:49:AA_FreeAccY,D4:22:CD:00:49:AA_FreeAccZ
1527.2314376831057,177.35464477539062,-45.794166564941406,-70.66438293457031,-2.343322277069092,1.3032710552215576,1.443990707397461,-156.24708557128906,-33.5340461730957,-147.532470703125,-3.047210216522217,-6.166644096374512,-2.097275257110596,-28.781625747680664,0.8994995355606079,-73.72327423095703,-3.339322566986084,8.625455856323242,15.907632827758787,5.126558303833008,-72.58899688720703,158.1405792236328,-9.88717269897461,2.186156749725342,10.660768508911133,136.2670440673828,-72.57585906982422,128.2003936767578,-5.706770896911621,0.049161672592163,7.417083740234375
1527.2387461662292,177.3983917236328,-45.40757751464844,-69.08431243896484,-2.6270909309387207,-0.7049225568771362,2.302414894104004,-153.13711547851562,-40.38542175292969,-149.2369384765625,-1.3821096420288086,-5.242152214050293,-2.451162338256836,-15.412542343139648,12.504767417907717,-64.80004119873047,-8.371295928955078,2.06638765335083,15.994609832763672,-6.447459697723389,-73.05317687988281,-176.29656982421875,-12.381111145019531,-4.747560501098633,7.518861770629883,142.41737365722656,-72.90670776367188,124.74774932861328,-2.437344551086426,1.7963154315948486,9.026803970336914
1527.2752487659454,-179.3970489501953,-57.0848503112793,59.04475784301758,-1.8111650943756104,-2.692384719848633,4.19072151184082,152.56546020507812,-62.23260498046875,10.055586814880373,5.214804649353027,-3.549144744873047,28.219825744628903,-53.48676681518555,19.84884452819824,-101.34532165527344,-1.7681865692138672,-1.9732697010040283,39.293190002441406,84.0508041381836,-74.2978744506836,-9.49876594543457,12.082426071166992,-8.075225830078125,14.389745712280272,114.5552749633789,-75.1048812866211,175.03762817382812,-1.8326153755187988,-3.7774910926818848,13.26161766052246
1527.306601047516,-178.44992065429688,-55.75007247924805,62.15607452392578,-0.2348068952560424,-3.8896913528442383,0.7970590591430664,156.1709747314453,-61.31029891967773,9.327713012695312,-0.22540283203125,2.835583209991455,25.27314758300781,-26.959135055541992,33.415771484375,-80.90064239501953,-10.64937973022461,-9.894655227661133,12.109909057617188,-15.965070724487305,-77.49028778076172,97.50125122070312,8.86985969543457,2.5449275970458984,6.514698028564453,128.09500122070312,-73.53311157226562,161.9054718017578,-2.441236972808838,-0.6926738023757935,4.210428237915039
1527.336697101593,-177.4086151123047,-55.73664093017578,63.91109085083008,3.75532865524292,-2.4269914627075195,1.0418939590454102,164.81277465820312,-55.86946105957031,-1.2274200916290283,1.2285070419311523,3.267153739929199,14.46047019958496,-0.6963361501693726,34.22870635986328,-56.42144775390625,-17.950428009033203,-10.713138580322266,6.764177322387695,-42.33673095703125,-63.86948394775391,126.28356170654295,-11.225990295410156,13.698974609375,-5.634153366088867,138.60885620117188,-73.01516723632812,152.23892211914062,-1.696788311004639,-0.1003970950841903,4.18991756439209
1527.3675162792206,-176.3260955810547,-56.39537811279297,63.85979080200195,1.818718671798706,-2.3816170692443848,1.0949249267578125,170.66464233398438,-53.35880279541016,-7.451567649841309,2.7935686111450195,9.659984588623049,-2.033619880676269,26.07432174682617,31.54916381835937,-41.97096252441406,-12.424768447875977,-11.424762725830078,0.5998249053955078,-57.5600814819336,-55.84670639038086,135.1117706298828,-3.322587013244629,8.652708053588867,0.4945850372314453,147.32467651367188,-73.9177017211914,144.99325561523438,-4.6482439041137695,0.6725823879241943,5.782280921936035
1527.4020521640778,-174.83384704589844,-58.20743942260742,62.63340759277344,1.6279113292694092,-2.6621627807617188,2.779282569885254,178.05352783203125,-54.05485534667969,-16.19512176513672,-0.828302264213562,7.77534294128418,-8.477785110473633,46.2677001953125,31.438108444213867,-35.29181289672852,-7.895687103271484,-7.503719329833984,-1.0063791275024414,-60.11709976196289,-46.00325775146485,142.09597778320312,-16.19072723388672,16.32601547241211,-0.0587348937988281,160.11106872558594,-75.17920684814453,135.30226135253906,-4.005202293395996,1.838925838470459,7.7343597412109375
1527.440196275711,-172.82406616210938,-61.94783401489258,61.231204986572266,4.022058486938477,-2.9840903282165527,5.372951507568359,-172.44981384277344,-58.2313232421875,-25.409746170043945,0.1435378789901733,9.573101043701172,-11.414932250976562,56.59086990356445,32.7935676574707,-32.5640754699707,-7.040388107299805,-5.948026657104492,-1.3868293762207031,-55.60185241699219,-39.07418823242188,147.87318420410156,-23.99596405029297,14.889541625976562,-9.10499382019043,174.11123657226562,-75.6272964477539,124.9300765991211,-0.8066636323928833,3.9440431594848633,5.669383049011231
1527.4665985107422,-171.89637756347656,-66.76480865478516,60.27400970458984,2.411914825439453,5.603638648986816,10.186397552490234,-153.0032196044922,-65.3433609008789,-41.61947250366211,3.4572296142578125,8.389907836914062,-11.510005950927734,61.56600189208984,36.95259475708008,-32.823429107666016,-3.128444194793701,-3.1751770973205566,-5.706756591796875,-50.02584838867188,-35.98829650878906,153.78578186035156,-20.30011367797852,6.8536481857299805,-10.345840454101562,-174.5348358154297,-75.67353057861328,116.37648010253906,0.7383240461349487,1.622974872589111,0.3865261077880859
1527.506690740585,-174.3936004638672,-72.86528015136719,53.16756439208984,5.864113807678223,0.3386259078979492,-1.3841161727905271,-117.33150482177734,-70.5778579711914,-74.52066040039062,3.328207492828369,5.009291648864746,-8.723482131958008,63.51919555664063,43.92790985107422,-35.59309005737305,1.1681678295135498,-0.7250744104385376,-7.995681762695312,-41.37065124511719,-34.93195724487305,160.0904083251953,-14.511533737182615,3.3221802711486816,-12.035848617553713,-167.46719360351562,-74.90501403808594,111.13763427734376,0.2246157526969909,0.6174986362457275,-4.064149856567383
1527.5360774993896,179.91656494140625,-74.77373504638672,53.45228958129883,-4.142527580261231,-2.2962679862976074,-7.261676788330078,-78.48603057861328,-67.92137908935547,-114.45052337646484,-0.3489317893981933,1.1281967163085938,-9.248228073120115,58.61272811889648,52.56151580810547,-42.4075927734375,6.508112907409668,3.179926872253418,-10.604040145874023,-31.850265502929688,-35.014739990234375,166.4008331298828,-12.228116989135742,-1.5968098640441897,-14.798358917236328,-166.0367431640625,-73.79478454589844,109.59288024902344,1.948291301727295,1.4091875553131104,-7.812076568603516
1527.566507577896,173.99322509765625,-76.55003356933594,57.5416259765625,5.585720062255859,5.666420936584473,-6.869105339050293,-57.13779067993164,-60.283878326416016,-140.67254638671875,-6.111617088317871,-0.5949759483337402,-9.310251235961914,41.27433395385742,61.2497444152832,-56.811431884765625,6.733482360839844,0.1826412677764892,-16.001293182373047,-27.119604110717773,-36.17833709716797,171.73770141601562,-5.974045753479004,-5.65286922454834,-15.534910202026367,-163.90322875976562,-74.2403564453125,105.98721313476562,0.2015568315982818,-0.0976425260305404,-9.656169891357422
1527.5965077877045,166.9258575439453,-80.63687133789062,63.6020736694336,-2.7611818313598637,7.058362007141113,-9.044225692749023,-50.5437126159668,-52.226661682128906,-156.05850219726562,-14.007085800170898,-4.663090705871582,-8.85638427734375,8.521197319030762,66.67321014404297,-84.44413757324219,2.7746291160583496,0.1708260774612426,-14.77566909790039,-26.742338180541992,-38.34624481201172,175.1345672607422,-3.530580520629883,-5.134233474731445,-14.3931884765625,-156.20980834960938,-76.21772766113281,99.43421173095705,-2.136411666870117,-0.6749404668807983,-8.298421859741211
1527.63631939888,160.17332458496094,-84.100341796875,72.091064453125,-13.021284103393556,-21.459362030029297,-11.95884895324707,-57.60211563110352,-45.84730529785156,-164.97262573242188,-23.8267822265625,-2.1407251358032227,-10.6424560546875,-32.501495361328125,61.163116455078125,-118.5128936767578,-1.951714277267456,-0.3133204579353332,-24.49003219604492,-28.18092155456543,-41.26881790161133,178.69235229492188,-4.336252212524414,-3.248299121856689,-12.378456115722656,-150.1895294189453,-77.73990631103516,94.59180450439452,-0.0412698462605476,1.79876446723938,-10.250442504882812
1527.6721405982971,153.41282653808594,-81.21553039550781,78.87996673583984,-3.336236000061035,4.5546875,-0.1597270965576172,-69.37368774414062,-44.12327575683594,-167.7121124267578,-17.71463394165039,17.989990234375,-13.292381286621094,-57.2060775756836,48.08430099487305,-133.32009887695312,-18.32215118408203,-10.608394622802734,-23.657833099365234,-31.932462692260746,-44.83608627319336,-178.93524169921875,-3.729617118835449,-5.813220977783203,-11.716520309448242,-146.03956604003906,-78.35218048095703,89.46012878417969,2.297097682952881,-1.032890796661377,-8.356075286865234
1527.701141834259,153.4880828857422,-77.34917449951172,81.83158111572266,0.7803419828414917,5.232574462890625,5.679791450500488,-70.48844146728516,-47.078643798828125,-164.1624755859375,-15.458307266235352,8.057270050048828,-11.933639526367188,-67.05355834960938,43.39592742919922,-136.07057189941406,-1.4561948776245115,4.528265953063965,-11.917743682861328,-37.91868209838867,-47.87543487548828,-177.89630126953125,-2.475528717041016,-4.007041931152344,-7.282296180725098,-140.6827392578125,-79.63688659667969,83.15836334228516,-0.0609698593616485,-2.2311744689941406,-4.400043487548828
1527.7366836071014,150.97052001953125,-73.39256286621094,86.74472045898438,0.91637921333313,-0.3446239829063415,2.783285140991211,-80.58386993408203,-50.62769317626953,-150.67416381835938,-18.886058807373047,4.342263221740723,-10.748701095581056,-63.59775161743164,45.85308837890625,-130.93910217285156,-7.370949745178223,-4.917573928833008,4.570301055908203,-41.82801055908203,-49.16018295288086,-176.47451782226562,-2.790860176086426,-2.8179030418396,-4.86505126953125,-145.25872802734375,-78.4646987915039,86.60486602783203,-3.893416404724121,-4.670383453369141,3.522079467773437
1527.7664024829865,146.64451599121094,-71.11821746826172,91.81876373291016,0.0188879072666168,-2.264559745788574,3.8278398513793945,-97.16114044189452,-51.715782165527344,-135.6974334716797,-2.466683387756348,-27.17173385620117,-2.5811543464660645,-39.47562026977539,47.104434967041016,-119.46102142333984,-2.129915237426758,2.2888288497924805,-12.072641372680664,-47.59677505493164,-49.943138122558594,-173.1714630126953,-8.875528335571289,-9.608572006225586,-1.704242706298828,-148.7895050048828,-77.63329315185547,88.0312271118164,-3.450680732727051,-0.6246047019958496,8.011837005615234
1527.8064856529236,140.00941467285156,-70.89546966552734,98.38085174560548,0.2114883959293365,0.9353485107421876,8.434005737304688,-100.3425064086914,-52.78850173950195,-129.5345458984375,-5.454594612121582,-12.93197250366211,-2.195838451385498,-19.677814483642575,45.15471649169922,-99.57119750976562,-7.826320648193359,-8.014850616455078,-13.105627059936523,-58.37085723876953,-50.76756286621094,-169.92965698242188,-8.540288925170898,-5.764142990112305,4.624195098876953,-149.70928955078125,-78.54964447021484,86.6183853149414,-2.269141674041748,1.6778814792633057,4.100810050964356
1527.8364853858948,131.74562072753906,-71.44949340820312,105.61825561523438,-0.0942889302968978,1.7572484016418457,4.951461791992188,-102.07752990722656,-54.43634796142578,-125.7464599609375,1.89045524597168,-6.145252227783203,12.955190658569336,-8.15002727508545,37.87406539916992,-83.4047622680664,-5.336235046386719,-6.383261680603027,-4.125104904174805,-65.31377410888672,-52.16650772094727,-168.70616149902344,-5.463591575622559,-4.415565490722656,8.639738082885742,-155.98239135742188,-77.71449279785156,91.36759185791016,1.4531829357147217,-3.6631813049316406,5.277284622192383
1527.8666775226593,116.6668472290039,-73.43563842773438,111.3155288696289,-8.959342956542969,2.432187557220459,2.203244209289551,-106.6619644165039,-55.51820373535156,-122.03700256347656,-2.734696388244629,1.13690447807312,5.956386566162109,-4.980340003967285,28.649791717529297,-72.30609130859375,-3.7352161407470703,3.4002652168273926,6.8983001708984375,-69.38187408447266,-52.74850845336914,-169.470703125,-6.086456298828125,-4.690725326538086,6.365842819213867,-161.33462524414062,-76.75872039794922,93.53704071044922,5.205746650695801,-0.5538232326507568,1.801222801208496
1527.9068100452423,120.1479721069336,-72.0035400390625,98.73230743408205,-25.099197387695312,-15.20332145690918,6.207542419433594,-111.13624572753906,-57.24108505249024,-119.41128540039062,-9.218477249145508,-6.269366264343262,-3.356980323791504,-7.307050228118896,19.04745483398437,-63.11831665039063,-0.7512319087982178,9.542461395263672,-0.5025644302368164,-71.55426788330078,-52.081092834472656,-171.5742645263672,2.40134859085083,-0.2697480320930481,5.344956398010254,-165.54794311523438,-75.64562225341797,93.51335144042967,11.782241821289062,1.253725290298462,-0.2369880676269531
1527.941662788391,138.1096649169922,-64.76158142089844,74.5762710571289,-21.03000259399414,-4.611025810241699,7.352788925170898,-110.58892059326172,-59.58023834228516,-119.02324676513672,-6.01908016204834,-2.6192069053649902,-0.2638540267944336,-14.429781913757324,8.102992057800293,-51.97404861450195,0.9125247001647948,11.054777145385742,-2.237368106842041,-65.62564849853516,-49.90365219116211,-175.91673278808594,-2.991739273071289,3.581502914428711,1.524736404418945,-165.943359375,-75.80172729492188,92.31257629394533,3.8722968101501465,0.9329307079315186,2.8754186630249023
1527.9711997509005,149.31472778320312,-54.30801010131836,57.0540657043457,-5.553084373474121,-0.0732991695404052,-0.7367782592773438,-108.3670654296875,-62.27798080444336,-120.5589599609375,-6.527173042297363,-2.8095107078552246,-1.0442848205566406,-25.95089530944824,-2.389838933944702,-39.66586685180664,4.069710731506348,6.113594055175781,-3.4321160316467285,-58.077884674072266,-47.291988372802734,178.63790893554688,-12.455739974975586,10.62492561340332,-3.1876583099365234,-164.71717834472656,-76.05923461914062,91.73446655273438,-1.6788995265960691,4.246925354003906,3.100838661193848
1528.0017416477203,153.6228790283203,-43.598289489746094,46.53752899169922,2.036594867706299,-0.1394470334053039,-6.677168846130371,-98.72642517089844,-65.7664566040039,-127.4679946899414,-3.314304828643799,-2.9824585914611816,-0.6918191909790039,-38.25768661499024,-11.202866554260254,-29.308061599731445,1.487654447555542,0.2855560183525085,-0.7430458068847656,-56.408321380615234,-46.6800537109375,175.39093017578125,-8.941963195800781,7.773129463195801,-3.739084243774414,-164.1302032470703,-76.69866943359375,90.50189971923828,5.699766159057617,2.70733642578125,2.593556404113769
1528.0368883609772,156.21490478515625,-34.3231201171875,40.025508880615234,4.304277420043945,-0.6561757326126099,-10.205869674682615,-93.70417022705078,-66.33534240722656,-130.2993621826172,-6.330111503601074,-1.3111305236816406,-2.887972831726074,-42.3629150390625,-18.417461395263672,-23.261547088623047,-1.3885796070098877,1.6734049320220947,2.9932641983032227,-53.970191955566406,-47.23540115356445,173.36024475097656,-5.252884864807129,6.610019683837891,-4.216421127319336,-162.32479858398438,-78.00349426269531,87.8600082397461,4.260540008544922,1.5693275928497314,-2.359610080718994
1528.0670132637024,157.78109741210938,-27.924375534057617,36.07557678222656,3.2607851028442383,-0.4479832053184509,-12.130817413330078,-93.42259979248048,-66.50312805175781,-130.38165283203125,-5.043002128601074,-4.419268608093262,-4.372097969055176,-39.38222122192383,-25.954147338867188,-21.857542037963867,0.6161636114120483,4.311980247497559,-2.6979994773864746,-48.89840316772461,-48.64793395996094,171.38726806640625,-6.39739990234375,5.580055236816406,-7.621526718139648,-164.428955078125,-78.84934997558594,89.05314636230469,-0.0065533993765711,1.5156707763671875,-6.570493698120117
1528.106207370758,159.6898193359375,-25.204843521118164,33.83830642700195,3.0719995498657227,0.2753303647041321,-12.900327682495115,-94.8835220336914,-66.13445281982422,-127.0837173461914,-4.918577194213867,-6.23252010345459,-6.873972892761231,-35.33905029296875,-34.8988151550293,-24.25474548339844,5.591044425964356,3.948551177978516,-4.169654846191406,-44.2040901184082,-51.28646469116211,169.04644775390625,-4.178064346313477,3.047041893005371,-8.664024353027344,-167.25538635253906,-78.71849060058594,91.45980834960938,-1.1029505729675293,-0.1097600013017654,-7.615334510803223
1528.136117935181,161.96316528320312,-26.542028427124023,32.03813552856445,6.078713417053223,2.355974674224853,-11.34959602355957,-99.47782135009766,-64.99282836914062,-120.7300033569336,-6.284272193908691,0.9912724494934082,-7.510133743286133,-33.49871063232422,-45.03987121582031,-29.68216133117676,9.661296844482422,-0.7140684127807617,-1.3189353942871094,-38.38103103637695,-54.80649566650391,165.63436889648438,-2.792114734649658,0.7611645460128784,-7.661819458007812,-167.7957763671875,-78.14705657958984,92.14041137695312,0.137141466140747,-0.4991960525512695,-7.731062889099121
1528.1663331985474,164.52456665039062,-30.65737533569336,30.50109100341797,1.306579828262329,1.5653691291809082,5.59653377532959,-107.26779174804688,-62.42226791381836,-113.63059997558594,-4.856562614440918,1.2599294185638428,-4.099647521972656,-32.87467193603516,-56.315711975097656,-38.65559768676758,12.366458892822266,-9.939338684082031,8.33343505859375,-30.09662437438965,-58.69562149047852,159.922119140625,-4.167036056518555,0.4088286757469177,-6.996309280395508,-167.5165557861328,-77.99152374267578,91.59720611572266,3.003878116607666,1.6538822650909424,-6.924018859863281
1528.196429014206,164.7429656982422,-31.85155296325684,31.466859817504883,12.739704132080078,11.770837783813477,6.89488410949707,-118.3886947631836,-57.30148315429688,-106.89933776855467,-5.170830726623535,-9.955259323120115,2.2835693359375,-29.57545661926269,-64.57682037353516,-51.00664138793945,3.1841092109680176,-6.622318267822266,33.524993896484375,-20.03689193725586,-62.62336730957031,151.2110595703125,-7.510419845581055,-0.0272694751620292,-3.5288801193237305,-167.45785522460938,-78.20281982421875,90.06874084472656,2.4682693481445312,-1.7554123401641846,-2.9161148071289062
1528.2366523742676,167.9300079345703,-31.984819412231445,32.903987884521484,19.939838409423828,5.853361129760742,10.684383392333984,-126.11708068847656,-51.78266906738281,-101.44744873046876,-4.189648628234863,-1.182002305984497,2.557193756103516,-23.97017478942871,-64.11476135253906,-53.47994995117188,4.36872673034668,-3.9865927696228023,6.07029914855957,-4.278139114379883,-65.28224182128906,135.12509155273438,-8.977470397949219,1.6361851692199707,3.5293045043945312,-168.427978515625,-77.55428314208984,90.35118865966795,-2.389633655548096,-0.6967005729675293,7.996944427490234
1528.2662444114685,169.20335388183594,-27.811410903930664,33.25299453735352,23.391433715820312,6.72308349609375,17.281124114990234,-130.8765106201172,-48.577632904052734,-97.38337707519533,-5.785961151123047,-2.0750904083251958,-0.2135534286499023,-37.47067260742188,-57.011749267578125,-38.205196380615234,17.444225311279297,-11.792186737060549,13.119754791259766,23.360593795776367,-64.97716522216797,107.45404815673828,-20.755970001220703,2.550689697265625,11.90186882019043,-169.5448760986328,-77.05247497558594,90.29740142822266,1.4170877933502195,2.8422083854675293,9.726987838745115
1528.3014769554138,165.70993041992188,-20.021163940429688,33.15080642700195,15.637056350708008,12.331392288208008,13.604528427124023,-133.3467559814453,-48.24837493896485,-94.96585845947266,-6.909948348999023,-1.6084306240081787,-0.6096076965332031,-49.677825927734375,-44.48800277709961,-28.14781188964844,11.947492599487305,-11.804071426391602,15.463289260864258,38.64306640625,-57.90625,79.38944244384766,-1.4526071548461914,-14.045083999633787,37.659942626953125,-168.70274353027344,-74.76307678222656,87.88195037841797,5.35671329498291,2.0955491065979004,7.101327896118164
1528.33668756485,163.7306671142578,-12.39748477935791,31.721471786499023,17.593502044677734,2.861989974975586,13.444948196411133,-134.1765594482422,-48.92605972290039,-94.72997283935548,-7.307513236999512,-1.722341537475586,-0.6530704498291016,-46.39395523071289,-33.32649230957031,-27.27951431274414,12.525667190551758,-9.228557586669922,2.8435535430908203,40.91411590576172,-46.44224166870117,65.99234771728516,-24.8135986328125,-5.387784004211426,18.900821685791016,-172.12054443359375,-74.48893737792969,90.27257537841795,-1.2424955368041992,1.0578982830047607,7.726072311401367
1528.366204738617,162.42990112304688,-6.980861186981201,30.649044036865234,6.694807052612305,-1.8337271213531492,4.243485450744629,-133.60183715820312,-50.67001724243164,-96.65705108642578,-6.540589332580566,-1.7988786697387695,0.6243991851806641,-46.0126953125,-25.38991355895996,-29.554658889770508,4.97347354888916,-6.392759323120117,-5.237409591674805,39.3573112487793,-31.741613388061523,54.59614181518555,-11.005386352539062,-6.015192031860352,21.397968292236328,-177.18994140625,-73.64741516113281,94.24542999267578,2.2609262466430664,2.382279872894287,11.789506912231444
1528.4062168598175,164.37289428710938,-4.722875595092773,30.415132522583008,1.4518253803253174,-5.409482002258301,-5.208215713500977,-132.42581176757812,-54.05284881591797,-100.11270904541016,-7.285436630249023,-1.7412641048431396,2.6382999420166016,-51.96582794189453,-22.96442604064941,-33.51425552368164,-1.976458549499512,-2.065516471862793,-3.4108142852783203,25.020648956298828,-14.29085922241211,45.45199203491211,-4.341176986694336,6.019575119018555,9.44704246520996,177.45045471191406,-73.33375549316406,98.71900939941406,6.106362342834473,3.745216846466065,7.530515670776367
1528.4364337921145,166.29833984375,-6.553144931793213,30.89118385314941,0.137578934431076,-6.625833511352539,-15.656499862670898,-127.86003875732422,-59.07383728027344,-106.73045349121094,-7.562247276306152,-6.853368759155273,7.426914215087891,-56.6783561706543,-26.834497451782227,-39.41855239868164,0.1097712516784668,1.735423564910889,-0.2527170181274414,10.155831336975098,0.9262270331382751,36.95524978637695,1.538050413131714,1.3956773281097412,2.127613067626953,172.41793823242188,-73.474365234375,103.11489868164062,-0.4892188906669616,2.479093074798584,4.144771575927734
1528.4660954475405,164.28524780273438,-13.445866584777832,31.715103149414062,2.9287872314453125,-4.247122764587402,-22.149497985839844,-110.58415985107422,-65.39493560791016,-123.10738372802734,0.4782301187515259,-17.258304595947266,3.786600112915039,-59.291690826416016,-34.75270462036133,-46.1877326965332,-0.5584602355957031,2.2223119735717773,-3.965511322021485,0.1054357513785362,12.330022811889648,29.09228515625,-5.526046752929688,5.069587707519531,-3.260899543762207,170.8245849609375,-73.35738372802734,104.99606323242188,-0.1521059274673462,0.9016579389572144,-3.0505356788635254
1528.5063471794128,159.5341796875,-25.15006256103516,33.19320297241211,7.004755020141602,1.200571060180664,-22.583515167236328,-91.73284912109376,-67.55905151367188,-134.5924530029297,-4.930521011352539,4.809938430786133,-8.68581771850586,-64.70648956298828,-44.59565734863281,-52.02249526977539,-0.4178898930549621,1.0348117351531982,-6.352334976196289,-0.7048382759094238,19.369150161743164,20.859411239624023,-5.503069877624512,5.239931106567383,-5.388679504394531,172.3260040283203,-72.77759552001953,105.25713348388672,1.590583324432373,-0.957987666130066,-5.626730918884277
1528.536387681961,156.4235382080078,-39.741580963134766,35.91927719116211,7.073436737060547,4.285114288330078,-12.83913230895996,-86.3631820678711,-66.89974212646484,-135.9224395751953,-10.63566780090332,4.08165454864502,-8.35831069946289,-70.41068267822266,-53.84867477416992,-56.92702865600586,-0.7905704975128174,5.587052345275879,-0.8714561462402344,8.619925498962402,24.51225852966309,12.863848686218262,-3.5244064331054688,1.137442111968994,-10.21140480041504,173.08279418945312,-72.79930877685547,106.16517639160156,2.0059633255004883,1.904973030090332,-9.713218688964844
1528.5669150352478,151.86183166503906,-57.15818786621094,41.123966217041016,7.462042808532715,5.386154174804688,0.4538764953613281,-94.4269561767578,-65.29438018798828,-131.60887145996094,1.2180674076080322,-6.504868507385254,-14.512659072875977,-69.09381866455078,-60.78343963623047,-62.32183456420898,-1.969545602798462,6.597503662109375,-4.677399635314941,17.02203941345215,28.91712188720703,7.732221603393555,-4.734279632568359,5.5272216796875,-12.44025421142578,170.1123504638672,-73.291259765625,107.78359985351562,1.776036500930786,2.1856088638305664,-10.438352584838867
1528.601346731186,134.28070068359375,-76.80046081542969,60.16267776489258,-1.5744085311889648,5.054563522338867,17.56328582763672,-101.12299346923828,-64.52835083007812,-131.92994689941406,-7.780783653259277,13.220132827758787,-6.553468704223633,-65.698974609375,-64.61944580078125,-66.69465637207031,-0.508326530456543,7.594831466674805,-5.264878273010254,12.65653133392334,32.14971160888672,8.438739776611328,0.8779392242431641,9.79970932006836,-10.201820373535156,166.11184692382812,-73.99890899658203,108.49868774414062,1.3855488300323486,1.113729476928711,-9.362897872924805
1528.636353969574,30.3674373626709,-81.15611267089844,169.28909301757812,-26.189674377441406,2.2302889823913574,17.348697662353516,-106.07037353515624,-63.84835052490234,-129.5945281982422,-5.008658409118652,-0.1213718950748443,-6.717411994934082,-62.22179412841797,-65.92037200927734,-70.8163070678711,1.8450665473937988,4.997275352478027,-6.19273853302002,3.919224977493286,35.60747146606445,13.689982414245604,-1.1210410594940186,-0.552294135093689,-12.970943450927734,162.84275817871094,-74.4261245727539,109.42438507080078,-0.2705824971199035,-0.4090815186500549,-6.7124786376953125
1528.6663165092468,15.11562156677246,-73.32540893554688,-167.71038818359375,-15.114505767822266,-29.922019958496094,-14.05343246459961,-107.83650207519533,-63.07763671875,-127.426513671875,-1.7895522117614746,-3.6981258392333984,-3.202945709228516,-58.90674209594727,-66.47623443603516,-75.16643524169922,0.1329843997955322,3.688855648040772,-6.204684257507324,7.797989368438721,40.18694686889648,23.25600814819336,6.658585548400879,7.757462501525879,-12.98651885986328,161.96542358398438,-75.6739730834961,109.57481384277344,-3.022799491882324,-2.512257575988769,-5.405270576477051
1528.7066831588745,16.737464904785156,-75.28614807128906,-174.7847137451172,-20.38798141479492,-3.584047794342041,-12.02570343017578,-113.6149673461914,-60.64554214477539,-122.39596557617188,-2.004366397857666,-8.886709213256836,-2.493009090423584,-55.1132926940918,-67.5990219116211,-79.82939910888672,1.1340253353118896,2.7894015312194824,-5.393722534179688,16.195268630981445,46.96757888793945,39.23770904541016,9.872922897338867,13.129634857177734,-21.307918548583984,166.15713500976562,-76.42595672607422,106.2060546875,2.0615248680114746,-5.095617294311523,-3.264277935028076
1528.7367792129517,59.32291030883789,-80.271728515625,145.95606994628906,-13.409420013427734,2.17409610748291,4.240957260131836,-122.43999481201172,-56.684356689453125,-116.8681869506836,-7.843951225280762,-3.8865113258361816,2.538702964782715,-51.92788314819336,-69.61026763916016,-84.2989501953125,0.4398185014724731,2.825003147125244,-3.849796295166016,36.513648986816406,51.94865036010742,53.385841369628906,-7.854977607727051,-4.829401969909668,-18.015594482421875,170.3652801513672,-75.07762145996094,102.70826721191406,5.472820281982422,0.6636995077133179,5.14461612701416
1528.7664110660553,123.8188018798828,-76.85419464111328,90.87842559814452,-12.164730072021484,-3.392212390899658,8.255390167236328,-123.1221923828125,-54.904296875,-116.1897430419922,-9.125341415405272,-3.824211597442627,0.9683685302734376,-54.21936798095703,-73.29440307617188,-83.31747436523438,-0.4240911602973938,-1.0500195026397705,1.3835811614990234,45.00902938842773,55.36152267456055,45.79981231689453,-15.934337615966797,15.328866958618164,5.347578048706055,170.7446746826172,-76.14057159423828,102.46529388427734,6.258393287658691,3.6432061195373535,5.499125480651856
1528.796728849411,143.10549926757812,-72.66462707519531,73.40706634521484,18.80026626586914,6.147470474243164,0.2290296554565429,-119.32601165771484,-54.65520095825195,-119.04322814941406,-6.870359420776367,-5.6624040603637695,6.373302459716797,-75.94973754882812,-78.17431640625,-65.13424682617188,2.4342703819274902,1.0096487998962402,16.995990753173828,36.421504974365234,53.47538757324219,37.32929611206055,-7.410638809204102,-8.643709182739258,-5.771648406982422,175.18063354492188,-76.19515991210938,99.69011688232422,2.827057361602783,1.1365468502044678,7.766654968261719
1528.837009191513,148.3758087158203,-73.47956848144531,64.45384216308594,-3.2500529289245605,9.886100769042969,10.84559440612793,-114.73141479492188,-54.41703796386719,-123.21004486083984,-6.942754745483398,-7.518263816833496,5.720202445983887,-110.49357604980467,-79.74410247802734,-30.210426330566406,2.454158306121826,1.0343105792999268,13.761762619018556,27.78165435791016,49.529090881347656,26.97549819946289,-0.8446929454803467,-0.3779131174087524,-1.1081199645996094,-178.6190643310547,-76.61381530761719,97.01910400390624,-0.556016206741333,-0.4198954701423645,6.315240859985352
1528.8718128204346,157.75103759765625,-73.3246078491211,59.67621612548828,14.94032096862793,-5.024700164794922,11.786199569702148,-104.65959167480467,-54.44375991821289,-129.8380584716797,-5.482966423034668,-15.25813102722168,1.7898235321044922,-128.92893981933594,-75.81239318847656,-11.102638244628906,3.930310249328613,-2.809274673461914,8.872251510620117,20.915809631347656,42.83733749389648,13.033738136291504,3.824541568756104,6.480395317077637,-10.76101303100586,-169.50289916992188,-76.00089263916016,93.5845184326172,0.5064108371734619,-4.084250450134277,1.8966655731201167
1528.901819229126,168.13528442382812,-72.72327423095703,53.92037582397461,1.8672912120819087,-5.718934059143066,-0.8896703720092773,-94.14498901367188,-53.07921600341797,-131.67727661132812,-19.894561767578125,8.74654769897461,-2.09873628616333,-129.2613983154297,-70.28046417236328,-11.23800277709961,4.201098442077637,3.3141913414001465,2.104145050048828,16.436458587646484,32.101688385009766,0.0545948296785354,1.959712028503418,8.118061065673828,-16.976036071777344,-164.94451904296875,-74.23422241210938,93.41272735595705,-2.267253398895264,-0.5919517278671265,-2.8623604774475098
1528.9368178844452,175.6521453857422,-72.65664672851562,45.29069900512695,0.3014320135116577,2.5496602058410645,1.2127370834350586,-99.06885528564452,-49.87901306152344,-118.91368865966795,-34.42927551269531,4.07679557800293,0.0629777908325195,-124.05577087402344,-64.5945816040039,-15.074462890625,0.2825852632522583,-1.955549955368042,-1.4551210403442385,10.910414695739746,19.73118782043457,-9.457748413085938,0.3288317918777466,4.709290504455566,-12.217052459716797,-166.50961303710938,-72.62767028808594,98.49588775634766,-4.08113956451416,4.302461624145508,-8.135824203491211
1528.966483592987,-177.59043884277344,-72.28611755371094,37.28557205200195,-0.2723674178123474,2.5726637840271,-0.0879745483398437,-108.8548583984375,-45.4873046875,-102.54734802246094,-15.964181900024414,-5.787540435791016,-7.4510498046875,-120.7165069580078,-60.31753921508789,-20.15401077270508,-1.7135281562805176,-3.8592352867126474,-2.875215530395508,4.904573917388916,6.772473335266113,-17.73944664001465,1.1090636253356934,-1.6996009349822998,-10.786470413208008,-169.6533966064453,-70.45234680175781,103.40880584716795,1.1613123416900637,1.2402148246765137,-2.020037174224853
1529.0065677165985,-172.5253143310547,-71.81109619140625,31.46381950378418,-0.2433797419071197,-0.0295440517365932,0.1179876327514648,-116.7839813232422,-41.26200485229492,-88.54930877685547,-3.5044150352478027,-2.5799121856689453,-19.564376831054688,-119.76402282714844,-58.55354690551758,-25.840740203857425,-4.246177673339844,-2.9361305236816406,-3.534587383270264,4.4748406410217285,-5.322880268096924,-25.647003173828125,-4.130002021789551,-12.795778274536133,-2.9947619438171387,-170.94029235839844,-68.4841079711914,104.99319458007812,0.0869568139314651,1.9980266094207764,4.096392631530762
1529.0362877845764,-169.6368865966797,-71.45086669921875,27.884769439697266,0.8117314577102661,0.1811084151268005,0.6422576904296875,-124.29598999023438,-37.77634048461914,-77.27134704589844,0.5960958003997803,6.560208320617676,-19.68441772460937,-118.7577133178711,-58.34883117675781,-31.047821044921875,-4.208510398864746,-1.109733819961548,-3.107406616210937,21.00902938842773,-13.107446670532228,-31.28724670410156,-20.053512573242188,-26.50576400756836,-2.459615707397461,-172.55252075195312,-67.18858337402344,105.888427734375,-1.7267591953277588,2.578166007995605,3.0646629333496094
1529.0670068264008,-167.03318786621094,-71.35814666748047,23.64095115661621,2.043177604675293,0.0963939875364303,0.1165647506713867,-129.99082946777344,-35.65791320800781,-69.00651550292969,1.9378151893615725,6.785322189331055,-14.887229919433594,-118.72504425048828,-58.41108703613281,-34.324684143066406,-2.5212316513061523,0.9332797527313232,-2.6621551513671875,55.19747543334961,-17.6668758392334,-28.988340377807617,0.904492735862732,0.373769998550415,-24.357051849365234,-173.5923309326172,-67.44158172607422,106.37208557128906,-3.3519954681396484,0.8465890884399414,-1.4118738174438477
1529.1070094108582,-166.31590270996094,-70.47913360595703,22.13484764099121,1.3165640830993652,1.250960111618042,-1.919538974761963,-134.4014434814453,-35.27949905395508,-63.14631652832031,0.8802026510238647,4.212581634521484,-13.016345977783203,-118.63639831542967,-57.98775863647461,-37.0962028503418,-0.7006423473358154,4.016590118408203,-1.1953010559082031,75.49504089355469,-25.345102310180664,-24.15274810791016,-2.444237232208252,21.98131561279297,7.944299697875977,-175.424072265625,-68.15284729003906,107.4775848388672,-1.4761414527893066,0.2212903499603271,-3.199790000915528
1529.1370067596436,-168.17190551757812,-68.36957550048828,25.2138671875,1.7367208003997805,2.6658706665039062,-0.443206787109375,-140.5846405029297,-37.17190170288086,-59.276363372802734,-3.24519157409668,-1.9348628520965576,-7.93494701385498,-115.01956939697266,-56.918216705322266,-41.44883346557617,-0.281055212020874,3.1749801635742188,-2.1446547508239746,76.45572662353516,-36.73075485229492,-20.85375595092773,-6.320996284484863,4.928133010864258,-2.4279322624206543,179.74908447265625,-69.29277038574219,109.88516998291016,0.8919802904129028,0.0988984405994415,-2.853060245513916
1529.1715290546415,-172.1602783203125,-64.9237289428711,31.188072204589844,-0.2646997570991516,1.6920204162597656,-2.242471218109131,-146.28436279296875,-41.91668319702149,-57.79745101928711,0.266147255897522,-4.558277130126953,-2.4348278045654297,-106.0992431640625,-55.61542892456055,-48.29452133178711,1.0805034637451172,3.452757835388184,-3.849630355834961,75.49034881591797,-51.90779113769531,-20.09077262878418,-1.6288774013519287,-4.28342342376709,0.0393896102905273,174.2172088623047,-70.50086212158203,112.88253021240234,-1.1687967777252195,-0.6541018486022949,-3.306404590606689
1529.2021272182465,-176.2776336669922,-60.460411071777344,36.79674530029297,-0.3845845460891723,5.210884094238281,1.5196027755737305,-148.0140838623047,-49.35290145874024,-59.172142028808594,8.420515060424805,-7.678122520446777,4.282853126525879,-95.72370147705078,-53.53615188598633,-57.27251052856445,1.109532117843628,2.1204371452331543,-5.186389923095703,78.87456512451172,-70.54222106933594,-22.436925888061523,0.1260192692279815,-6.499544143676758,12.652170181274414,168.36268615722656,-72.30690002441406,116.99925994873048,-3.2419228553771973,-0.8432439565658569,-4.082606315612793
1529.2371232509613,179.7828826904297,-55.852970123291016,41.81763458251953,3.8677921295166016,1.2776048183441162,-0.5353097915649414,-140.7577362060547,-56.0027961730957,-62.06885147094727,-19.48733901977539,-0.2851622700691223,23.45767593383789,-88.85987854003906,-49.447242736816406,-66.371337890625,0.0086996555328369,3.6177663803100586,-1.6279525756835938,-66.07681274414062,-88.47980499267578,125.06732177734376,-7.875622749328613,-1.8437824249267576,35.04540252685547,161.2826385498047,-73.7158203125,123.32575988769533,0.5056135654449463,0.0015016158577054,-6.190637588500977
1529.2665147781372,178.41409301757812,-51.21717834472656,46.717430114746094,1.3999168872833252,-6.607518196105957,-1.5341482162475586,-137.8241424560547,-59.336307525634766,-63.34165954589844,6.955732345581055,-10.058902740478516,-2.905085563659668,-86.6146240234375,-41.380836486816406,-74.64949798583984,-0.0161528587341308,5.4862871170043945,5.917707443237305,-88.12051391601562,-77.64225769042969,149.7855682373047,-25.3938102722168,13.725929260253906,10.993667602539062,152.72251892089844,-73.48737335205078,130.92660522460938,2.04085636138916,2.370815753936768,-2.805021286010742
1529.306384086609,179.23199462890625,-47.38565826416016,49.848751068115234,0.3464069366455078,0.5183665752410889,4.134048461914063,-138.30984497070312,-61.2621955871582,-64.21238708496094,8.448646545410156,-5.315537452697754,15.59043312072754,-91.45220184326172,-27.603679656982425,-81.54126739501953,-2.870905876159668,11.170034408569336,12.150157928466797,-133.6058349609375,-82.3175048828125,-173.64422607421875,7.893791198730469,-5.5769805908203125,5.342266082763672,145.55221557617188,-73.00050354003906,136.78219604492188,-5.13448429107666,1.679663896560669,6.619617462158203
1529.336075782776,-179.50082397460938,-44.83160781860352,49.55376815795898,-2.3212709426879883,-2.9100441932678223,-1.748056411743164,-139.4811553955078,-59.39038848876953,-62.74312973022461,0.9040405750274658,-12.498519897460938,12.580984115600586,-94.9321517944336,-11.629990577697754,-84.89568328857422,13.029897689819336,13.159149169921877,14.88506317138672,-179.8574676513672,-84.7459945678711,-124.8324737548828,7.511238098144531,-8.964353561401367,8.122415542602539,145.81509399414062,-71.43218231201172,136.66665649414062,-3.38006591796875,-0.4450308084487915,10.31524658203125
1529.366774559021,-177.54852294921875,-44.1634407043457,46.7680549621582,3.6759285926818848,-1.9928338527679443,5.713858604431152,-136.9623565673828,-57.36918258666992,-59.69084167480469,-2.596973419189453,-17.319011688232422,13.401466369628906,-86.87106323242188,2.907069444656372,-84.84934997558594,21.54486083984375,9.130992889404297,16.796268463134766,-144.70201110839844,-84.94324493408203,-156.63999938964844,5.039358139038086,-8.373575210571289,15.183530807495115,149.90440368652344,-70.49446105957031,133.73548889160156,-3.748945713043213,0.374897837638855,17.758628845214844
1529.3969767093658,-175.66180419921875,-45.78292083740234,44.734596252441406,0.4053096771240234,-0.4777316451072693,3.84976863861084,-130.66812133789062,-54.508731842041016,-56.13715744018555,4.498778343200684,-22.48941802978516,16.582801818847656,-72.85616302490234,16.1158447265625,-80.32205200195312,11.823356628417969,-4.464993476867676,24.6023063659668,-122.2154312133789,-80.69351196289062,-171.6679229736328,-2.513957500457764,-3.302506923675537,19.651203155517575,153.27638244628906,-70.04322052001953,131.52685546875,-1.817363739013672,-0.0347991809248924,10.150033950805664
1529.4364154338837,-173.31143188476562,-49.561824798583984,43.354270935058594,-0.4911319613456726,-0.4167467951774597,3.2301130294799805,-132.3270721435547,-50.01765060424805,-52.62897491455078,-0.6215397119522095,-16.29327392578125,8.132919311523438,-54.66508865356445,26.83974266052246,-74.74207305908203,-6.53856372833252,-7.624956130981445,19.09598159790039,-106.69384002685548,-75.79998016357422,-179.62924194335938,-4.927943229675293,0.3098354339599609,14.229278564453123,155.2321319580078,-68.91280364990234,131.06333923339844,-3.004610538482666,-1.3085145950317385,7.742338180541992
1529.4715068340302,-169.9888458251953,-55.61432266235352,42.00310134887695,2.980484962463379,-0.4509502053260803,5.647466659545898,-136.33258056640625,-49.39320373535156,-51.214088439941406,1.6030285358428955,-4.033136367797852,5.067455291748047,-39.08891677856445,35.05796813964844,-68.4295654296875,-9.571239471435549,-3.87394905090332,1.1443634033203125,-88.5055923461914,-70.8893814086914,171.7181854248047,-7.524357795715332,5.038178443908691,5.840297698974609,155.7518768310547,-69.66471862792969,133.3094940185547,-4.482081413269043,1.3851630687713623,5.613720893859863
