Timestamp,D4:22:CD:00:05:5D_EulerX,D4:22:CD:00:05:5D_EulerY,D4:22:CD:00:05:5D_EulerZ,D4:22:CD:00:05:5D_FreeAccX,D4:22:CD:00:05:5D_FreeAccY,D4:22:CD:00:05:5D_FreeAccZ,D4:22:CD:00:05:5E_EulerX,D4:22:CD:00:05:5E_EulerY,D4:22:CD:00:05:5E_EulerZ,D4:22:CD:00:05:5E_FreeAccX,D4:22:CD:00:05:5E_FreeAccY,D4:22:CD:00:05:5E_FreeAccZ,D4:22:CD:00:05:6B_EulerX,D4:22:CD:00:05:6B_EulerY,D4:22:CD:00:05:6B_EulerZ,D4:22:CD:00:05:6B_FreeAccX,D4:22:CD:00:05:6B_FreeAccY,D4:22:CD:00:05:6B_FreeAccZ,D4:22:CD:00:05:6E_EulerX,D4:22:CD:00:05:6E_EulerY,D4:22:CD:00:05:6E_EulerZ,D4:22:CD:00:05:6E_FreeAccX,D4:22:CD:00:05:6E_FreeAccY,D4:22:CD:00:05:6E_FreeAccZ,D4:22:CD:00:49:AA_EulerX,D4:22:CD:00:49:AA_EulerY,D4:22:CD:00:49:AA_EulerZ,D4:22:CD:00:49:AA_FreeAccX,D4:22:CD:00:49:AA_FreeAccY,D4:22:CD:00:49:AA_FreeAccZ
1460.3303172588348,174.35154724121094,-51.720741271972656,-96.91278076171876,1.2204804420471191,1.451179027557373,0.5306301116943359,-155.03643798828125,-62.82073974609375,-14.958826065063477,10.550409317016602,-4.587663650512695,21.546466827392575,-53.57893753051758,-19.60428047180176,-105.23544311523438,5.515137672424316,9.213848114013672,9.300065994262695,75.66098022460938,-63.39117050170898,85.72821044921875,15.151681900024414,2.936516284942627,12.880258560180664,144.815673828125,-74.02106475830078,159.18161010742188,4.05869197845459,2.4708714485168457,6.472991943359375
1460.3529031276703,-108.3100357055664,-82.33333587646484,155.16876220703125,1.3022301197052002,-3.0043258666992188,-0.6841325759887695,-156.47605895996094,-54.5274772644043,-17.506502151489258,2.1667137145996094,-2.095053672790528,7.203996658325195,-38.77875518798828,17.133386611938477,-91.5944595336914,4.124486923217773,-7.420845031738281,16.55742645263672,78.22821044921875,-63.01391220092773,73.40242767333984,3.435093879699707,21.673362731933597,7.404356002807617,143.08297729492188,-72.81991577148438,161.24656677246094,-3.194608211517334,-3.154202938079834,4.341752052307129
1460.3968935012815,-153.77154541015625,-64.18608093261719,-147.529296875,-4.006767272949219,5.455959320068359,2.119588851928711,-161.5556182861328,-81.52354431152344,-35.32394027709961,-1.325059413909912,3.4389328956604004,12.947076797485352,-68.73760986328125,-33.347103118896484,-121.3206787109375,5.064210891723633,5.513542175292969,8.052143096923828,13.104374885559082,-58.23012924194336,114.07095336914062,2.4016451835632324,13.24930191040039,-0.1083450317382812,166.05172729492188,-67.56804656982422,123.45999908447266,1.04599928855896,2.0444140434265137,1.6895761489868164
1460.4271445274353,-160.4158935546875,-61.52331161499024,-141.00985717773438,-2.167238712310791,4.677927970886231,0.5726079940795898,-132.26199340820312,-75.85283660888672,-62.18341445922852,-4.215571403503418,-11.682275772094728,10.714141845703123,-64.64061737060547,-22.05272674560547,-124.0809326171875,5.892930030822754,2.105380058288574,22.91927719116211,-45.967262268066406,-67.49156951904297,164.38299560546875,3.993100643157959,18.28616714477539,10.365163803100586,160.4145965576172,-67.61994171142578,127.61237335205078,-2.112966537475586,-0.4169245362281799,7.748786926269531
1460.4569051265717,-164.0554962158203,-59.556270599365234,-138.00021362304688,-0.3457369804382324,3.9192395210266113,0.842778205871582,-168.92739868164062,-76.32833099365234,-25.288972854614254,2.7849984169006348,-4.101334571838379,15.606367111206056,-59.07358932495117,-7.075543403625488,-122.97794342041016,-1.0590744018554688,3.4517650604248047,29.244613647460938,-94.12060546875,-54.69609069824219,-147.74317932128906,-8.853696823120117,0.3053781390190124,13.982185363769531,160.11529541015625,-68.05701446533203,126.71769714355467,-0.5576701164245605,-0.5789450407028198,8.409616470336914
1460.4871907234192,-165.49671936035156,-58.89291000366211,-137.48117065429688,0.6890678405761719,2.5279383659362797,1.2217464447021484,164.9103240966797,-76.07181549072266,0.6296182870864868,-4.986812591552734,0.6824924945831299,10.389118194580078,-47.940711975097656,9.595776557922363,-117.34278869628906,-1.931591510772705,-5.047333717346191,21.98949813842773,-101.2143783569336,-45.22641372680664,-137.51519775390625,-14.20184326171875,-9.841989517211914,8.505704879760742,161.8777618408203,-68.89741516113281,124.70565032958984,0.4076026678085327,0.0909527838230133,7.965471267700195
1460.516427278519,-165.2920379638672,-59.60882186889648,-138.59483337402344,-0.5547468662261963,3.047729015350342,1.952596664428711,155.1730499267578,-74.98458099365234,11.05175495147705,3.510129451751709,4.873220443725586,4.41478443145752,-28.192285537719727,24.142696380615234,-107.69068145751952,-9.38241195678711,-7.24113655090332,11.341026306152344,-104.25955200195312,-42.41628646850586,-132.083251953125,-17.606990814208984,-9.368799209594728,5.675434112548828,164.91574096679688,-70.13872528076172,122.40351104736328,-2.493618965148926,0.7037301063537598,9.00200080871582
1460.5475282669067,-163.76319885253906,-61.977806091308594,-141.0236358642578,2.054190158843994,2.986886501312256,2.847959518432617,144.28309631347656,-79.11820220947266,22.79397773742676,-0.9340976476669312,6.400525093078613,1.273148536682129,-3.2355756759643555,32.990020751953125,-97.02318572998048,-5.812802314758301,-2.0345234870910645,-0.6153059005737305,-105.98929595947266,-41.69363784790039,-125.91919708251952,-16.440555572509766,-9.788272857666016,2.67901611328125,171.71658325195312,-71.55413818359375,117.57662963867188,-4.516153335571289,-0.3910345435142517,9.139257431030272
1460.5771815776825,-160.85086059570312,-66.8038330078125,-144.1249237060547,2.336900234222412,2.692636489868164,3.863025665283203,96.47259521484376,-83.91108703613281,71.16858673095703,-0.6303774118423462,7.91590404510498,-1.1730127334594729,16.255266189575195,37.52671432495117,-88.20050048828125,-5.402495384216309,-0.821029543876648,-1.471384048461914,-106.95337677001952,-43.20622634887695,-118.65631866455078,-11.654953002929688,-10.364303588867188,-3.4664182662963867,-177.07781982421875,-73.09325408935547,109.984130859375,0.0454088896512985,0.4297552704811096,5.78807544708252
1460.6372818946838,-154.5657958984375,-73.3730697631836,-150.1509552001953,-4.646685600280762,0.280947744846344,9.313446044921877,27.92188262939453,-78.93037414550781,139.7202606201172,-5.648595809936523,8.945014953613281,-4.398693084716797,28.10818290710449,40.53906631469727,-82.96556091308594,-6.490873336791992,-0.767160177230835,-4.780413627624512,-107.31966400146484,-45.139381408691406,-110.81626892089844,-7.002401351928711,-10.091825485229492,-7.369626998901367,-164.68978881835938,-73.46005249023438,102.11803436279295,0.0784143805503845,1.5986108779907229,-0.5278329849243164
1460.6668741703031,-133.89144897460938,-80.31002044677734,-173.8735809326172,-2.7697720527648926,-4.280948638916016,4.4288330078125,9.13696575164795,-70.45008087158203,156.21688842773438,-8.538843154907227,8.7811279296875,-9.258014678955078,34.61712646484375,43.9619140625,-81.12237548828125,-3.400320529937744,0.3728840351104736,-6.222630500793457,-106.26114654541016,-46.64049911499024,-103.42845153808594,-4.8751420974731445,-9.304092407226562,-11.291181564331056,-153.25485229492188,-71.91152954101562,95.45977020263672,-1.4876971244812012,-0.2712005376815796,-5.125127792358398
1460.696867465973,-117.2043228149414,-81.4787826538086,162.00823974609375,10.614706039428713,5.471039772033691,-13.899755477905272,1.608509182929993,-61.95472717285156,163.04539489746094,-10.860790252685549,11.143306732177734,-12.240549087524414,36.862186431884766,48.680908203125,-83.32367706298828,-1.990694522857666,0.7056355476379395,-8.206460952758789,-108.26605224609376,-47.83033752441406,-96.5565948486328,-0.124781921505928,-7.685524940490723,-13.275619506835938,-148.33694458007812,-69.55332946777344,94.1154556274414,4.237415313720703,2.5498123168945312,-7.80377197265625
1460.7273786067965,-134.7695770263672,-81.5062255859375,-176.8789520263672,3.504209041595459,-1.9874749183654783,-8.151819229125977,-1.7632155418395996,-54.75512313842773,168.13958740234375,-11.441001892089844,6.611249923706055,-13.55409812927246,34.814151763916016,54.4218978881836,-91.44952392578124,-0.0721784234046936,-0.0624119117856025,-9.291215896606444,-113.32112121582033,-49.38076400756836,-91.204833984375,2.9504261016845703,-6.534526824951172,-13.288421630859377,-147.07850646972656,-69.50498962402344,93.5812530517578,4.109269142150879,3.717611312866211,-9.993581771850586
1460.757110118866,-141.6690673828125,-81.3583755493164,-162.12730407714844,3.913527488708496,-2.9170360565185547,-10.27821159362793,-5.117416858673096,-49.74269485473633,172.48585510253906,-10.934850692749023,1.8765153884887693,-14.759265899658203,24.503198623657227,59.00505447387695,-108.21910858154295,5.594609260559082,0.559086799621582,-8.381820678710938,-118.16156005859376,-51.94531631469727,-87.16276550292969,3.7474007606506343,-5.041877746582031,-11.76931381225586,-143.53668212890625,-70.8036117553711,90.5497589111328,-1.8207738399505613,1.3721704483032229,-9.030559539794922
1460.787112236023,-138.51632690429688,-81.91810607910156,-166.3032989501953,0.0871008485555648,10.425092697143556,-4.310361862182617,-9.876190185546877,-46.976322174072266,175.86900329589844,-11.573690414428713,-2.6276297569274902,-10.592918395996094,2.9078383445739746,58.15287399291992,-135.6469268798828,4.466884613037109,-1.562507152557373,-11.571306228637695,-121.15359497070312,-55.72192001342773,-83.84246826171875,2.6356639862060547,-4.646206855773926,-9.039363861083984,-137.3859100341797,-72.98380279541016,85.49603271484375,-2.4659881591796875,0.0928026884794235,-7.65479850769043
1460.8171100616455,-147.7323760986328,-81.50377655029297,-160.38601684570312,-7.512127876281738,0.0494973883032798,-3.834119319915772,-19.408693313598636,-46.92091369628906,179.50791931152344,-14.475164413452148,-5.490379333496094,-13.447919845581056,-18.222448348999023,48.0947380065918,-161.33746337890625,-12.038408279418944,-3.8430237770080566,-26.142024993896484,-122.83819580078124,-60.26640701293945,-80.49475860595703,2.1011433601379395,-5.705375671386719,-6.440499305725098,-129.11431884765625,-74.77722930908203,78.60928344726562,-0.6463783979415894,-0.1511679589748382,-5.277006149291992
1460.8473246097565,-167.48782348632812,-80.73168182373047,-139.3275146484375,-1.7794227600097656,-5.944215774536133,-0.3714303970336914,-31.701641082763672,-50.84726333618164,-175.5633544921875,-13.89963722229004,-1.34232497215271,-12.208307266235352,-31.95170783996582,35.36219024658203,-175.70684814453125,-19.85120391845703,2.0232133865356445,-26.020973205566406,-122.81531524658205,-64.31420135498047,-78.15901947021484,3.73043155670166,-7.108948707580566,-4.702029228210449,-124.55760955810548,-75.7068862915039,73.57882690429688,2.954087734222412,0.7061567306518555,-1.4399290084838867
1460.8769042491913,177.1271514892578,-78.96377563476562,-117.9408950805664,3.0558314323425293,-2.980875968933105,4.345072746276856,-43.59709930419922,-55.56901550292969,-168.95358276367188,-21.69882583618164,6.910341262817383,-13.709007263183594,-52.864723205566406,37.75027847290039,-170.7949676513672,8.212383270263672,4.816725730895996,-13.340805053710938,-118.38302612304688,-66.87732696533203,-78.50566101074219,2.8790159225463867,-6.143095970153809,-5.482356071472168,-125.6496124267578,-76.52131652832031,72.4047622680664,2.7991738319396973,0.1437999606132507,-0.1467123031616211
1460.9060056209564,167.71954345703125,-78.24079132080078,-105.87442016601562,1.8050856590271,0.9996533393859864,5.198664665222168,-46.46799087524414,-58.294681549072266,-165.85313415527344,-4.149935722351074,-11.164913177490234,-1.460219383239746,-62.52482986450195,46.63639831542969,-159.77835083007812,-17.372543334960938,-4.933131217956543,-5.223215103149414,-117.33629608154295,-67.14315032958984,-76.56793212890625,1.2506496906280518,-10.194568634033203,-4.644987106323242,-126.44415283203124,-78.37490844726562,71.28669738769531,-6.066352844238281,-2.664690971374512,4.97775936126709
1460.967223405838,156.12374877929688,-78.05001068115234,-94.64897918701172,-5.856220245361328,-0.0351272970438003,4.736678123474121,-39.83502578735352,-61.180511474609375,-168.98602294921875,-0.7044579982757568,-13.515924453735352,3.3571090698242188,-45.53093338012695,54.02188491821289,-142.9042510986328,-14.298957824707031,0.0046701431274414,-20.002254486083984,-127.661865234375,-66.05242156982422,-70.24591827392578,4.053679466247559,-16.079391479492188,0.7943716049194336,-124.73260498046876,-80.7107925415039,68.31919860839844,-5.452341079711914,-2.514103889465332,8.525915145874023
1460.997224569321,143.9952392578125,-77.53924560546875,-82.72354125976562,1.215357780456543,0.2946835160255432,1.6069211959838867,-41.30581283569336,-64.04293823242188,-167.6701202392578,-8.240180969238281,-3.8340163230896,15.102752685546877,-21.59939384460449,56.04502487182617,-120.20323181152344,-8.550853729248047,-6.235038757324219,-15.159271240234377,-146.93544006347656,-65.93087768554688,-61.04087448120117,3.686168670654297,-9.522432327270508,5.910879135131836,-126.70114135742188,-81.67987060546875,69.84485626220703,2.4908227920532227,-0.1597348749637603,1.0808162689208984
1461.026574134827,130.073486328125,-77.15217590332031,-70.78323364257812,1.4744246006011963,-0.5791019201278687,3.3894004821777344,-50.63714599609375,-67.94674682617188,-162.6840057373047,-3.1121697425842285,2.5005760192871094,0.3798160552978515,-6.438137531280518,54.48424530029297,-103.38129425048828,-3.0448250770568848,-4.41209602355957,0.8035316467285156,-168.00462341308594,-66.57637786865234,-50.24279022216797,3.5937442779541016,-0.5824035406112671,5.275444030761719,-128.60231018066406,-82.10270690917969,71.25495147705078,4.0130767822265625,0.5236067771911621,-2.275547504425049
1461.0564370155334,119.625244140625,-76.59904479980469,-64.40122985839844,4.446987152099609,-3.530516624450684,2.0595703125,-41.74415588378906,-69.42354583740234,-167.29856872558594,-9.161773681640623,-0.896520733833313,-1.609113693237305,3.3569607734680176,52.37389755249024,-94.43634796142578,-0.1359542608261108,2.559292793273926,8.728229522705078,170.7862091064453,-65.8489990234375,-42.7336540222168,5.503425598144531,3.047562599182129,3.714522361755371,-139.2999267578125,-81.46876525878906,80.64855194091797,4.78685474395752,0.9093517065048218,0.6539888381958008
1461.096730709076,113.2579116821289,-78.0956039428711,-66.50617980957031,6.4767351150512695,0.1711046397686004,3.290616035461426,-40.17026138305664,-71.02632141113281,-168.32867431640625,-6.100696563720703,1.250753402709961,-0.3833570480346679,5.301249980926514,51.8167839050293,-89.35411071777344,9.651737213134766,7.195398330688477,15.131753921508787,159.13832092285156,-64.61306762695312,-38.617950439453125,8.260490417480469,1.7409119606018066,-0.1854543685913086,-151.83119201660156,-79.19310760498047,91.06465911865234,5.946364402770996,5.265546798706055,-2.190784454345703
1461.1167294979095,127.91242218017578,-76.72933197021484,-89.75660705566406,18.757884979248047,11.81049346923828,6.136675834655762,-37.67928695678711,-72.35437774658203,-171.34906005859375,-5.921854019165039,1.161935329437256,-0.4098682403564453,-4.614954471588135,51.79758071899414,-87.68002319335938,15.15611457824707,13.674341201782228,7.385412216186523,158.67881774902344,-63.49778366088867,-38.80119323730469,-0.7053455114364624,-0.5157670974731445,0.2019062042236328,-161.70846557617188,-77.14640808105469,96.41586303710938,8.696786880493164,3.509125232696533,-0.3419923782348633
1461.1470189094543,148.7798614501953,-68.5968017578125,-112.77411651611328,14.655855178833008,7.985490798950195,6.820188522338867,-31.12454032897949,-72.60667419433594,-177.34043884277344,-6.381966590881348,0.2109189927577972,-0.8744297027587891,-23.29931640625,47.79542541503906,-89.69831085205078,11.174810409545898,17.59176254272461,-3.473706722259521,160.574462890625,-62.73930358886719,-42.01630783081055,-2.8568263053894043,-1.150254726409912,1.572749137878418,-168.74356079101562,-74.87481689453125,100.09648895263672,0.3820220828056335,2.539160251617432,5.742953300476074
1461.1767013072968,157.9431915283203,-57.85934448242188,-126.0435028076172,4.411737442016602,3.360452175140381,1.543195724487305,-25.494457244873047,-72.0167007446289,177.1251983642578,-5.878376007080078,0.3130412697792053,-1.1264886856079102,-42.56321716308594,37.64192581176758,-91.1512680053711,-5.589599609375,1.7716286182403564,2.693780899047852,162.9800567626953,-62.808712005615234,-45.6596794128418,-2.127622604370117,-2.2917842864990234,1.486363410949707,-173.72607421875,-74.28607940673828,104.5595932006836,-0.4218958616256714,2.5631680488586426,2.924044609069824
1461.2066967487335,160.8196563720703,-46.93476867675781,-133.40628051757812,-0.9434720277786256,0.5430499315261841,-6.388592720031738,-20.873912811279297,-71.25076293945312,172.51377868652344,-4.522441864013672,-0.8240265846252441,-0.9269571304321288,-48.93190002441406,23.72220039367676,-90.6435546875,2.5344371795654297,-4.259193420410156,4.019538879394531,166.0582733154297,-63.79267120361328,-48.66532897949219,-0.4120932817459106,-2.430517196655273,-0.8105926513671875,-176.0951385498047,-74.1769790649414,106.92723846435548,3.4390344619750977,3.4355692863464355,0.8275718688964844
1461.2663278579712,163.54177856445312,-37.334171295166016,-138.02352905273438,-3.274646759033203,0.0620472505688667,-11.208545684814451,-16.971960067749023,-70.71589660644531,169.4324188232422,-3.0364904403686523,-3.322788715362549,-3.1894006729125977,-45.83655548095703,6.978277206420898,-88.68917083740234,7.256260871887207,-2.018141746520996,-8.073354721069336,170.48114013671875,-65.40479278564453,-50.13469696044922,0.8703821897506714,-2.264975070953369,-3.2249579429626465,-178.109375,-74.73285675048828,109.1630859375,2.903496742248535,2.269587993621826,-0.396245002746582
1461.2973239421844,165.64578247070312,-30.38304901123047,-141.33360290527344,-3.985544204711914,1.4628324508666992,-11.825323104858398,-18.28121757507324,-71.70828247070312,171.3112335205078,-1.1499578952789309,-1.995119571685791,-3.353178024291992,-45.47574996948242,-12.439197540283203,-87.08222961425781,8.243597030639648,-9.186458587646484,-11.41071319580078,175.73675537109375,-67.16114044189453,-48.84789276123047,-0.0915794074535369,-2.200765609741211,-4.988171577453613,178.73123168945312,-75.31521606445312,112.0779800415039,0.0484701246023178,2.2630090713500977,-5.042684555053711
1461.3266463279724,164.3679656982422,-27.111780166625977,-143.91397094726562,-7.365013122558594,3.002358913421631,-7.879361152648926,-32.88292694091797,-74.33277130126953,-174.59085083007812,-1.721593141555786,1.3090691566467283,-1.728194236755371,-47.56299209594727,-34.00798416137695,-86.59105682373047,3.0822386741638184,-13.253347396850586,0.2004299163818359,177.36375427246094,-68.56485748291016,-44.2418098449707,-6.265888214111328,-6.947349548339844,-4.890568733215332,177.36038208007812,-75.52027893066406,113.43958282470705,-0.0762644112110138,-0.6112771034240723,-5.461387634277344
1461.3573627471924,160.7752227783203,-27.540922164916992,-144.7144775390625,-10.601438522338867,-3.82869291305542,-12.553377151489258,-67.58464050292969,-75.33414459228516,-146.41160583496094,-6.320261001586914,-3.4859890937805176,-5.478155136108398,-46.42058181762695,-55.75565719604492,-89.7864761352539,11.480125427246094,-16.35205078125,25.986915588378903,167.23764038085938,-70.44583129882812,-31.940593719482425,-1.44449782371521,-9.023353576660156,-5.509612083435059,176.45175170898438,-76.22305297851562,115.10184478759766,0.1504678428173065,-3.30717134475708,-7.151411056518555
1461.3873689174652,162.98638916015625,-31.14105987548828,-143.5494384765625,-10.584692001342772,-5.762419700622559,-12.817468643188477,-95.60426330566406,-72.8328857421875,-123.92623138427734,-10.4696044921875,-7.169804573059082,-5.286617279052734,-39.25090026855469,-67.07071685791016,-97.03076934814452,-2.568641662597656,18.694110870361328,5.546676635742188,142.67250061035156,-71.43052673339844,-4.066518306732178,1.4234676361083984,-6.640712738037109,-2.551053047180176,176.4586181640625,-77.4993896484375,115.79141998291016,0.84099280834198,-0.8639684915542603,-10.955768585205078
1461.416767120361,166.3370361328125,-29.06734848022461,-141.10951232910156,-2.923372268676758,4.24156665802002,42.53022003173828,-104.32019805908205,-70.92729187011719,-114.33379364013672,-3.03450870513916,5.079802513122559,4.141608238220215,-40.40214920043945,-65.20731353759766,-96.47232055664062,-1.3348710536956787,1.5457024574279783,-2.0293774604797363,113.71914672851562,-65.24951934814453,30.92535781860352,4.410236358642578,-3.326255321502685,7.642185211181641,176.02572631835938,-79.02352142333984,115.11758422851562,5.119578361511231,5.945520401000977,-0.4001579284667969
1461.4468533992767,172.37347412109375,-27.544116973876957,-139.2446746826172,-24.667430877685547,-3.216683864593506,7.353616714477539,-111.07223510742188,-69.88065338134766,-107.33820343017578,-4.826617240905762,1.6032006740570068,1.6472206115722656,-41.574256896972656,-59.15874099731445,-95.50099182128906,3.399918556213379,-8.761724472045898,10.262876510620115,100.52488708496094,-51.19610977172852,52.829097747802734,8.474273681640625,-7.712725639343262,20.238449096679688,178.5464324951172,-79.6073989868164,112.32727813720705,-1.4273536205291748,2.352250099182129,3.718204498291016
1461.4864308834076,169.04324340820312,-25.39083671569824,-137.4169921875,-16.27159881591797,-16.271888732910156,10.451576232910156,-114.98143005371094,-70.10934448242188,-103.30059814453124,-6.602825164794922,1.0776410102844238,-0.1273555755615234,-48.66661071777344,-49.92158126831055,-94.24162292480467,0.8821640014648438,-24.22525405883789,10.83237075805664,100.75859832763672,-36.58369064331055,67.5540771484375,12.877819061279297,-6.969414710998535,19.57397079467773,175.99952697753906,-76.00177001953125,113.76844787597656,3.5784811973571777,-4.803147315979004,6.815437316894531
1461.506506204605,166.60415649414062,-22.28059959411621,-137.1101531982422,-13.277328491210938,-4.889344215393066,10.721199035644531,-117.11075592041016,-70.84506225585938,-102.38522338867188,-7.302760124206543,0.7074153423309326,-0.2557888031005859,-52.20077133178711,-41.08004760742188,-92.4207534790039,-4.750532150268555,-12.77642822265625,11.18971061706543,107.68585968017578,-21.714080810546875,77.52139282226562,9.375568389892578,-8.92201042175293,7.247491836547852,175.8094024658203,-74.6462173461914,114.15679931640624,3.49404239654541,4.8414812088012695,12.16263198852539
1461.5669906139374,165.0796356201172,-19.04174041748047,-138.61160278320312,-9.226856231689451,-5.89576530456543,5.766702651977539,-117.17948150634766,-71.59131622314453,-105.01241302490234,-6.363872528076172,-0.2650429606437683,0.2073469161987304,-42.67379760742188,-36.19661331176758,-92.875244140625,0.8105864524841309,-12.698299407958984,2.972921371459961,112.64485931396484,-4.815364837646484,82.37950897216797,15.769460678100586,-11.240156173706056,7.027683258056641,174.79470825195312,-74.20758819580078,114.2953872680664,1.7535400390625,4.350242614746094,11.315958023071287
1461.598045349121,163.7209930419922,-18.005990982055664,-140.99440002441406,-9.02354621887207,1.507676362991333,1.386183738708496,-109.27047729492188,-74.1323013305664,-115.23323059082033,-7.254727363586426,0.6300901174545288,2.0595293045043945,-40.116397857666016,-34.38212585449219,-92.37076568603516,-0.9617259502410888,-8.86026382446289,1.135188102722168,109.54993438720705,10.657228469848633,83.85758209228516,5.22529411315918,-3.0897679328918457,15.132572174072266,170.01821899414062,-74.78710174560547,115.3922882080078,4.650108337402344,4.287026405334473,7.339971542358398
1461.6272339820862,161.97824096679688,-20.117116928100582,-142.71435546875,-4.847710609436035,3.804748058319092,-5.583976745605469,-84.7149429321289,-76.81641387939453,-141.59266662597656,-6.3754987716674805,0.6720951795578003,5.80550479888916,-43.216529846191406,-36.72620391845703,-91.80425262451172,-1.79244065284729,-4.411026954650879,-1.205286979675293,88.91610717773438,20.37835121154785,82.19001770019531,-6.141047477722168,-4.767111778259277,-7.4652099609375,165.81153869628906,-75.48206329345703,118.55384826660156,6.175580024719238,3.794717788696289,7.416299819946289
1461.6572937965393,160.52947998046875,-25.622989654541016,-143.5497283935547,-2.505322933197021,2.4463376998901367,-11.939582824707031,-41.820308685302734,-74.13590240478516,179.00050354003906,-0.528931736946106,-5.845573425292969,5.010408401489258,-46.21567535400391,-43.22968673706055,-92.6795883178711,0.8287012577056885,0.2095212042331695,1.9981040954589844,71.14868927001953,25.30286026000977,81.96976470947266,0.7573651075363159,-7.645845413208008,-7.565261840820312,161.621337890625,-75.9901351928711,121.89141845703124,0.4903795719146728,1.215725660324097,0.5542726516723633
1461.687289237976,159.36534118652344,-33.99616241455078,-143.28062438964844,-3.8141703605651855,0.9113287925720216,-14.125591278076172,-31.594423294067383,-71.93587493896484,174.3869171142578,-12.958551406860352,20.077247619628903,-11.703458786010742,-48.81173706054688,-51.40884399414063,-94.74453735351562,0.8614587783813477,1.3720111846923828,-4.919163703918457,61.51454162597656,30.42679977416992,83.87318420410156,0.2486798465251922,0.4897941946983337,-0.4130468368530273,159.11346435546875,-75.39978790283203,124.14177703857422,-2.431145191192627,-1.0473802089691162,-7.7301025390625
1461.7172877788544,157.5516815185547,-44.66813659667969,-141.54754638671875,-5.276185989379883,-0.4705920815467834,-10.894214630126951,-43.30371475219727,-73.96121215820312,-169.74819946289062,-4.169871330261231,-5.653101921081543,-10.533348083496094,-52.29805374145508,-59.333438873291016,-97.52550506591795,1.653911590576172,0.7949444055557251,-5.170169830322266,55.82916641235352,36.679229736328125,85.9898681640625,-3.970035076141357,2.9741978645324707,-0.1364765167236328,157.72711181640625,-74.13465881347656,126.4369659423828,-0.7385936975479126,-2.539804458618164,-7.642337799072266
1461.7473480701449,155.18807983398438,-56.572059631347656,-137.24278259277344,-2.537522792816162,-1.461177110671997,-2.3367486000061035,-57.86586380004883,-74.03243255615234,-161.0602569580078,9.100715637207031,-13.464776992797852,-7.739797592163086,-52.85866928100586,-66.03154754638672,-102.39801788330078,1.9910132884979248,3.02085542678833,-5.337034225463867,49.99600982666016,42.297645568847656,88.91789245605469,-2.8122072219848637,1.7234711647033691,-3.602949619293213,155.77804565429688,-74.46634674072266,129.66941833496094,0.5719664096832275,0.1336567997932434,-8.28318977355957
1461.7768819332125,150.9432373046875,-67.6461410522461,-128.51034545898438,2.3738107681274414,-2.393364429473877,0.6669178009033203,-56.41898727416992,-73.74906158447266,-164.29949951171875,-4.164285659790039,-4.148539543151856,-0.3281621932983398,-46.39247512817383,-72.0899429321289,-111.63842010498048,1.867542028427124,2.4749250411987305,-7.244277000427246,47.25096130371094,45.92730331420898,94.20050811767578,-1.0444471836090088,-0.3173238635063171,-5.285850524902344,148.8162078857422,-76.09479522705078,136.2870635986328,3.064863681793213,4.0968828201293945,-10.525405883789062
1461.8062162399292,136.62701416015625,-77.58842468261719,-108.30797576904295,4.929435729980469,-2.376502513885498,2.072587013244629,-56.99807357788086,-73.81647491455078,-163.2692108154297,-2.552409172058105,-1.7579433917999268,-2.843188762664795,-32.220848083496094,-77.73912048339844,-128.6478271484375,2.6042518615722656,2.078233242034912,-6.632624626159668,49.52897644042969,45.89303207397461,102.55249786376952,-2.0539565086364746,0.9643758535385132,-7.312399864196777,138.7721405029297,-77.05397033691406,143.177978515625,3.694711685180664,2.1859850883483887,-9.595476150512695
1461.867460012436,77.8293228149414,-82.2965087890625,-44.20674514770508,6.834895133972168,-0.0929300934076309,7.422145843505859,-68.42141723632812,-73.67579650878906,-154.96832275390625,-4.451173782348633,-1.6944572925567627,-0.7985725402832031,4.559353828430176,-81.87544250488281,-168.6221466064453,3.533464908599853,2.8587217330932617,-4.533360481262207,55.47962951660156,40.78930282592773,112.84381103515624,-3.910499572753906,3.3165841102600098,-13.664358139038086,136.942626953125,-76.26044464111328,141.89576721191406,0.3450159430503845,-1.5512676239013672,-1.575460433959961
1461.8967576026917,29.401857376098636,-76.40714263916016,5.627829551696777,14.070058822631836,11.249229431152344,-2.0329394340515137,-76.61531066894531,-73.23753356933594,-150.44998168945312,-5.232127189636231,-1.9752001762390137,2.3504438400268555,58.38543319702149,-79.8299560546875,133.59764099121094,3.029533863067627,2.088185787200928,-3.331926822662353,62.63608551025391,31.612689971923828,121.78504943847656,-10.655363082885742,11.68830680847168,-18.036453247070312,139.8427734375,-76.46532440185547,138.74635314941406,-2.752714157104492,-0.1315320134162902,1.0345191955566406
1461.9265596866608,12.158673286437988,-72.99510955810547,17.60959815979004,15.909696578979492,12.457496643066406,-10.130485534667969,-77.25456237792969,-72.7155990600586,-150.28506469726562,-3.907438278198242,-2.0740761756896973,5.434808731079102,82.46624755859375,-73.69522857666016,102.7670440673828,2.172786235809326,4.942309379577637,-0.9468669891357422,66.68439483642578,25.138681411743164,127.3896026611328,-9.365606307983398,3.877673625946045,-8.342342376708984,142.7633514404297,-77.24929809570312,136.6914520263672,1.8413519859313965,0.3055837750434875,0.3428668975830078
1461.9571096897123,15.902695655822754,-75.89350891113281,11.784754753112791,15.494117736816406,-1.3713080883026123,-5.1752471923828125,-78.82762908935547,-71.54573059082031,-148.29750061035156,-5.847637176513672,-2.402494430541992,1.871567726135254,92.4994125366211,-67.38705444335938,85.16741943359375,5.016552925109863,8.489835739135742,3.3106813430786133,72.21760559082031,27.21254539489746,125.41324615478516,4.590893745422363,-8.894390106201172,-8.696340560913086,148.36343383789062,-78.19087982177734,131.8091278076172,8.20734977722168,0.5821117162704468,4.369090080261231
1461.9873054027555,36.42671585083008,-81.11369323730469,-3.816669225692749,-6.195043563842773,-8.853683471679688,9.408885955810549,-80.14753723144531,-69.23101806640625,-146.7645721435547,-5.526957511901856,-1.7262790203094482,2.781792640686035,98.6138153076172,-63.463680267333984,75.9227294921875,8.72804069519043,12.387100219726562,7.319419860839844,78.97655487060547,33.30704498291016,117.48316192626952,-5.573171615600586,0.5821548700332642,-2.408455848693848,153.29917907714844,-78.95442962646484,126.95939636230467,5.04124927520752,2.871194362640381,7.953937530517578
1462.0175330638883,39.26015472412109,-84.67097473144531,-9.669400215148926,-7.712611198425293,-10.29298973083496,4.953868865966797,-78.23809051513672,-66.81771850585938,-147.03086853027344,-4.550298690795898,-2.1886215209960938,2.9075851440429688,105.5767593383789,-65.12515258789062,73.23538208007812,6.537249565124512,5.789697647094727,5.778275489807129,73.51536560058594,39.82901382446289,104.05621337890624,-8.779003143310547,8.623769760131836,-6.940090179443359,161.5172119140625,-79.54605865478516,120.1961669921875,-0.335260272026062,-0.5935853719711304,1.8492965698242188
1462.0471124649048,70.93054962158203,-87.21118927001953,-40.075565338134766,-3.931256294250488,1.1410126686096191,3.980572700500488,-75.34943389892578,-64.04898071289062,-146.94735717773438,-4.217447280883789,-5.718148231506348,0.1433830261230468,112.49414825439452,-71.87396240234375,71.92865753173828,2.3591384887695312,1.1946632862091064,6.0877838134765625,65.54972076416016,43.4222412109375,86.4534912109375,-3.248074531555176,3.054750442504883,-5.9952392578125,169.51177978515625,-79.62464904785156,114.24752807617188,2.5194201469421387,-1.8815624713897705,0.0701456069946289
1462.0770568847656,133.4053192138672,-85.95088195800781,-96.81265258789062,-4.549468040466309,7.086780548095703,0.5861682891845703,-71.5013198852539,-61.23836898803711,-146.64358520507812,-8.377012252807617,-8.388639450073242,-2.945352554321289,122.0006103515625,-79.76605224609375,67.65245056152344,1.626323938369751,-0.2964969277381897,1.744023323059082,57.99922180175781,42.96910095214844,68.60274505615234,-7.809254646301269,-2.795809745788574,-4.085977554321289,175.2789764404297,-79.18417358398438,110.76900482177734,1.4675238132476809,-0.846480131149292,-0.5738382339477539
1462.121354818344,157.83189392089844,-84.00220489501953,-119.19371795654295,1.4177708625793457,-0.1878762543201446,0.8876333236694336,-67.97183227539062,-59.93346786499024,-143.18637084960938,-22.88494873046875,-1.471346139907837,-10.959482192993164,147.31163024902344,-85.5908203125,48.67625045776367,1.482086420059204,-4.236064910888672,-2.408689022064209,52.47232818603516,38.82990264892578,52.13267517089844,-3.619205474853516,-8.59345817565918,-6.613938331604004,178.94076538085938,-79.30638885498047,110.17821502685548,-4.865016937255859,-1.851388454437256,-2.078518867492676
1462.1668934822085,168.1498260498047,-82.18455505371094,-127.70427703857422,2.4659199714660645,-1.718822956085205,0.581355094909668,-72.27455139160156,-60.77735900878906,-132.8290252685547,-22.231521606445312,0.5635687112808228,-5.636775970458984,-129.7626495361328,-86.6800537109375,-30.191858291625977,-0.3665937185287475,-3.9937844276428223,-3.3917202949523926,52.89274597167969,34.52632141113281,36.99515151977539,-0.69585120677948,-4.363899230957031,-5.331384658813477,-178.83526611328125,-79.32648468017578,112.3752899169922,-5.407905578613281,0.1660555899143219,-1.4654455184936523
1462.196893453598,175.16673278808594,-81.11524200439453,-132.36341857910156,-0.5878443717956543,3.5859804153442383,1.6182184219360352,-80.00574493408203,-62.81988525390625,-118.87874603271484,-13.009000778198242,-1.8568990230560305,-7.779177665710449,-102.94586944580078,-84.67543029785156,-54.56618881225586,-5.703449249267578,-2.6381754875183105,-1.1858177185058594,56.95765686035156,31.397356033325195,24.19072151184082,2.867708683013916,-7.939339637756348,-4.890647888183594,-179.18202209472656,-78.84387969970703,115.23043060302734,0.211925595998764,2.413214683532715,3.478655815124512
1462.2278962135315,-177.78781127929688,-80.86920928955078,-139.13108825683594,-0.4560441970825195,2.3228507041931152,0.993586540222168,-92.03480529785156,-64.90302276611328,-101.7509307861328,-9.501140594482422,-2.180761814117432,-10.603242874145508,-93.15349578857422,-84.50945281982422,-62.86430358886719,-8.741348266601562,-2.4996280670166016,4.023094177246094,65.87359619140625,28.169368743896484,15.872096061706545,-0.0539558008313179,-4.7427520751953125,-2.078540325164795,-178.81434631347656,-78.56961059570312,116.28086853027344,-1.9448111057281492,3.5774097442626958,3.965322494506836
1462.2570912837982,-168.4984130859375,-81.06339263916016,-148.99609375,-0.8961385488510132,0.9460504055023192,0.4338445663452148,-109.09650421142578,-65.98551177978516,-81.91956329345703,-4.431018829345703,-1.5841856002807615,-10.12514877319336,-86.39202880859375,-83.76068115234375,-72.2864990234375,-7.593197822570801,-2.5330629348754883,3.4785375595092773,72.50640869140625,22.5975341796875,10.716840744018556,6.215572357177734,4.214757919311523,6.770038604736328,-179.2788543701172,-78.162109375,117.44987487792967,-4.078645706176758,2.329773426055908,-0.2134542465209961
1462.2870738506315,-157.61767578125,-81.03958892822266,-160.90487670898438,-1.681308031082153,-0.8384329080581665,-0.6722688674926758,-127.7786865234375,-65.4164810180664,-62.921573638916016,-2.3941898345947266,-0.7913213968276978,-9.729925155639648,-84.17112731933594,-80.88410949707031,-80.3923568725586,-3.456542491912842,-1.6345605850219729,1.828761100769043,72.04621124267578,14.861016273498535,5.591879367828369,6.002781867980957,-7.962800979614258,-2.7960643768310547,179.10084533691406,-77.61927795410156,119.38320922851562,-1.306403398513794,1.358306884765625,-2.3039021492004395
1462.3172204494476,-150.64535522460938,-80.27405548095703,-169.7487335205078,0.2412884831428527,-3.1769514083862305,-0.8459939956665039,-143.44252014160156,-64.55643463134766,-47.67899703979492,-1.5338218212127686,3.978859424591065,-5.916926383972168,-81.47370910644531,-76.0852279663086,-88.28174591064453,-1.8675284385681152,1.151235580444336,0.4716167449951172,77.89684295654297,2.80901837348938,2.0780179500579834,10.765703201293944,-6.927911758422852,-8.532876968383789,176.10641479492188,-77.06059265136719,122.17860412597656,-0.0816812366247177,1.3749377727508545,-3.875217914581299
1462.3472969532013,-152.9332733154297,-78.70175170898438,-168.18385314941406,-0.0662885755300521,-4.12216854095459,-1.283466339111328,-151.7581329345703,-65.12966918945312,-35.54743957519531,1.4587881565093994,6.4955339431762695,-5.791935920715332,-79.08356475830078,-69.89554595947266,-95.24898529052734,-1.6059458255767822,-0.9244445562362672,-2.775053024291992,85.83753204345703,-12.747803688049316,-0.4236938059329986,16.630897521972656,-2.40164566040039,2.250582695007324,170.96771240234375,-76.14146423339844,125.8457489013672,1.6565868854522705,1.0254197120666504,-5.297625541687012
1462.3772685527802,-160.28831481933594,-76.24291229248047,-159.7349395751953,0.6853412389755249,-5.008110046386719,-1.5359630584716797,-151.95849609375,-67.39450073242188,-27.50840759277344,7.70848274230957,1.9482555389404297,-3.1491661071777344,-77.23473358154297,-62.84798049926758,-103.30525970458984,-1.9511041641235352,-2.494368076324463,-4.418976783752441,89.05110931396484,-30.66063117980957,-1.9226194620132449,21.430469512939453,-5.931485176086426,3.9600114822387695,162.47158813476562,-74.77862548828125,130.59898376464844,2.975660800933838,0.7111687660217285,-4.533957481384277
1462.4064421653748,-168.33358764648438,-72.67096710205078,-148.78065490722656,-1.610976219177246,0.6559380292892456,-0.6158866882324219,-145.9475555419922,-70.1198959350586,-26.371814727783203,-12.619325637817385,5.622465133666992,12.484695434570312,-76.50170135498047,-56.3643798828125,-112.36348724365234,-1.7651689052581787,-0.6645127534866333,-5.818384170532227,95.43729400634766,-46.379207611083984,-2.5209875106811523,18.31249618530273,-5.443938255310059,9.74884796142578,149.0910186767578,-73.513671875,138.48350524902344,1.5222368240356443,-0.7142444849014282,-4.373260498046875
1462.4669528007507,-175.07208251953125,-66.96659851074219,-139.53424072265625,-0.9736441373825072,0.261512815952301,-0.7414331436157227,-149.12623596191406,-68.40913391113281,-29.12707901000977,16.02328872680664,4.116510391235352,-3.801638126373291,-75.87644958496094,-51.0994873046875,-121.71763610839844,0.6839032173156738,-0.1434173583984375,-4.10706901550293,100.63709259033205,-50.37154769897461,-7.273313999176025,-4.518303871154785,-4.579035758972168,3.5196027755737305,134.86453247070312,-72.27698516845703,147.94525146484375,-1.8103995323181152,-0.3913087844848633,-3.8436689376831055
1462.4969532489777,-178.56503295898438,-61.22153472900391,-134.93894958496094,1.9371416568756104,-0.7120617628097534,-0.3998022079467773,-145.13096618652344,-69.4605484008789,-36.90361022949219,6.035194396972656,0.5144383907318115,12.030576705932615,-72.47593688964844,-45.99591827392578,-132.56454467773438,9.443836212158203,-0.6867871284484863,1.728668212890625,97.4399871826172,-48.454833984375,-11.998689651489258,13.187841415405272,0.1551241874694824,-1.0317611694335938,125.74514770507812,-71.75714111328125,154.67625427246094,-8.729351043701172,-1.0583643913269043,-2.220402240753174
1462.5269548892977,179.96498107910156,-56.57997512817383,-132.90875244140625,1.8191113471984863,0.8057103157043457,-0.1921157836914062,-144.7138671875,-67.12336730957031,-42.24396896362305,0.1613873839378357,-3.613007068634033,18.61700439453125,-67.89744567871094,-38.91479110717773,-142.25949096679688,8.2674560546875,0.2678389549255371,11.121175765991213,93.70254516601562,-49.43716430664063,-12.218549728393556,19.929096221923828,-1.3634090423583984,-2.454071044921875,123.3627700805664,-71.47783660888672,156.5020294189453,-4.556116104125977,1.4278619289398191,3.394350051879883
1462.556787967682,179.43458557128906,-53.25815200805664,-132.44699096679688,-0.8739922046661377,0.8538014888763428,1.176958084106445,-146.69090270996094,-62.600345611572266,-41.86602020263672,4.54163932800293,-12.57701301574707,13.97431755065918,-69.20565795898438,-28.27735137939453,-146.64306640625,25.00774383544922,7.83172607421875,14.965129852294922,95.18264770507812,-52.28886032104492,-12.16879653930664,17.18511962890625,-0.6127744913101196,3.239853858947754,120.38701629638672,-70.65130615234375,158.35333251953125,4.121363639831543,0.3021606802940368,7.28717041015625
